time,ax_raw,ay_raw,az_raw,ax,ay,az,gx,gy,gz
0.000996,-0.067061,0.023950,10.052496,-0.000360,-0.008154,-0.002641,0.061035,0.030518,0.030518
0.011096,-0.061073,0.028141,10.053693,0.005628,-0.003962,-0.001444,0.030518,0.030518,0.061035
0.021194,-0.068258,0.035327,10.063273,-0.001558,0.003223,0.008136,0.000000,0.061035,0.091553
0.031284,-0.066462,0.034129,10.065668,0.000239,0.002025,0.010531,0.030518,0.030518,0.061035
0.041374,-0.063468,0.033530,10.062076,0.003233,0.001427,0.006939,0.030518,0.030518,0.030518
0.051464,-0.064067,0.035925,10.057286,0.002634,0.003822,0.002149,0.030518,0.030518,0.000000
0.061554,-0.056882,0.036524,10.060280,0.009819,0.004420,0.005143,0.030518,0.030518,0.030518
0.071645,-0.057480,0.029339,10.066866,0.009220,-0.002765,0.011729,0.030518,0.030518,0.061035
0.081735,-0.060474,0.031734,10.073452,0.006226,-0.000370,0.018315,0.000000,0.000000,0.030518
0.091826,-0.067659,0.028141,10.071656,-0.000959,-0.003962,0.016519,0.030518,0.030518,0.030518
0.101916,-0.065863,0.026944,10.065070,0.000838,-0.005160,0.009933,0.000000,0.000000,0.030518
0.112004,-0.070054,0.028141,10.068063,-0.003354,-0.003962,0.012926,0.061035,0.030518,0.061035
0.122094,-0.067659,0.034129,10.060878,-0.000959,0.002025,0.005741,0.000000,0.000000,0.091553
0.132190,-0.064067,0.033530,10.061477,0.002634,0.001427,0.006340,0.030518,0.000000,0.061035
0.142287,-0.074246,0.039518,10.062675,-0.007545,0.007414,0.007538,0.030518,0.061035,0.030518
0.152383,-0.073647,0.032932,10.065070,-0.006946,0.000828,0.009933,0.061035,0.061035,0.030518
0.162481,-0.067061,0.031734,10.062076,-0.000360,-0.000370,0.006939,0.061035,0.030518,0.061035
0.172577,-0.064666,0.031734,10.062076,0.002035,-0.000370,0.006939,0.061035,0.000000,0.030518
0.182672,-0.063468,0.039518,10.063273,0.003233,0.007414,0.008136,0.030518,0.030518,0.030518
0.192768,-0.064666,0.038919,10.067465,0.002035,0.006815,0.012328,0.061035,0.030518,0.061035
0.202862,-0.067061,0.034728,10.063872,-0.000360,0.002624,0.008735,0.030518,0.030518,0.030518
0.212957,-0.073048,0.028141,10.054292,-0.006348,-0.003962,-0.000845,0.030518,0.030518,0.030518
0.223053,-0.074844,0.028141,10.056687,-0.008144,-0.003962,0.001550,0.061035,0.030518,0.030518
0.233150,-0.066462,0.028740,10.066267,0.000239,-0.003364,0.011130,0.061035,-0.030518,0.061035
0.243246,-0.064666,0.034728,10.066866,0.002035,0.002624,0.011729,0.030518,0.000000,0.061035
0.253342,-0.064067,0.033530,10.059681,0.002634,0.001427,0.004544,0.030518,0.000000,0.091553
0.263438,-0.066462,0.032333,10.054891,0.000239,0.000229,-0.000246,0.030518,0.000000,0.061035
0.273536,-0.065863,0.034728,10.061477,0.000838,0.002624,0.006340,0.030518,0.000000,0.061035
0.283633,-0.061073,0.028141,10.056088,0.005628,-0.003962,0.000951,0.030518,0.030518,0.061035
0.293729,-0.055085,0.028740,10.059082,0.011615,-0.003364,0.003945,0.030518,0.061035,0.061035
0.303825,-0.052690,0.032932,10.056687,0.014010,0.000828,0.001550,0.030518,0.091553,0.030518
0.313917,-0.050894,0.035925,10.052496,0.015806,0.003822,-0.002641,0.030518,0.030518,0.030518
0.324013,-0.053289,0.034728,10.057885,0.013411,0.002624,0.002748,0.030518,0.061035,0.000000
0.334106,-0.065264,0.038919,10.056088,0.001436,0.006815,0.000951,0.030518,0.030518,0.000000
0.344199,-0.058678,0.040117,10.060280,0.008023,0.008013,0.005143,0.030518,0.030518,0.000000
0.354292,-0.058079,0.038320,10.054292,0.008621,0.006217,-0.000845,0.030518,0.030518,0.000000
0.364386,-0.058678,0.031734,10.053094,0.008023,-0.000370,-0.002043,0.030518,0.030518,0.030518
0.374479,-0.066462,0.020358,10.060878,0.000239,-0.011746,0.005741,0.030518,0.030518,0.000000
0.384572,-0.064067,0.026944,10.052496,0.002634,-0.005160,-0.002641,0.030518,0.061035,-0.030518
0.394664,-0.067061,0.026944,10.050699,-0.000360,-0.005160,-0.004438,0.061035,0.122070,0.030518
0.404757,-0.065863,0.020956,10.053094,0.000838,-0.011147,-0.002043,0.030518,0.061035,0.000000
0.414849,-0.058678,0.024549,10.055490,0.008023,-0.007555,0.000353,0.061035,0.061035,0.000000
0.424942,-0.061672,0.029938,10.060280,0.005029,-0.002166,0.005143,0.030518,0.000000,0.030518
0.435034,-0.062869,0.027543,10.057286,0.003831,-0.004561,0.002149,0.030518,0.000000,0.061035
0.445126,-0.067061,0.032333,10.057885,-0.000360,0.000229,0.002748,0.061035,0.030518,0.030518
0.455224,-0.067659,0.029339,10.054891,-0.000959,-0.002765,-0.000246,0.030518,0.061035,0.030518
0.465319,-0.066462,0.030536,10.053094,0.000239,-0.001567,-0.002043,0.061035,0.061035,0.030518
0.475413,-0.067061,0.034129,10.059082,-0.000360,0.002025,0.003945,0.030518,0.061035,0.030518
0.485506,-0.067659,0.037123,10.058483,-0.000959,0.005019,0.003346,0.030518,0.091553,0.061035
0.495602,-0.068857,0.026944,10.054891,-0.002156,-0.005160,-0.000246,0.000000,0.061035,0.091553
0.505696,-0.062869,0.022154,10.053094,0.003831,-0.009950,-0.002043,0.000000,0.061035,0.061035
0.515794,-0.065264,0.025746,10.044113,0.001436,-0.006357,-0.011024,-0.030518,0.061035,0.091553
0.525887,-0.064067,0.025148,10.048304,0.002634,-0.006956,-0.006833,-0.061035,0.091553,0.061035
0.535983,-0.070653,0.025746,10.053094,-0.003953,-0.006357,-0.002043,0.000000,0.061035,0.091553
0.546076,-0.069456,0.028141,10.050101,-0.002755,-0.003962,-0.005036,0.000000,0.061035,0.091553
0.556172,-0.076042,0.028141,10.050101,-0.009341,-0.003962,-0.005036,0.061035,0.061035,0.091553
0.566265,-0.072449,0.030536,10.046508,-0.005749,-0.001567,-0.008629,0.061035,0.091553,0.091553
0.576363,-0.069456,0.022753,10.051298,-0.002755,-0.009351,-0.003839,0.061035,0.061035,0.091553
0.586457,-0.073647,0.025746,10.054891,-0.006946,-0.006357,-0.000246,0.061035,0.061035,0.061035
0.596554,-0.080233,0.025746,10.052496,-0.013533,-0.006357,-0.002641,0.061035,0.091553,0.061035
0.606648,-0.078437,0.028141,10.047706,-0.011736,-0.003962,-0.007431,0.061035,0.091553,0.061035
0.616744,-0.079036,0.025148,10.052496,-0.012335,-0.006956,-0.002641,0.091553,0.061035,0.061035
0.626837,-0.079634,0.024549,10.062675,-0.012934,-0.007555,0.007538,0.061035,0.030518,0.091553
0.636934,-0.085023,0.026345,10.062076,-0.018323,-0.005759,0.006939,0.091553,0.061035,0.061035
0.647028,-0.083826,0.025746,10.058483,-0.017125,-0.006357,0.003346,0.061035,0.000000,0.061035
0.657124,-0.076641,0.032932,10.053693,-0.009940,0.000828,-0.001444,0.061035,0.061035,0.091553
0.667219,-0.075443,0.028740,10.057885,-0.008743,-0.003364,0.002748,0.061035,0.061035,0.091553
0.677314,-0.061672,0.022753,10.056088,0.005029,-0.009351,0.000951,0.061035,0.061035,0.061035
0.687409,-0.064666,0.023351,10.054292,0.002035,-0.008752,-0.000845,0.061035,0.030518,0.030518
0.697505,-0.067659,0.020358,10.052496,-0.000959,-0.011746,-0.002641,0.061035,0.030518,0.030518
0.707603,-0.068857,0.019759,10.042317,-0.002156,-0.012345,-0.012820,0.030518,0.061035,0.061035
0.717699,-0.064666,0.017364,10.046508,0.002035,-0.014740,-0.008629,0.030518,0.030518,0.061035
0.727796,-0.061073,0.023351,10.051897,0.005628,-0.008752,-0.003240,0.030518,0.000000,0.030518
0.737891,-0.057480,0.028740,10.050101,0.009220,-0.003364,-0.005036,-0.030518,0.030518,0.000000
0.747989,-0.058079,0.036524,10.055490,0.008621,0.004420,0.000353,-0.030518,0.000000,-0.030518
0.758086,-0.057480,0.040715,10.056687,0.009220,0.008612,0.001550,-0.030518,0.030518,-0.030518
0.768205,-0.064666,0.040117,10.065668,0.002035,0.008013,0.010531,0.030518,0.000000,-0.030518
0.778414,-0.063468,0.032932,10.065070,0.003233,0.000828,0.009933,0.030518,-0.030518,-0.030518
0.788576,-0.064067,0.035925,10.064471,0.002634,0.003822,0.009334,0.030518,0.000000,0.000000
0.798682,-0.064666,0.044907,10.057286,0.002035,0.012803,0.002149,0.000000,0.000000,0.000000
0.808782,-0.065264,0.047302,10.051298,0.001436,0.015198,-0.003839,0.030518,0.000000,0.030518
0.818877,-0.066462,0.045505,10.053094,0.000239,0.013402,-0.002043,0.061035,0.030518,0.030518
0.828972,-0.067061,0.043709,10.056088,-0.000360,0.011605,0.000951,0.061035,0.030518,0.061035
0.839055,-0.071252,0.037123,10.061477,-0.004551,0.005019,0.006340,0.030518,0.030518,0.061035
0.849136,-0.072449,0.034129,10.059082,-0.005749,0.002025,0.003945,0.000000,0.030518,0.030518
0.859227,-0.066462,0.032932,10.057286,0.000239,0.000828,0.002149,-0.030518,0.030518,0.030518
0.869316,-0.065264,0.040715,10.065070,0.001436,0.008612,0.009933,0.000000,0.030518,0.030518
0.879399,-0.065863,0.036524,10.066267,0.000838,0.004420,0.011130,0.000000,0.030518,0.030518
0.889484,-0.062869,0.032333,10.060878,0.003831,0.000229,0.005741,-0.030518,0.061035,0.061035
0.899575,-0.062271,0.034728,10.062675,0.004430,0.002624,0.007538,-0.030518,0.000000,0.061035
0.909654,-0.062271,0.031734,10.059681,0.004430,-0.000370,0.004544,0.030518,0.000000,0.030518
0.919736,-0.064067,0.032333,10.061477,0.002634,0.000229,0.006340,0.000000,0.000000,0.030518
0.929823,-0.066462,0.025148,10.060878,0.000239,-0.006956,0.005741,0.061035,0.030518,0.000000
0.939915,-0.067061,0.028141,10.051298,-0.000360,-0.003962,-0.003839,0.061035,0.061035,0.000000
0.950006,-0.072449,0.033530,10.049502,-0.005749,0.001427,-0.005635,0.061035,0.061035,0.030518
0.960126,-0.074246,0.032333,10.051298,-0.007545,0.000229,-0.003839,0.061035,0.061035,0.061035
0.970216,-0.067061,0.029339,10.052496,-0.000360,-0.002765,-0.002641,0.061035,0.061035,0.061035
0.980306,-0.067659,0.032333,10.050101,-0.000959,0.000229,-0.005036,0.030518,0.061035,0.030518
0.990396,-0.068857,0.029938,10.055490,-0.002156,-0.002166,0.000353,0.030518,0.030518,0.030518
1.000487,-0.070054,0.023351,10.046508,-0.003354,-0.008752,-0.008629,-0.061035,0.000000,0.061035
1.010576,-0.068258,0.022753,10.045311,-0.001558,-0.009351,-0.009826,0.000000,0.000000,0.061035
1.020679,-0.072449,0.021555,10.055490,-0.005749,-0.010549,0.000353,-0.030518,0.030518,0.030518
1.030766,-0.077239,0.021555,10.058483,-0.010539,-0.010549,0.003346,-0.061035,0.000000,0.030518
1.040856,-0.073647,0.026944,10.056088,-0.006946,-0.005160,0.000951,-0.030518,0.030518,0.061035
1.050959,-0.073048,0.026345,10.046508,-0.006348,-0.005759,-0.008629,-0.061035,0.000000,0.061035
1.061051,-0.069456,0.021555,10.046508,-0.002755,-0.010549,-0.008629,-0.061035,0.000000,0.061035
1.071140,-0.061672,0.029938,10.053693,0.005029,-0.002166,-0.001444,-0.030518,0.000000,0.061035
1.081242,-0.067061,0.026944,10.050699,-0.000360,-0.005160,-0.004438,-0.061035,0.030518,0.061035
1.091332,-0.064067,0.025746,10.049502,0.002634,-0.006357,-0.005635,-0.030518,0.030518,0.091553
1.101422,-0.067061,0.028740,10.047107,-0.000360,-0.003364,-0.008030,0.000000,0.061035,0.061035
1.111511,-0.069456,0.034129,10.055490,-0.002755,0.002025,0.000353,0.000000,0.061035,0.061035
1.121613,-0.058678,0.030536,10.057885,0.008023,-0.001567,0.002748,-0.030518,0.030518,0.091553
1.131704,-0.061073,0.027543,10.057885,0.005628,-0.004561,0.002748,0.000000,0.000000,0.091553
1.141869,-0.072449,0.029339,10.056088,-0.005749,-0.002765,0.000951,0.000000,0.000000,0.091553
1.151960,-0.071851,0.028740,10.059082,-0.005150,-0.003364,0.003945,0.030518,-0.030518,0.091553
1.162051,-0.072449,0.029339,10.057286,-0.005749,-0.002765,0.002149,0.030518,0.030518,0.061035
1.172139,-0.070054,0.028740,10.061477,-0.003354,-0.003364,0.006340,0.030518,0.030518,0.061035
1.182229,-0.069456,0.028740,10.059681,-0.002755,-0.003364,0.004544,0.061035,0.030518,0.061035
1.192316,-0.074246,0.032932,10.057885,-0.007545,0.000828,0.002748,0.061035,0.030518,0.091553
1.202405,-0.076641,0.032932,10.048903,-0.009940,0.000828,-0.006234,0.061035,0.030518,0.091553
1.212495,-0.071851,0.035925,10.051897,-0.005150,0.003822,-0.003240,0.061035,0.030518,0.061035
1.222584,-0.073647,0.033530,10.054891,-0.006946,0.001427,-0.000246,0.061035,0.061035,0.030518
1.232675,-0.071851,0.034129,10.058483,-0.005150,0.002025,0.003346,0.061035,0.061035,0.000000
1.242767,-0.068857,0.024549,10.053094,-0.002156,-0.007555,-0.002043,0.061035,0.061035,0.030518
1.253059,-0.074246,0.029938,10.048304,-0.007545,-0.002166,-0.006833,0.061035,0.000000,0.030518
1.263157,-0.066462,0.022753,10.050101,0.000239,-0.009351,-0.005036,0.030518,0.030518,0.030518
1.273253,-0.067061,0.022753,10.053693,-0.000360,-0.009351,-0.001444,0.030518,0.030518,0.061035
1.283350,-0.075443,0.026345,10.055490,-0.008743,-0.005759,0.000353,0.030518,0.030518,0.061035
1.293447,-0.076042,0.020358,10.053094,-0.009341,-0.011746,-0.002043,0.000000,0.030518,0.030518
1.303568,-0.068857,0.024549,10.051897,-0.002156,-0.007555,-0.003240,-0.030518,0.030518,0.061035
1.313664,-0.065863,0.032932,10.050699,0.000838,0.000828,-0.004438,-0.030518,0.030518,0.091553
1.323761,-0.065863,0.025746,10.054292,0.000838,-0.006357,-0.000845,0.061035,0.030518,0.061035
1.333853,-0.071252,0.023351,10.052496,-0.004551,-0.008752,-0.002641,0.061035,0.030518,0.061035
1.343945,-0.069456,0.019759,10.050101,-0.002755,-0.012345,-0.005036,0.061035,0.030518,0.061035
1.354030,-0.058678,0.019160,10.045311,0.008023,-0.012944,-0.009826,0.061035,0.030518,0.030518
1.364151,-0.064067,0.015568,10.047706,0.002634,-0.016536,-0.007431,0.061035,0.061035,0.030518
1.374238,-0.065863,0.020358,10.056088,0.000838,-0.011746,0.000951,0.091553,0.091553,0.091553
1.384323,-0.064067,0.016166,10.057885,0.002634,-0.015937,0.002748,0.061035,0.061035,0.061035
1.394409,-0.061073,0.019759,10.057885,0.005628,-0.012345,0.002748,0.061035,0.061035,0.000000
1.404499,-0.061672,0.025148,10.048903,0.005029,-0.006956,-0.006234,0.030518,0.030518,0.000000
1.414588,-0.059875,0.024549,10.050101,0.006825,-0.007555,-0.005036,0.061035,0.030518,0.030518
1.424675,-0.063468,0.027543,10.055490,0.003233,-0.004561,0.000353,0.000000,0.030518,0.030518
1.434761,-0.062869,0.034728,10.048304,0.003831,0.002624,-0.006833,0.000000,0.030518,0.030518
1.444852,-0.062869,0.036524,10.048304,0.003831,0.004420,-0.006833,0.000000,0.030518,0.030518
1.454946,-0.060474,0.032932,10.048304,0.006226,0.000828,-0.006833,0.000000,0.000000,0.000000
1.465038,-0.061672,0.034129,10.048304,0.005029,0.002025,-0.006833,0.061035,0.030518,0.000000
1.475132,-0.062271,0.034728,10.054292,0.004430,0.002624,-0.000845,0.030518,0.030518,0.000000
1.485225,-0.073647,0.034728,10.051897,-0.006946,0.002624,-0.003240,0.030518,0.030518,0.061035
1.495319,-0.068857,0.030536,10.056687,-0.002156,-0.001567,0.001550,0.030518,0.030518,0.061035
1.505410,-0.069456,0.029938,10.053693,-0.002755,-0.002166,-0.001444,0.030518,0.061035,0.030518
1.515506,-0.062271,0.027543,10.058483,0.004430,-0.004561,0.003346,0.000000,0.061035,0.000000
1.525599,-0.058079,0.032333,10.064471,0.008621,0.000229,0.009334,0.061035,0.061035,0.000000
1.535694,-0.060474,0.031734,10.065668,0.006226,-0.000370,0.010531,0.030518,0.030518,0.000000
1.545783,-0.057480,0.033530,10.065668,0.009220,0.001427,0.010531,0.030518,0.000000,0.030518
1.555873,-0.055085,0.034129,10.065668,0.011615,0.002025,0.010531,0.091553,-0.030518,0.061035
1.565959,-0.050295,0.031135,10.068063,0.016405,-0.000968,0.012926,0.091553,0.000000,0.091553
1.576048,-0.051493,0.034129,10.069261,0.015208,0.002025,0.014124,0.061035,0.000000,0.061035
1.586136,-0.054487,0.032932,10.064471,0.012214,0.000828,0.009334,0.091553,0.000000,0.091553
1.596226,-0.056882,0.038320,10.056088,0.009819,0.006217,0.000951,0.061035,0.030518,0.091553
1.606313,-0.064067,0.032333,10.051897,0.002634,0.000229,-0.003240,0.091553,0.030518,0.091553
1.616402,-0.068258,0.033530,10.059082,-0.001558,0.001427,0.003945,0.091553,0.061035,0.061035
1.626487,-0.065863,0.025746,10.066267,0.000838,-0.006357,0.011130,0.122070,0.000000,0.091553
1.636577,-0.063468,0.031734,10.057286,0.003233,-0.000370,0.002149,0.091553,0.000000,0.091553
1.646669,-0.062869,0.034129,10.057885,0.003831,0.002025,0.002748,0.091553,0.000000,0.061035
1.656767,-0.065264,0.028141,10.056088,0.001436,-0.003962,0.000951,0.091553,0.030518,0.000000
1.666861,-0.071851,0.028740,10.059681,-0.005150,-0.003364,0.004544,0.091553,0.030518,0.000000
1.676956,-0.073647,0.023950,10.059082,-0.006946,-0.008154,0.003945,0.122070,0.030518,0.061035
1.687047,-0.071851,0.023950,10.053693,-0.005150,-0.008154,-0.001444,0.122070,0.061035,0.061035
1.697144,-0.076641,0.024549,10.055490,-0.009940,-0.007555,0.000353,0.122070,0.061035,0.061035
1.707240,-0.077838,0.026944,10.052496,-0.011138,-0.005160,-0.002641,0.091553,0.030518,0.030518
1.717334,-0.073048,0.025746,10.057286,-0.006348,-0.006357,0.002149,0.030518,0.030518,0.030518
1.727429,-0.078437,0.021555,10.053094,-0.011736,-0.010549,-0.002043,0.030518,0.030518,0.030518
1.737524,-0.081431,0.019160,10.046508,-0.014730,-0.012944,-0.008629,0.061035,0.061035,0.030518
1.747614,-0.068258,0.015568,10.052496,-0.001558,-0.016536,-0.002641,0.030518,0.030518,0.000000
1.757705,-0.064067,0.017963,10.050699,0.002634,-0.014141,-0.004438,0.061035,0.030518,0.030518
1.767794,-0.064666,0.016166,10.050699,0.002035,-0.015937,-0.004438,0.091553,0.061035,0.061035
1.777882,-0.064666,0.013173,10.056687,0.002035,-0.018931,0.001550,0.091553,0.030518,0.061035
1.787971,-0.063468,0.012574,10.055490,0.003233,-0.019530,0.000353,0.061035,0.061035,0.030518
1.798060,-0.074246,0.013771,10.054891,-0.007545,-0.018332,-0.000246,0.091553,0.061035,0.061035
1.808147,-0.074844,0.016765,10.051298,-0.008144,-0.015339,-0.003839,0.091553,0.030518,0.061035
1.818235,-0.071252,0.011975,10.059082,-0.004551,-0.020129,0.003945,0.091553,0.061035,0.061035
1.828323,-0.071252,0.021555,10.055490,-0.004551,-0.010549,0.000353,0.091553,0.030518,0.061035
1.838412,-0.065863,0.021555,10.054891,0.000838,-0.010549,-0.000246,0.061035,0.091553,0.030518
1.848506,-0.062869,0.032932,10.048304,0.003831,0.000828,-0.006833,0.091553,0.061035,0.030518
1.858603,-0.055085,0.029938,10.050699,0.011615,-0.002166,-0.004438,0.091553,0.061035,0.000000
1.868699,-0.058678,0.035925,10.057286,0.008023,0.003822,0.002149,0.061035,0.061035,0.030518
1.878796,-0.061073,0.034728,10.060280,0.005628,0.002624,0.005143,0.061035,0.061035,0.030518
1.888892,-0.060474,0.023950,10.054292,0.006226,-0.008154,-0.000845,0.030518,0.061035,0.030518
1.898987,-0.062271,0.026345,10.052496,0.004430,-0.005759,-0.002641,0.030518,0.030518,0.061035
1.909083,-0.060474,0.031135,10.050101,0.006226,-0.000968,-0.005036,0.030518,0.030518,0.061035
1.919179,-0.065863,0.030536,10.054891,0.000838,-0.001567,-0.000246,0.061035,0.061035,0.061035
1.929275,-0.064666,0.023351,10.053094,0.002035,-0.008752,-0.002043,0.091553,0.091553,0.061035
1.939371,-0.070054,0.023950,10.042317,-0.003354,-0.008154,-0.012820,0.061035,0.061035,0.061035
1.949459,-0.074246,0.021555,10.038126,-0.007545,-0.010549,-0.017011,0.061035,0.061035,0.061035
1.959548,-0.067659,0.031135,10.051897,-0.000959,-0.000968,-0.003240,0.091553,0.030518,0.061035
1.969635,-0.062271,0.035925,10.054891,0.004430,0.003822,-0.000246,0.122070,0.061035,0.030518
1.979725,-0.065264,0.034728,10.054891,0.001436,0.002624,-0.000246,0.091553,0.061035,0.061035
1.989815,-0.066462,0.029339,10.053094,0.000239,-0.002765,-0.002043,0.030518,0.091553,0.061035
1.999905,-0.069456,0.028740,10.051897,-0.002755,-0.003364,-0.003240,0.091553,0.061035,0.061035
2.009995,-0.077239,0.029938,10.045909,-0.010539,-0.002166,-0.009228,0.061035,0.030518,0.061035
2.020085,-0.073048,0.031734,10.044712,-0.006348,-0.000370,-0.010425,0.061035,0.000000,0.061035
2.030174,-0.067061,0.025746,10.050101,-0.000360,-0.006357,-0.005036,0.091553,0.000000,0.061035
2.040354,-0.058678,0.031135,10.046508,0.008023,-0.000968,-0.008629,0.091553,0.000000,0.091553
2.050766,-0.058678,0.035327,10.041718,0.008023,0.003223,-0.013419,0.061035,0.030518,0.000000
2.060858,-0.057480,0.035925,10.046508,0.009220,0.003822,-0.008629,0.061035,0.030518,0.000000
2.070948,-0.058678,0.029938,10.054292,0.008023,-0.002166,-0.000845,0.061035,0.030518,0.061035
2.081059,-0.063468,0.029938,10.059082,0.003233,-0.002166,0.003945,0.030518,0.000000,0.091553
2.091156,-0.063468,0.032333,10.063273,0.003233,0.000229,0.008136,0.030518,0.030518,0.091553
2.101253,-0.065264,0.032932,10.052496,0.001436,0.000828,-0.002641,0.061035,0.061035,0.061035
2.111350,-0.065264,0.025148,10.053094,0.001436,-0.006956,-0.002043,0.091553,0.061035,0.061035
2.121446,-0.062271,0.029938,10.059681,0.004430,-0.002166,0.004544,0.091553,0.061035,0.030518
2.131542,-0.059875,0.027543,10.058483,0.006825,-0.004561,0.003346,0.091553,0.061035,0.030518
2.141639,-0.053289,0.019759,10.051298,0.013411,-0.012345,-0.003839,0.122070,0.061035,0.030518
2.151731,-0.065863,0.020956,10.052496,0.000838,-0.011147,-0.002641,0.152588,0.061035,0.061035
2.161822,-0.064666,0.025148,10.056687,0.002035,-0.006956,0.001550,0.091553,0.091553,0.030518
2.171912,-0.065863,0.031135,10.055490,0.000838,-0.000968,0.000353,0.122070,0.091553,0.091553
2.182002,-0.062271,0.028141,10.060280,0.004430,-0.003962,0.005143,0.091553,0.091553,0.061035
2.192091,-0.059277,0.034728,10.052496,0.007424,0.002624,-0.002641,0.091553,0.030518,0.091553
2.202181,-0.066462,0.031734,10.048304,0.000239,-0.000370,-0.006833,0.061035,0.061035,0.061035
2.212270,-0.075443,0.022154,10.055490,-0.008743,-0.009950,0.000353,0.061035,0.030518,0.061035
2.222360,-0.073048,0.027543,10.056687,-0.006348,-0.004561,0.001550,0.091553,0.030518,0.091553
2.232450,-0.075443,0.028141,10.060280,-0.008743,-0.003962,0.005143,0.061035,0.000000,0.061035
2.242539,-0.069456,0.027543,10.054292,-0.002755,-0.004561,-0.000845,0.091553,0.030518,0.030518
2.252653,-0.068857,0.029938,10.052496,-0.002156,-0.002166,-0.002641,0.061035,0.000000,0.030518
2.262754,-0.067061,0.034129,10.058483,-0.000360,0.002025,0.003346,0.091553,-0.030518,0.030518
2.273497,-0.063468,0.028740,10.057885,0.003233,-0.003364,0.002748,0.061035,0.000000,0.030518
2.283599,-0.057480,0.030536,10.052496,0.009220,-0.001567,-0.002641,0.061035,0.000000,0.091553
2.293693,-0.057480,0.030536,10.050101,0.009220,-0.001567,-0.005036,0.061035,0.030518,0.091553
2.303790,-0.062271,0.029938,10.050101,0.004430,-0.002166,-0.005036,0.091553,0.030518,0.091553
2.313878,-0.056283,0.030536,10.060878,0.010418,-0.001567,0.005741,0.061035,0.030518,0.091553
2.323971,-0.061672,0.034129,10.062675,0.005029,0.002025,0.007538,0.061035,0.091553,0.091553
2.334069,-0.068258,0.044308,10.060878,-0.001558,0.012204,0.005741,0.091553,0.122070,0.091553
2.344167,-0.068857,0.043709,10.057286,-0.002156,0.011605,0.002149,0.061035,0.091553,0.061035
2.354254,-0.070054,0.042512,10.048903,-0.003354,0.010408,-0.006234,0.091553,0.091553,0.061035
2.364344,-0.070653,0.035327,10.048903,-0.003953,0.003223,-0.006234,0.091553,0.061035,0.030518
2.374431,-0.068258,0.028141,10.054891,-0.001558,-0.003962,-0.000246,0.091553,0.030518,0.000000
2.384518,-0.071851,0.025148,10.055490,-0.005150,-0.006956,0.000353,0.091553,0.030518,0.000000
2.394606,-0.068857,0.019759,10.043514,-0.002156,-0.012345,-0.011623,0.061035,0.061035,0.030518
2.404693,-0.071851,0.022753,10.044712,-0.005150,-0.009351,-0.010425,0.030518,0.061035,0.000000
2.414779,-0.064666,0.020358,10.053693,0.002035,-0.011746,-0.001444,0.030518,0.061035,0.000000
2.424866,-0.061073,0.026944,10.057885,0.005628,-0.005160,0.002748,0.061035,0.061035,0.000000
2.434952,-0.063468,0.028740,10.056088,0.003233,-0.003364,0.000951,0.091553,0.061035,0.030518
2.445039,-0.064666,0.033530,10.048903,0.002035,0.001427,-0.006234,0.030518,0.061035,0.061035
2.455133,-0.064067,0.037722,10.051298,0.002634,0.005618,-0.003839,0.030518,0.061035,0.061035
2.465226,-0.073048,0.031734,10.059082,-0.006348,-0.000370,0.003945,0.061035,0.061035,0.061035
2.475319,-0.083227,0.030536,10.053094,-0.016526,-0.001567,-0.002043,0.091553,0.061035,0.061035
2.485412,-0.547861,0.096400,10.064471,-0.481160,0.064296,0.009334,0.061035,0.000000,-0.152588
2.495510,-1.082549,0.192200,10.050101,-1.015848,0.160097,-0.005036,0.000000,-0.152588,-0.701904
2.505603,-0.620310,0.078437,10.052496,-0.553610,0.046333,-0.002641,-0.122070,-0.213623,-1.312256
2.515700,-0.001198,0.041314,10.046508,0.065503,0.009210,-0.008629,-0.274658,-0.274658,-2.044678
2.525794,0.095202,0.017364,10.042916,0.161903,-0.014740,-0.012221,-0.091553,-0.244141,-2.380371
2.535889,-0.111967,-0.014370,10.053693,-0.045267,-0.046474,-0.001444,-0.091553,-0.152588,-2.075195
2.545982,-0.264051,-0.013771,10.050101,-0.197350,-0.045875,-0.005036,-0.152588,-0.152588,-1.861572
2.556072,-0.308958,-0.006586,10.050101,-0.242257,-0.038690,-0.005036,-0.061035,-0.152588,-0.885010
2.566159,-0.223934,-0.063468,10.053693,-0.157234,-0.095572,-0.001444,-0.152588,-0.152588,-0.366211
2.576249,-0.182620,-0.042512,10.055490,-0.115920,-0.074615,0.000353,-0.030518,-0.152588,-0.091553
2.586336,-0.137115,0.107177,10.054292,-0.070414,0.075073,-0.000845,-0.030518,-0.061035,0.091553
2.596425,-0.115560,0.082628,10.050101,-0.048859,0.050524,-0.005036,0.000000,-0.030518,0.427246
2.606512,-0.018561,0.092807,10.047706,0.048139,0.060703,-0.007431,0.152588,0.000000,0.305176
2.616601,0.059875,0.008981,10.050101,0.126576,-0.023122,-0.005036,-0.244141,-0.030518,0.671387
2.626688,0.012574,0.013173,10.050101,0.079274,-0.018931,-0.005036,-0.122070,0.030518,0.823975
2.636782,-0.225731,0.020358,10.030342,-0.159030,-0.011746,-0.024795,-0.152588,0.061035,1.312256
2.646869,-0.258662,-0.031135,10.057286,-0.191962,-0.063239,0.002149,-0.122070,0.183105,3.631592
2.656959,-0.180225,-0.092208,10.040521,-0.113525,-0.124312,-0.014616,-0.213623,0.213623,4.486084
2.667045,-0.168250,-0.057480,10.047107,-0.101550,-0.089584,-0.008030,-0.061035,0.213623,5.004883
2.677135,-0.277224,-0.081431,10.035132,-0.210523,-0.113534,-0.020005,0.213623,0.244141,6.469727
2.687222,-0.320933,-0.065264,10.050101,-0.254232,-0.097368,-0.005036,0.640869,0.335693,6.927490
2.697310,-0.255668,-0.056283,10.032138,-0.188968,-0.088387,-0.022999,0.579834,0.213623,7.995605
2.707398,-0.149090,-0.050894,10.041119,-0.082389,-0.082998,-0.014018,0.488281,0.335693,8.148193
2.717487,-0.106578,-0.011975,10.038126,-0.039878,-0.044079,-0.017011,0.488281,0.427246,7.446289
2.727574,0.142504,0.059277,10.026151,0.209204,0.027173,-0.028986,0.549316,0.335693,6.469727
2.737659,0.129930,0.096998,10.005194,0.196630,0.064895,-0.049943,0.366211,0.244141,5.340576
2.747748,-0.153880,0.094005,10.044712,-0.087179,0.061901,-0.010425,0.305176,0.366211,2.593994
2.757838,-0.241298,0.196990,10.067465,-0.174598,0.164887,0.012328,-0.091553,0.305176,1.434326
2.767929,-0.147892,0.017963,10.126143,-0.081192,-0.014141,0.071006,-0.732422,-0.030518,-0.549316
2.778018,-0.193398,0.104183,10.077643,-0.126697,0.072080,0.022506,-0.488281,-0.061035,-1.251221
2.788108,-0.205972,0.047900,10.034533,-0.139271,0.015797,-0.020604,-0.610352,-0.122070,-2.380371
2.798195,-0.104183,0.017364,10.027947,-0.037483,-0.014740,-0.027190,-0.213623,-0.061035,-2.868652
2.808283,-0.159269,-0.008981,10.067465,-0.092568,-0.041085,0.012328,-0.488281,-0.091553,-2.868652
2.818372,-0.102986,-0.086819,10.099797,-0.036285,-0.118923,0.044660,-0.427246,-0.091553,-3.479004
2.828462,-0.129331,-0.040117,10.102791,-0.062631,-0.072220,0.047654,-0.061035,-0.122070,-4.516602
2.838551,-0.400567,0.004790,10.095606,-0.333866,-0.027314,0.040469,-0.732422,-0.061035,-5.126953
2.848641,-0.407153,0.006586,10.044113,-0.340453,-0.025517,-0.011024,-0.549316,-0.061035,-5.279541
2.858735,-0.291594,-0.041314,10.109976,-0.224893,-0.073418,0.054839,-0.091553,-0.061035,-5.493164
2.868833,0.053888,0.024549,10.077045,0.120588,-0.007555,0.021908,0.152588,-0.213623,-5.371094
2.878930,0.137714,0.049697,10.056088,0.204414,0.017593,0.000951,0.183105,-0.244141,-4.882812
2.889024,-0.190404,0.131726,10.041119,-0.123704,0.099622,-0.014018,0.305176,-0.091553,-4.577637
2.899119,-0.140707,0.071851,10.060878,-0.074007,0.039747,0.005741,0.091553,-0.122070,-3.875732
2.909214,-0.141905,0.107177,10.056088,-0.075204,0.075073,0.000951,-0.122070,0.122070,-1.953125
2.919312,-0.123344,0.080233,10.024953,-0.056643,0.048129,-0.030184,-0.152588,0.396729,-0.732422
2.929409,-0.055085,0.061672,10.067465,0.011615,0.029568,0.012328,-0.152588,0.305176,0.823975
2.939504,-0.070653,0.019759,10.069860,-0.003953,-0.012345,0.014723,-0.061035,0.335693,1.220703
2.949600,-0.113165,0.100591,10.084828,-0.046464,0.068487,0.029692,0.213623,0.610352,2.014160
2.959691,-0.136516,0.010778,10.042317,-0.069816,-0.021326,-0.012820,0.396729,0.640869,2.349854
2.969780,-0.201780,-0.014969,10.051897,-0.135080,-0.047073,-0.003240,0.610352,0.671387,2.685547
2.979870,0.047302,-0.182021,10.063273,0.114002,-0.214125,0.008136,0.671387,0.610352,2.960205
2.989959,0.049098,-0.086221,10.087224,0.115798,-0.118324,0.032087,0.396729,0.396729,2.288818
3.000050,0.032333,0.056882,10.059681,0.099033,0.024778,0.004544,-0.457764,0.335693,1.953125
3.010141,-0.005389,0.002395,10.028546,0.061312,-0.029709,-0.026591,-0.274658,0.244141,1.495361
3.020232,-0.128134,0.087418,10.039922,-0.061433,0.055314,-0.015215,-0.427246,-0.091553,-0.823975
3.030318,-0.108375,0.097597,10.039323,-0.041674,0.065493,-0.015814,-0.518799,-0.152588,-1.647949
3.040405,-0.245490,0.127535,10.044113,-0.178789,0.095431,-0.011024,0.000000,-0.152588,-2.868652
3.050495,0.011376,0.140707,10.040521,0.078077,0.108604,-0.014616,-0.915527,-0.457764,-4.669189
3.060586,-0.071851,0.104183,10.057286,-0.005150,0.072080,0.002149,-0.885010,-0.488281,-5.401611
3.070675,-0.145497,-0.001796,10.062675,-0.078797,-0.033900,0.007538,-0.274658,-0.610352,-6.805420
3.080775,-0.067659,0.032932,10.051298,-0.000959,0.000828,-0.003839,-0.152588,-0.640869,-7.141113
3.090866,-0.134121,-0.005988,10.048903,-0.067421,-0.038091,-0.006234,0.335693,-0.549316,-7.293701
3.100956,-0.059277,-0.020956,10.041718,0.007424,-0.053060,-0.013419,0.091553,-0.518799,-7.537842
3.111046,-0.232317,-0.112566,10.043514,-0.165616,-0.144670,-0.011623,-0.091553,-0.579834,-8.117676
3.121230,-0.365839,-0.102387,10.039323,-0.299139,-0.134491,-0.015814,-0.305176,-0.671387,-8.789062
3.131320,-0.250280,-0.132924,10.084230,-0.183579,-0.165027,0.029093,0.244141,-0.518799,-8.941650
3.141410,-0.244891,0.016166,10.092612,-0.178190,-0.015937,0.037475,-0.457764,-0.518799,-7.812500
3.151500,-0.218546,-0.040715,10.105785,-0.151845,-0.072819,0.050648,-0.305176,-0.518799,-6.896973
3.161592,-0.302970,-0.090412,10.097402,-0.236269,-0.122516,0.042265,0.152588,-0.366211,-5.584717
3.171689,-0.314346,-0.083826,10.038724,-0.247646,-0.115929,-0.016413,-0.183105,-0.579834,-5.645752
3.181787,-0.378413,-0.133522,10.106982,-0.311713,-0.165626,0.051845,-0.122070,-0.579834,-5.645752
3.191884,-0.271236,-0.070054,10.070458,-0.204535,-0.102158,0.015321,1.190186,-0.305176,-4.119873
3.201981,-0.254471,-0.240699,10.069860,-0.187770,-0.272803,0.014723,0.335693,-0.488281,-2.319336
3.212079,-0.253273,-0.171244,10.136920,-0.186573,-0.203348,0.081783,1.068115,-0.335693,-2.777100
3.222175,-0.326321,-0.156275,10.016570,-0.259621,-0.188379,-0.038567,1.708984,-0.366211,-3.234863
3.232272,-0.290995,-0.094603,10.015972,-0.224294,-0.126707,-0.039165,1.464844,-0.335693,-3.784180
3.242366,-0.174836,-0.054487,10.010583,-0.108136,-0.086590,-0.044554,1.617432,-0.183105,-3.540039
3.252463,-0.119152,0.246687,9.953701,-0.052452,0.214583,-0.101436,1.831055,0.366211,-0.457764
3.262551,-0.361049,0.258662,10.044113,-0.294349,0.226558,-0.011024,2.288818,0.671387,1.007080
3.272637,-0.364043,-0.007784,10.100396,-0.297342,-0.039888,0.045259,2.258301,0.793457,2.685547
3.282727,-0.185015,0.335303,10.062675,-0.118315,0.303199,0.007538,-0.701904,0.671387,4.333496
3.292817,-0.225132,0.123344,9.994417,-0.158431,0.091240,-0.060720,-0.030518,1.037598,4.425049
3.302907,-0.068857,0.059277,10.044113,-0.002156,0.027173,-0.011024,-0.885010,0.854492,1.556396
3.312997,0.081431,0.034129,10.042317,0.148131,0.002025,-0.012820,-0.335693,1.373291,-0.244141
3.323087,0.307760,0.045505,10.437495,0.374461,0.013402,0.382358,-1.647949,0.854492,0.549316
3.333177,-0.277224,0.021555,10.169253,-0.210523,-0.010549,0.114116,-3.356934,0.335693,0.183105
3.343268,-0.647853,-0.112566,10.174043,-0.581152,-0.144670,0.118906,-3.540039,0.213623,-0.152588
3.353358,-0.025746,0.267045,9.989028,0.040954,0.234941,-0.066109,-4.821777,-0.244141,3.692627
3.363451,-0.100591,0.164059,10.092014,-0.033890,0.131955,0.036877,-5.249023,-0.671387,4.821777
3.373549,-0.074844,0.127535,10.078242,-0.008144,0.095431,0.023105,-4.058838,-0.640869,3.570557
3.383641,-0.026944,0.137115,10.097402,0.039757,0.105011,0.042265,-2.838135,-0.732422,2.471924
3.393737,-0.016166,0.036524,10.104587,0.050534,0.004420,0.049450,-1.373291,-0.854492,0.701904
3.403859,0.047900,0.022154,10.106384,0.114601,-0.009950,0.051247,-0.640869,-0.915527,-0.091553
3.413951,0.099393,0.042512,10.092612,0.166094,0.010408,0.037475,0.061035,-1.068115,-0.366211
3.424085,0.085622,-0.034129,10.077643,0.152322,-0.066233,0.022506,0.213623,-1.037598,0.213623
3.434176,-0.085622,-0.013771,10.096804,-0.018921,-0.045875,0.041667,0.671387,-0.793457,0.854492
3.444269,-0.005389,-0.086819,10.023755,0.061312,-0.118923,-0.031381,1.068115,-0.305176,2.014160
3.454377,-0.034728,-0.179626,10.039323,0.031973,-0.211730,-0.015814,0.640869,-0.030518,2.288818
3.464466,0.000599,-0.161065,10.068662,0.067299,-0.193169,0.013525,0.793457,0.122070,2.197266
3.474554,0.135319,-0.223336,10.071656,0.202019,-0.255439,0.016519,0.701904,0.305176,2.075195
3.484645,0.043709,-0.246088,10.024953,0.110410,-0.278192,-0.030184,0.885010,0.427246,1.647949
3.494731,-0.017963,-0.234712,10.018367,0.048738,-0.266816,-0.036770,1.403809,0.457764,0.671387
3.504817,-0.059875,-0.253273,10.066866,0.006825,-0.285377,0.011729,1.220703,0.366211,-0.427246
3.514903,-0.105980,-0.164059,10.018367,-0.039279,-0.196163,-0.036770,1.403809,0.213623,-2.105713
3.524989,-0.179626,-0.153281,10.072853,-0.112926,-0.185385,0.017716,1.770020,0.305176,-2.471924
3.535103,-0.219743,-0.091011,9.986034,-0.153042,-0.123114,-0.069103,1.403809,0.122070,-2.685547
3.545191,-0.426313,-0.061672,10.050699,-0.359613,-0.093775,-0.004438,0.885010,0.061035,-2.838135
3.555278,-0.463436,-0.016166,10.137519,-0.396736,-0.048270,0.082382,0.244141,0.091553,-3.326416
3.565371,-0.452060,0.019160,9.997410,-0.385359,-0.012944,-0.057727,-0.091553,0.396729,-3.326416
3.575465,-0.528102,0.218546,10.050101,-0.461401,0.186442,-0.005036,-0.762939,0.396729,-2.960205
3.585557,-0.524509,0.268841,10.148297,-0.457809,0.236737,0.093160,0.000000,1.281738,-3.509521
3.595650,-0.481998,0.180824,10.008787,-0.415297,0.148720,-0.046350,0.427246,2.288818,-4.455566
3.605743,-0.463436,0.229323,9.948911,-0.396736,0.197219,-0.106226,0.732422,1.007080,-6.683350
3.615838,-0.517923,0.137714,10.077643,-0.451222,0.105610,0.022506,0.427246,0.579834,-6.896973
3.625930,-0.516725,0.190404,10.071057,-0.450025,0.158300,0.015920,-0.122070,0.457764,-6.744385
3.636026,-0.684377,-0.032333,10.071057,-0.617676,-0.064437,0.015920,0.366211,0.518799,-6.622314
3.646118,-0.562231,-0.009580,9.992620,-0.495530,-0.041684,-0.062517,0.549316,0.457764,-6.866455
3.656211,-0.237706,-0.183219,10.013577,-0.171005,-0.215323,-0.041560,0.244141,0.518799,-7.690430
3.666300,-0.307760,-0.043709,10.020163,-0.241059,-0.075813,-0.034974,-0.122070,0.183105,-8.239746
3.676389,-0.348475,-0.155676,10.128538,-0.281775,-0.187780,0.073401,-2.227783,0.549316,-9.307861
3.686475,-0.259261,-0.063468,10.129136,-0.192560,-0.095572,0.073999,-2.563477,0.091553,-9.979248
3.696564,-0.261656,-0.131726,10.069860,-0.194955,-0.163830,0.014723,-3.356934,-0.427246,-9.368896
3.706650,-0.277822,-0.376617,10.169852,-0.211122,-0.408721,0.114715,-2.685547,-0.457764,-9.490967
3.716740,-0.340692,-0.254471,10.130933,-0.273991,-0.286575,0.075796,-1.922607,-0.640869,-9.185791
3.726826,-0.414937,-0.131127,10.118359,-0.348237,-0.163231,0.063222,-1.525879,-0.793457,-6.286621
3.736915,-0.317340,0.014969,10.086625,-0.250640,-0.017135,0.031488,-0.640869,-0.610352,-4.333496
3.747001,-0.231718,0.030536,10.041718,-0.165018,-0.001567,-0.013419,0.000000,-0.427246,-1.617432
3.757091,-0.135319,0.118553,10.127340,-0.068618,0.086450,0.072203,0.427246,-0.274658,-1.525879
3.767183,-0.070054,-0.064067,10.093810,-0.003354,-0.096171,0.038673,3.570557,0.183105,-2.593994
3.777279,-0.128134,0.343685,9.981843,-0.061433,0.311582,-0.073294,1.312256,-0.061035,-1.495361
3.787372,-0.029339,0.170046,9.952504,0.037362,0.137943,-0.102633,1.129150,0.244141,-3.417969
3.797468,-0.088616,-0.067061,10.053094,-0.021915,-0.099164,-0.002043,1.495361,0.976562,-3.509521
3.807564,-0.087418,0.155078,10.024953,-0.020718,0.122974,-0.030184,3.448486,1.556396,-4.089355
3.817660,0.031135,-0.049098,10.103390,0.097836,-0.081202,0.048253,3.570557,1.739502,-2.777100
3.827755,0.258662,-0.216749,10.060878,0.325363,-0.248853,0.005741,2.685547,1.159668,-2.563477
3.837851,0.270038,0.101788,10.012379,0.336739,0.069685,-0.042758,0.152588,1.068115,-2.624512
3.847946,0.149689,0.386796,10.137519,0.216389,0.354692,0.082382,-1.495361,0.610352,-1.495361
3.858041,0.174238,0.192799,9.998009,0.240938,0.160695,-0.057128,-3.051758,0.366211,-0.701904
3.868130,0.047302,0.068258,10.067465,0.114002,0.036154,0.012328,-3.173828,0.061035,-2.105713
3.878220,-0.039518,-0.046104,10.012379,0.027183,-0.078208,-0.042758,-1.892090,0.244141,-3.631592
3.888309,0.520917,0.064666,10.264455,0.587617,0.032562,0.209318,-4.089355,-0.885010,-2.868652
3.898398,0.032333,0.135319,10.166259,0.099033,0.103215,0.111122,-2.838135,-1.159668,-2.532959
3.908487,-0.173040,0.061672,10.209370,-0.106340,0.029568,0.154233,-1.922607,-1.892090,-1.403809
3.918575,-0.563428,0.157473,10.065070,-0.496728,0.125369,0.009933,-0.946045,-0.732422,-1.251221
3.928666,-0.674797,0.151485,9.981843,-0.608096,0.119381,-0.073294,1.708984,-0.335693,-2.929688
3.938753,0.160466,0.046104,9.833950,0.227167,0.014000,-0.221187,0.030518,-1.159668,-2.319336
3.948841,0.225731,0.199385,10.121353,0.292431,0.167282,0.066216,-0.091553,-1.281738,-1.068115
3.958929,-0.471220,-0.155676,10.042916,-0.404520,-0.187780,-0.012221,-0.640869,-1.312256,-1.403809
3.969021,-0.409548,-0.049098,10.272239,-0.342848,-0.081202,0.217102,0.854492,0.030518,-2.563477
3.979119,0.133522,0.169448,10.148895,0.200223,0.137344,0.093758,1.190186,0.732422,-3.082275
3.989215,0.089214,0.368833,9.962682,0.155915,0.336729,-0.092454,1.037598,1.373291,-1.495361
3.999311,0.084424,-0.208965,10.200987,0.151125,-0.241069,0.145850,-2.014160,-0.030518,-0.061035
4.009408,-0.487386,0.186812,10.117161,-0.420686,0.154708,0.062024,-1.739502,-0.091553,-0.305176
4.019505,-0.529299,0.559836,10.280621,-0.462599,0.527732,0.225484,2.075195,0.762939,0.823975
4.029602,-0.034728,-0.007784,10.135723,0.031973,-0.039888,0.080586,0.732422,-0.061035,1.617432
4.039698,-0.094603,0.190404,10.050699,-0.027903,0.158300,-0.004438,-1.708984,-0.793457,0.854492
4.049794,-0.273032,0.299377,9.909393,-0.206332,0.267274,-0.145744,2.319336,0.457764,0.549316
4.059892,0.058079,-0.080832,10.158475,0.124780,-0.112936,0.103338,-3.814697,-1.190186,0.488281
4.069982,-0.118553,0.161065,10.221345,-0.051853,0.128961,0.166208,-3.479004,-1.037598,-1.373291
4.080134,-0.319136,0.019160,10.189012,-0.252436,-0.012944,0.133875,-0.885010,-1.007080,-1.434326
4.090225,-0.254471,0.026944,10.066267,-0.187770,-0.005160,0.011130,0.457764,-0.549316,-0.579834
4.100316,-0.176633,0.188009,9.895023,-0.109932,0.155905,-0.160114,1.342773,-0.823975,1.007080
4.110406,-0.420326,0.111368,9.972263,-0.353625,0.079265,-0.082874,0.701904,-0.610352,2.899170
4.120497,-0.333506,0.044907,10.000404,-0.266806,0.012803,-0.054733,0.579834,-0.671387,4.882812
4.130587,-0.144300,0.116158,9.942924,-0.077599,0.084055,-0.112213,1.251221,-0.061035,5.096436
4.140678,-0.106578,0.050894,10.150093,-0.039878,0.018790,0.094956,0.885010,-0.183105,5.249023
4.150769,0.023950,-0.119751,10.090816,0.090651,-0.151855,0.035679,-0.427246,-0.305176,4.180908
4.160858,0.085622,-0.021555,10.027348,0.152322,-0.053659,-0.027789,-0.122070,0.152588,2.868652
4.170950,0.007185,-0.047302,9.886641,0.073886,-0.079405,-0.168496,0.610352,0.976562,1.892090
4.181046,0.053289,-0.380209,9.855505,0.119990,-0.412313,-0.199632,2.502441,1.007080,0.579834
4.191143,0.041314,0.016765,10.111174,0.108015,-0.015339,0.056037,-0.549316,0.823975,1.647949
4.201240,-0.062271,-0.090412,10.066866,0.004430,-0.122516,0.011729,-1.037598,0.610352,1.220703
4.211336,-0.140707,-0.137714,10.130334,-0.074007,-0.169817,0.075197,0.000000,0.335693,-0.518799
4.221433,0.116158,-0.120948,10.075248,0.182859,-0.153052,0.020111,-1.220703,-0.091553,-1.861572
4.231529,0.088017,0.048499,10.073452,0.154718,0.016395,0.018315,-1.007080,-0.061035,-1.861572
4.241626,-0.073647,-0.089214,9.996213,-0.006946,-0.121318,-0.058924,-0.793457,0.030518,-1.831055
4.251722,-0.089813,-0.096998,10.097402,-0.023113,-0.129102,0.042265,-1.037598,0.244141,-1.953125
4.261819,0.014969,-0.101788,9.964479,0.081669,-0.133892,-0.090658,-1.312256,0.274658,-0.823975
4.271911,-0.082029,-0.028141,10.051298,-0.015329,-0.060245,-0.003839,-0.549316,0.610352,-0.335693
4.282001,-0.137714,-0.150287,10.066866,-0.071013,-0.182391,0.011729,-0.579834,0.183105,-0.091553
4.292091,-0.027543,-0.251477,10.184222,0.039158,-0.283581,0.129085,0.671387,0.335693,-0.610352
4.302181,0.004191,0.055085,10.026749,0.070892,0.022982,-0.028388,2.166748,0.152588,-0.396729
4.312270,0.161664,0.279020,9.957892,0.228364,0.246916,-0.097245,0.946045,-0.091553,1.098633
4.322360,-0.115560,0.067659,9.935140,-0.048859,0.035556,-0.119997,0.518799,-0.091553,1.098633
4.332450,-0.155676,0.088017,9.929751,-0.088976,0.055913,-0.125386,1.739502,-0.061035,0.061035
4.342539,-0.105980,-0.097597,9.958491,-0.039279,-0.129701,-0.096646,1.983643,-0.061035,-0.122070
4.352630,0.111967,0.081431,10.039323,0.178668,0.049327,-0.015814,0.946045,0.000000,-1.251221
4.362721,0.308958,0.182620,9.962084,0.375658,0.150516,-0.093053,1.068115,-0.091553,-1.373291
4.372816,0.235311,-0.225132,10.083631,0.302011,-0.257236,0.028494,3.356934,-0.152588,-3.082275
4.382913,0.128134,-0.051493,10.115964,0.194834,-0.083597,0.060827,0.213623,-0.427246,-0.793457
4.393011,0.089813,-0.031135,10.099199,0.156514,-0.063239,0.044062,1.434326,-0.030518,-2.838135
4.403107,-0.041314,0.045505,10.058483,0.025386,0.013402,0.003346,-2.532959,-0.183105,-0.946045
4.413204,0.011975,-0.247286,10.166259,0.078676,-0.279390,0.111122,-1.861572,0.122070,-0.457764
4.423301,0.064666,0.114961,10.077643,0.131366,0.082857,0.022506,-2.746582,-0.335693,-3.326416
4.433398,0.055085,-0.053888,10.086026,0.121786,-0.085992,0.030889,-3.753662,-0.549316,-3.662109
4.443495,-0.080832,-0.153880,10.021959,-0.014131,-0.185984,-0.033178,-0.183105,0.030518,-6.042480
4.453591,0.000000,-0.134121,10.087822,0.066701,-0.166225,0.032685,-0.061035,-0.244141,-7.141113
4.463687,0.000000,-0.026944,10.091415,0.066701,-0.059048,0.036278,1.678467,0.610352,-8.117676
4.473776,-0.005988,0.046703,9.950109,0.060713,0.014599,-0.105028,-0.152588,-0.061035,-7.934570
4.483866,-0.204175,0.031734,9.909393,-0.137475,-0.000370,-0.145744,0.305176,0.335693,-6.713867
4.493952,-0.013771,0.038320,10.069261,0.052929,0.006217,0.014124,0.061035,0.091553,-5.432129
4.504043,0.121547,0.058678,10.077045,0.188248,0.026574,0.021908,0.366211,-0.091553,-5.737305
4.514129,-0.115560,0.061672,10.011182,-0.048859,0.029568,-0.043955,0.427246,0.091553,-7.080078
4.524217,-0.085023,0.164658,10.083032,-0.018323,0.132554,0.027895,0.732422,-0.671387,-7.812500
4.534303,0.033530,0.026345,10.050699,0.100231,-0.005759,-0.004438,-0.640869,-0.976562,-8.148193
4.544389,-0.187410,-0.005389,10.012978,-0.120710,-0.037493,-0.042159,-1.190186,-1.068115,-8.300781
4.554475,-0.255668,0.049098,10.103390,-0.188968,0.016994,0.048253,-0.122070,-0.762939,-8.911133
4.564561,0.022753,0.086221,10.048304,0.089453,0.054117,-0.006833,0.518799,-0.244141,-8.483887
4.574653,0.113165,0.010179,9.982441,0.179865,-0.021925,-0.072696,-0.579834,-0.488281,-7.019043
4.584746,-0.149689,-0.083227,9.965676,-0.082988,-0.115331,-0.089461,0.366211,-0.305176,-9.735107
4.594839,-0.265248,0.249082,10.096205,-0.198548,0.216978,0.041068,1.190186,-0.305176,-10.467529
4.604932,-0.189207,-0.025746,10.041119,-0.122506,-0.057850,-0.014018,3.112793,0.549316,-7.659912
4.615021,-0.086819,0.068258,10.015972,-0.020119,0.036154,-0.039165,2.471924,0.274658,-6.439209
4.625113,-0.072449,0.068857,10.021959,-0.005749,0.036753,-0.033178,1.312256,0.152588,-6.225586
4.635205,-0.157473,0.165855,10.053693,-0.090772,0.133751,-0.001444,-0.122070,-0.061035,-5.462646
4.645296,-0.226928,0.126936,10.069860,-0.160228,0.094832,0.014723,-0.274658,-0.061035,-5.615234
4.655403,-0.055085,-0.089813,10.108779,0.011615,-0.121917,0.053642,-2.502441,0.427246,-3.845215
4.665495,-0.144300,-0.129930,10.154883,-0.077599,-0.162034,0.099746,-2.014160,0.610352,-4.211426
4.675586,-0.263452,0.045505,10.049502,-0.196752,0.013402,-0.005635,-2.075195,0.762939,-4.058838
4.685672,-0.213755,-0.122745,10.016570,-0.147055,-0.154848,-0.038567,-1.617432,1.434326,-2.838135
4.695762,-0.173040,-0.253273,10.097402,-0.106340,-0.285377,0.042265,-0.244141,0.793457,1.586914
4.705848,-0.353864,-0.213755,9.989626,-0.287164,-0.245859,-0.065511,-0.518799,1.068115,2.349854
4.715935,-0.285606,-0.258063,9.996213,-0.218906,-0.290167,-0.058924,-0.579834,0.885010,2.197266
4.726021,-0.080832,-0.068857,10.176438,-0.014131,-0.100961,0.121301,-0.091553,0.701904,1.373291
4.736109,0.028141,0.128134,9.933344,0.094842,0.096030,-0.121793,3.234863,1.403809,2.441406
4.746194,-0.060474,0.121547,9.950109,0.006226,0.089444,-0.105028,0.885010,0.671387,4.943848
4.756283,-0.183219,-0.069456,10.026151,-0.116518,-0.101559,-0.028986,0.030518,0.549316,4.821777
4.766368,-0.180824,0.155078,9.893826,-0.114123,0.122974,-0.161311,-0.610352,0.213623,5.371094
4.776460,-0.141905,0.307161,10.023755,-0.075204,0.275058,-0.031381,-0.885010,0.213623,5.920410
4.786552,-0.240699,-0.000599,10.144105,-0.173999,-0.032702,0.088968,-0.610352,-0.152588,5.065918
4.796646,-0.267045,-0.004790,10.013577,-0.200344,-0.036894,-0.041560,-0.579834,-0.030518,1.800537
4.806738,-0.310754,0.029339,10.144704,-0.244053,-0.002765,0.089567,-0.183105,-0.457764,1.037598
4.816833,-0.161065,-0.080832,10.024354,-0.094365,-0.112936,-0.030783,0.946045,-0.518799,0.823975
4.826924,-0.067061,-0.046104,9.904005,-0.000360,-0.078208,-0.151132,1.129150,-0.579834,0.885010
4.837019,-0.145497,-0.167053,10.122550,-0.078797,-0.199156,0.067413,1.312256,-0.671387,-1.342773
4.847112,-0.340093,-0.071851,9.983040,-0.273392,-0.103954,-0.072097,0.427246,-0.610352,-1.495361
4.857206,-0.230521,-0.167651,9.863289,-0.163820,-0.199755,-0.191848,1.159668,-0.335693,-1.922607
4.867300,-0.111368,-0.020358,10.059082,-0.044668,-0.052461,0.003945,0.183105,0.183105,-2.166748
4.877389,-0.096998,0.104782,10.024354,-0.030298,0.072678,-0.030783,-0.122070,0.091553,-1.617432
4.887476,-0.094603,-0.027543,9.990225,-0.027903,-0.059646,-0.064912,0.152588,-0.030518,-0.701904
4.897564,-0.118553,0.041314,9.887838,-0.051853,0.009210,-0.167299,-0.366211,-0.030518,-0.305176
4.907652,-0.110770,0.173040,10.181228,-0.044069,0.140936,0.126091,-0.701904,0.152588,1.342773
4.917741,-0.152682,0.107177,10.017169,-0.085982,0.075073,-0.037968,-1.098633,0.274658,2.410889
4.927829,-0.049697,0.231718,10.062076,0.017004,0.199614,0.006939,-0.732422,0.396729,3.356934
4.937915,0.044308,0.259860,9.992620,0.111008,0.227756,-0.062517,-0.488281,0.274658,2.349854
4.948003,0.027543,0.244891,10.135124,0.094243,0.212787,0.079987,-1.037598,0.335693,1.892090
4.958091,0.020956,0.172441,9.988429,0.087657,0.140338,-0.066708,0.244141,0.366211,1.403809
4.968179,0.064666,0.138312,9.966874,0.131366,0.106209,-0.088263,-0.091553,-0.061035,1.342773
4.978270,0.092807,0.093406,9.932745,0.159508,0.061302,-0.122392,-0.244141,-0.244141,0.732422
4.988382,0.043709,0.082029,10.063273,0.110410,0.049926,0.008136,-0.396729,-0.183105,1.190186
4.998479,-0.163460,0.023950,10.046508,-0.096760,-0.008154,-0.008629,0.885010,0.061035,1.586914
5.008576,-0.102387,-0.091011,9.936337,-0.035687,-0.123114,-0.118800,0.885010,0.427246,2.349854
5.018674,-0.047302,-0.013173,10.001602,0.019399,-0.045276,-0.053535,1.525879,0.823975,2.960205
5.028780,0.201780,-0.135319,10.054292,0.268481,-0.167422,-0.000845,1.464844,0.976562,3.814697
5.038873,0.120948,0.055684,9.951306,0.187649,0.023580,-0.103831,1.983643,1.159668,3.936768
5.048970,0.044907,-0.061073,10.018367,0.111607,-0.093177,-0.036770,1.892090,1.403809,3.143311
5.059099,0.023351,-0.019160,9.929751,0.090052,-0.051264,-0.125386,1.617432,1.495361,2.227783
5.069196,-0.077838,-0.027543,10.043514,-0.011138,-0.059646,-0.011623,0.000000,0.885010,2.990723
5.079285,-0.120350,0.094005,10.051298,-0.053649,0.061901,-0.003839,0.701904,0.915527,3.448486
5.089374,0.062869,0.189207,10.003398,0.129570,0.157103,-0.051739,0.183105,0.183105,3.936768
5.099463,0.207169,-0.128134,10.036928,0.273870,-0.160237,-0.018209,-1.678467,-0.610352,3.753662
5.109552,-0.196392,-0.077239,10.111174,-0.129691,-0.109343,0.056037,-1.190186,-0.762939,0.762939
5.119641,0.077838,0.002994,9.886042,0.144539,-0.029110,-0.169095,0.518799,-0.366211,-1.617432
5.129731,0.282612,-0.147294,9.919572,0.349313,-0.179397,-0.135565,0.183105,-0.915527,-1.739502
5.139821,-0.068857,-0.086819,9.954300,-0.002156,-0.118923,-0.100837,0.244141,-0.823975,-1.037598
5.149911,-0.512534,-0.150886,10.270443,-0.445834,-0.182990,0.215306,-0.854492,-0.579834,-0.305176
5.160001,-0.264051,-0.049697,10.050101,-0.197350,-0.081800,-0.005036,0.274658,-0.640869,0.671387
5.170090,-0.299377,0.034129,10.030941,-0.232677,0.002025,-0.024196,-0.640869,-0.579834,3.692627
5.180185,-0.201182,-0.091609,10.136920,-0.134481,-0.123713,0.081783,-1.953125,-0.457764,3.997803
5.190281,-0.175435,0.008981,10.079440,-0.108735,-0.023122,0.024303,0.091553,-0.854492,2.044678
5.200377,-0.167651,-0.069456,10.131531,-0.100951,-0.101559,0.076394,0.274658,-1.007080,0.518799
5.210474,-0.266446,-0.046703,10.005793,-0.199745,-0.078807,-0.049344,1.770020,-1.525879,-0.366211
5.220570,-0.167651,-0.150287,9.969868,-0.100951,-0.182391,-0.085269,1.556396,-1.403809,-0.640869
5.230668,-0.334105,-0.017963,9.940529,-0.267405,-0.050066,-0.114608,1.312256,-1.312256,-0.579834
5.240765,-0.487386,0.025148,9.987231,-0.420686,-0.006956,-0.067906,0.274658,-0.549316,-1.068115
5.250861,-0.301174,-0.179028,9.932745,-0.234473,-0.211131,-0.122392,0.366211,-0.183105,-0.885010
5.260960,-0.339494,-0.196392,10.032138,-0.272793,-0.228495,-0.022999,-0.030518,0.427246,-0.732422
5.271056,-0.323926,-0.089813,10.142908,-0.257226,-0.121917,0.087771,-0.244141,-0.152588,-1.403809
5.281146,-0.200583,-0.051493,10.106982,-0.133882,-0.083597,0.051845,-1.220703,-0.549316,-3.479004
5.291236,-0.113763,0.130529,10.053094,-0.047063,0.098425,-0.002043,-0.823975,-0.610352,-3.417969
5.301326,-0.265847,0.159269,9.977651,-0.199147,0.127165,-0.077486,0.061035,-0.061035,-3.692627
5.311416,-0.296982,-0.195194,10.133926,-0.230282,-0.227298,0.078789,-0.183105,0.274658,-2.990723
5.321505,-0.335303,0.098795,9.866283,-0.268602,0.066691,-0.188854,3.448486,1.739502,-1.922607
5.331595,-0.108973,0.037123,9.856703,-0.042273,0.005019,-0.198434,2.502441,1.647949,-0.457764
5.341684,-0.338895,0.043709,9.926158,-0.272195,0.011605,-0.128979,2.166748,1.464844,-1.098633
5.351774,-0.405956,-0.126337,9.992021,-0.339255,-0.158441,-0.063116,0.885010,0.671387,-0.579834
5.361863,-0.483794,0.025148,9.866882,-0.417093,-0.006956,-0.188255,0.823975,0.549316,-1.068115
5.371952,-0.382006,0.056882,9.996213,-0.315305,0.024778,-0.058924,-1.220703,0.091553,0.732422
5.382043,-0.119152,0.134121,10.048903,-0.052452,0.102017,-0.006234,-0.823975,0.427246,1.373291
5.392139,0.194595,-0.036524,10.057286,0.261296,-0.068628,0.002149,-1.037598,0.274658,2.105713
5.402236,-0.141905,-0.095202,10.150093,-0.075204,-0.127306,0.094956,-2.441406,-0.213623,2.563477
5.412332,-0.270038,0.085023,10.163265,-0.203338,0.052919,0.108128,-2.288818,-0.305176,3.723145
5.422428,0.056882,0.189805,10.016570,0.123582,0.157702,-0.038567,-1.800537,-0.213623,6.988525
5.432524,0.005988,-0.078437,10.080637,0.072688,-0.110541,0.025500,-1.983643,0.183105,7.934570
5.442621,0.070054,-0.111368,10.063273,0.136755,-0.143472,0.008136,-3.082275,0.244141,7.781982
5.452717,-0.200583,-0.040117,10.133328,-0.133882,-0.072220,0.078191,-2.990723,0.823975,7.812500
5.462813,0.011376,-0.119751,10.122550,0.078077,-0.151855,0.067413,-2.655029,0.701904,6.927490
5.472908,0.096998,0.126936,9.961485,0.163699,0.094832,-0.093652,-1.800537,0.396729,6.164551
5.482996,-0.019759,-0.046104,10.103390,0.046942,-0.078208,0.048253,-1.525879,0.183105,6.072998
5.493086,-0.002994,-0.209564,10.083631,0.063707,-0.241668,0.028494,-0.671387,-0.427246,3.295898
5.503177,0.065264,-0.200583,10.077643,0.131965,-0.232687,0.022506,0.335693,-0.701904,2.014160
5.513266,-0.018561,-0.089813,10.021360,0.048139,-0.121917,-0.033777,0.183105,-0.274658,-0.885010
5.523355,0.088017,0.221539,10.012978,0.154718,0.189436,-0.042159,-0.488281,-0.244141,-1.556396
5.533444,0.185015,0.031734,10.115365,0.251716,-0.000370,0.060228,-0.579834,0.030518,-0.793457
5.543533,0.046104,0.056882,10.120155,0.112805,0.024778,0.065018,0.122070,0.671387,-1.007080
5.553622,0.371228,0.090412,10.175839,0.437929,0.058308,0.120702,-0.793457,0.549316,-0.579834
5.563712,0.206570,0.099992,10.080038,0.273271,0.067888,0.024901,0.823975,0.946045,0.366211
5.573802,0.068857,-0.055684,10.109377,0.135557,-0.087788,0.054240,0.946045,1.098633,0.610352
5.583950,0.273631,-0.050894,10.014774,0.340332,-0.082998,-0.040363,0.244141,0.671387,-1.556396
5.594046,0.088616,-0.207768,10.129136,0.155316,-0.239872,0.073999,-0.335693,0.366211,-2.258301
5.604137,0.083826,-0.015568,10.047107,0.150526,-0.047671,-0.008030,1.098633,0.030518,-2.807617
5.614230,-0.016166,-0.077239,10.121353,0.050534,-0.109343,0.066216,2.014160,-0.244141,-3.601074
5.624321,-0.144300,-0.055684,10.029144,-0.077599,-0.087788,-0.025993,2.319336,-0.091553,-3.814697
5.634412,-0.007185,0.088616,10.065668,0.059515,0.056512,0.010531,0.457764,-0.335693,-2.380371
5.644504,-0.071851,-0.036524,10.126143,-0.005150,-0.068628,0.071006,-0.671387,-0.366211,-0.762939
5.654596,-0.091011,-0.196990,10.200388,-0.024310,-0.229094,0.145251,0.061035,-0.396729,-2.105713
5.664687,-0.101788,-0.164658,10.108180,-0.035088,-0.196761,0.053043,-0.213623,-0.305176,-2.685547
5.674781,-0.097597,-0.017963,10.014175,-0.030897,-0.050066,-0.040962,-1.037598,0.244141,-1.159668
5.684868,-0.065863,0.078437,10.008188,0.000838,0.046333,-0.046949,-1.342773,0.518799,0.610352
5.694955,-0.340692,-0.040715,10.118958,-0.273991,-0.072819,0.063821,-1.647949,0.579834,3.112793
5.705041,0.040715,-0.238304,9.877659,0.107416,-0.270408,-0.177478,1.007080,0.640869,6.469727
5.715129,-0.035327,-0.458646,10.050699,0.031374,-0.490750,-0.004438,0.610352,0.762939,6.713867
5.725215,0.276026,-0.189207,10.226733,0.342727,-0.221310,0.171596,-2.655029,-0.518799,10.772705
5.735303,-0.083227,-0.265248,10.359058,-0.016526,-0.297352,0.303921,-3.112793,-0.946045,9.002686
5.745389,-0.182021,-0.217348,10.102791,-0.115321,-0.249452,0.047654,1.953125,-1.159668,5.126953
5.755475,-0.118553,0.093406,10.063872,-0.051853,0.061302,0.008735,2.563477,-1.220703,6.469727
5.765562,-0.115560,-0.027543,10.066267,-0.048859,-0.059646,0.011130,4.180908,-1.098633,8.026123
5.775693,-0.211959,-0.059277,9.983040,-0.145259,-0.091380,-0.072097,2.441406,-1.098633,11.016846
5.785811,-0.179626,0.047900,10.047107,-0.112926,0.015797,-0.008030,2.044678,-0.671387,11.077881
5.795919,0.049697,0.100591,10.051298,0.116397,0.068487,-0.003839,1.007080,0.244141,9.948730
5.806012,0.113165,0.144899,9.947714,0.179865,0.112795,-0.107423,0.030518,0.915527,8.605957
5.816103,0.113165,0.046703,10.069261,0.179865,0.014599,0.014124,-2.655029,0.579834,3.784180
5.826193,-0.031135,0.097597,10.106982,0.035565,0.065493,0.051845,-2.014160,0.579834,1.068115
5.836282,-0.056283,0.125140,9.928553,0.010418,0.093036,-0.126584,0.122070,0.549316,-1.007080
5.846370,-0.001796,0.128732,9.970466,0.064904,0.096629,-0.084671,-1.678467,0.091553,-1.861572
5.856474,-0.214953,0.063468,10.115365,-0.148252,0.031364,0.060228,-1.678467,-0.122070,-1.342773
5.866564,-0.095801,0.022154,9.928553,-0.029100,-0.009950,-0.126584,-2.655029,-0.457764,-1.037598
5.876654,-0.167053,0.014370,10.315349,-0.100352,-0.017734,0.260212,-2.716064,-0.610352,-1.403809
5.886738,-0.252076,-0.123942,10.080637,-0.185375,-0.156046,0.025500,-0.854492,-0.946045,-5.218506
5.896820,-0.234712,-0.161065,10.153087,-0.168011,-0.193169,0.097950,-0.274658,-0.549316,-4.699707
5.906902,0.123942,-0.202978,10.217153,0.190643,-0.235082,0.162016,0.915527,-0.122070,-1.892090
5.916986,0.092807,-0.251477,10.190209,0.159508,-0.283581,0.135072,0.610352,0.396729,-1.312256
5.927100,-0.097597,-0.169448,10.091415,-0.030897,-0.201551,0.036278,1.037598,0.793457,-1.464844
5.937183,-0.294587,-0.096400,10.066267,-0.227887,-0.128503,0.011130,1.373291,1.464844,-1.220703
5.947268,-0.192799,-0.085622,10.116563,-0.126099,-0.117726,0.061426,0.396729,1.586914,1.434326
5.957353,-0.041913,0.071851,10.024354,0.024788,0.039747,-0.030783,0.885010,1.617432,4.791260
5.967438,-0.050894,0.162263,9.990824,0.015806,0.130159,-0.064313,0.640869,1.831055,5.523682
5.977523,0.002994,0.013173,10.058483,0.069694,-0.018931,0.003346,0.213623,0.915527,6.988525
5.987616,0.089813,-0.094603,10.107581,0.156514,-0.126707,0.052444,0.488281,0.762939,6.683350
5.997713,-0.124541,0.049697,10.130933,-0.057840,0.017593,0.075796,-0.030518,0.732422,6.713867
6.007809,-0.058678,0.026944,10.071057,0.008023,-0.005160,0.015920,1.434326,0.457764,6.195068
6.017907,0.192200,0.093406,9.954899,0.258901,0.061302,-0.100238,2.105713,0.488281,7.049561
6.028003,-0.089214,-0.041913,9.984238,-0.022514,-0.074017,-0.070899,0.732422,-0.061035,7.629395
6.038098,-0.288001,-0.094603,10.050699,-0.221301,-0.126707,-0.004438,0.091553,-0.122070,7.263184
6.048194,-0.188608,0.108973,9.956695,-0.121907,0.076870,-0.098442,1.617432,0.183105,8.850098
6.058290,0.163460,-0.094603,10.074051,0.230161,-0.126707,0.018914,0.854492,0.061035,9.887695
6.068387,-0.007784,-0.005389,9.984836,0.058917,-0.037493,-0.070301,0.244141,-0.274658,8.544922
6.078483,0.259860,-0.642464,10.151290,0.326560,-0.674568,0.096153,1.403809,-0.396729,6.286621
6.088573,0.483195,-0.147892,10.186617,0.549896,-0.179996,0.131480,9.613037,1.495361,4.638672
6.098667,0.589774,-0.162861,10.040521,0.656474,-0.194965,-0.014616,0.000000,0.030518,6.103516
6.108757,-0.064067,0.135319,9.965676,0.002634,0.103215,-0.089461,1.464844,0.305176,-1.159668
6.118846,-0.095202,-0.006586,10.149494,-0.028501,-0.038690,0.094357,2.441406,0.671387,-0.671387
6.128936,0.279619,-0.022154,10.141710,0.346319,-0.054258,0.086573,1.495361,0.213623,2.593994
6.139023,0.104782,-0.387993,10.256671,0.171483,-0.420097,0.201534,-0.030518,0.000000,4.364014
6.149114,0.222138,0.132325,10.064471,0.288839,0.100221,0.009334,-0.152588,0.061035,7.324219
6.159204,0.176034,-0.012574,10.084828,0.242734,-0.044678,0.029692,-0.122070,0.030518,8.911133
6.169293,0.093406,0.055684,10.000404,0.160106,0.023580,-0.054733,0.854492,0.701904,11.535645
6.179383,-0.410147,0.192200,9.952504,-0.343447,0.160097,-0.102633,0.061035,0.915527,8.148193
6.189477,0.244292,0.059277,10.068063,0.310993,0.027173,0.012926,-1.007080,0.823975,5.279541
6.199574,0.374222,0.116158,10.135723,0.440922,0.084055,0.080586,0.671387,1.007080,4.577637
6.209671,0.392184,0.125140,10.093810,0.458885,0.093036,0.038673,-0.396729,1.373291,6.011963
6.219767,-0.220342,-0.092208,10.102791,-0.153641,-0.124312,0.047654,-1.831055,1.129150,7.141113
6.229863,-0.226928,0.037123,10.114766,-0.160228,0.005019,0.059629,-2.532959,1.068115,8.514404
6.239960,0.265248,-0.149090,10.206376,0.331949,-0.181194,0.151239,-2.227783,1.068115,8.605957
6.250056,0.247286,0.008981,10.126741,0.313986,-0.023122,0.071604,-1.678467,1.037598,5.889893
6.260153,0.058079,-0.164059,10.072853,0.124780,-0.196163,0.017716,-2.685547,0.762939,2.014160
6.270249,0.250280,-0.107177,10.054292,0.316980,-0.139281,-0.000845,-2.471924,0.305176,0.457764
6.280346,0.156874,0.034728,10.027947,0.223574,0.002624,-0.027190,-1.037598,0.122070,0.396729
6.290442,0.104183,0.046703,10.075847,0.170884,0.014599,0.020710,-0.610352,0.122070,0.610352
6.300538,0.039518,0.025148,10.102192,0.106218,-0.006956,0.047055,0.274658,0.122070,0.762939
6.310636,0.008981,0.196392,10.113569,0.075682,0.164288,0.058432,-0.305176,-0.244141,0.091553
6.320732,-0.003593,-0.038919,10.106982,0.063108,-0.071023,0.051845,-0.579834,-0.518799,-0.335693
6.330827,0.156874,0.042512,10.009984,0.223574,0.010408,-0.045153,-0.915527,-0.793457,-6.103516
6.340923,-0.016765,0.405357,10.064471,0.049935,0.373253,0.009334,-0.274658,-0.640869,-8.514404
6.351020,-0.159269,0.342488,10.031539,-0.092568,0.310384,-0.023598,-0.549316,-0.793457,-7.843018
6.361116,-0.013771,0.073048,10.027348,0.052929,0.040944,-0.027789,-0.823975,-0.793457,-8.911133
6.371212,-0.394579,0.120948,10.085427,-0.327879,0.088845,0.030290,0.000000,-0.579834,-10.314941
6.381308,-0.521516,0.046104,10.059681,-0.454815,0.014000,0.004544,0.823975,0.152588,-5.981445
6.391397,-0.237107,0.047302,9.989028,-0.170406,0.015198,-0.066109,1.953125,0.671387,-2.258301
6.401486,-0.075443,0.038919,10.060878,-0.008743,0.006815,0.005741,-0.915527,0.427246,0.305176
6.411576,-0.247885,-0.067061,10.053094,-0.181184,-0.099164,-0.002043,-0.091553,0.610352,-0.976562
6.421665,-0.202379,-0.179028,9.946516,-0.135679,-0.211131,-0.108621,-1.037598,0.213623,-2.838135
6.431755,-0.241298,0.125140,10.054292,-0.174598,0.093036,-0.000845,-1.129150,0.030518,-1.861572
6.441845,-0.094005,0.070054,10.012379,-0.027304,0.037951,-0.042758,-1.708984,-0.183105,-1.068115
6.451933,-0.140707,-0.108375,10.226135,-0.074007,-0.140478,0.170998,-5.432129,-1.159668,-2.166748
6.462024,-0.368234,-0.037722,10.147099,-0.301534,-0.069825,0.091962,-2.624512,-0.946045,-4.150391
6.472115,-0.110171,-0.062869,10.087822,-0.043470,-0.094973,0.032685,-1.770020,-0.762939,0.671387
6.482205,-0.029339,-0.024549,10.089020,0.037362,-0.056653,0.033883,-1.220703,-0.610352,2.624512
6.492299,-0.054487,0.026944,10.013577,0.012214,-0.005160,-0.041560,-0.274658,-0.762939,2.624512
6.502396,-0.126936,-0.074844,10.191407,-0.060235,-0.106948,0.136270,-0.457764,-0.701904,2.227783
6.512492,-0.070054,-0.004790,10.067465,-0.003354,-0.036894,0.012328,0.640869,-0.366211,2.197266
6.522587,-0.114362,-0.014969,10.080637,-0.047662,-0.047073,0.025500,0.091553,-0.396729,2.349854
6.532684,-0.074844,-0.105980,10.126143,-0.008144,-0.138083,0.071006,-0.579834,-0.396729,2.868652
6.542777,-0.074246,-0.035327,9.996812,-0.007545,-0.067430,-0.058325,0.244141,-0.488281,2.593994
6.552873,-0.155078,-0.126337,10.019564,-0.088377,-0.158441,-0.035573,-0.152588,-0.701904,1.770020
6.562968,-0.078437,-0.114362,10.053693,-0.011736,-0.146466,-0.001444,1.190186,-0.946045,-1.525879
6.573063,0.019160,-0.074246,10.073452,0.085861,-0.106349,0.018315,0.488281,-1.037598,-0.946045
6.583159,-0.210163,-0.108375,10.079440,-0.143462,-0.140478,0.024303,0.152588,-1.098633,0.396729
6.593255,-0.207169,-0.002994,10.017768,-0.140469,-0.035098,-0.037369,0.000000,-0.915527,0.000000
6.603350,-0.089214,-0.084424,10.056687,-0.022514,-0.116528,0.001550,0.885010,-0.671387,-1.403809
6.613446,-0.299976,0.209564,10.089619,-0.233276,0.177460,0.034482,1.953125,-0.030518,-4.943848
6.623588,-0.531694,0.063468,10.022558,-0.464994,0.031364,-0.032579,1.556396,0.030518,-6.317139
6.633681,-0.567620,0.265248,9.951905,-0.500919,0.233145,-0.103232,-0.366211,0.122070,-8.209229
6.643776,-0.328716,0.087418,10.015972,-0.262016,0.055314,-0.039165,-0.366211,0.152588,-7.812500
6.653872,-0.077838,-0.037722,10.028546,-0.011138,-0.069825,-0.026591,-0.457764,0.640869,-9.124756
6.663968,-0.249681,-0.138911,9.997410,-0.182980,-0.171015,-0.057727,0.579834,0.915527,-9.063721
6.674065,-0.293390,0.049697,10.230326,-0.226689,0.017593,0.175189,0.244141,1.373291,-8.239746
6.684161,-0.492775,0.106578,9.996213,-0.426075,0.074475,-0.058924,0.000000,1.190186,-6.042480
6.694257,-0.386197,-0.109572,10.074051,-0.319496,-0.141676,0.018914,-0.213623,0.793457,-5.828857
6.704353,-0.417931,0.076641,10.156080,-0.351230,0.044537,0.100943,-1.220703,0.366211,-3.997803
6.714449,-0.477806,0.050295,10.077643,-0.411106,0.018192,0.022506,-1.281738,0.335693,-2.105713
6.724545,-0.298779,0.059277,9.953102,-0.232078,0.027173,-0.102035,-0.885010,-0.335693,1.525879
6.734642,-0.251477,-0.156874,10.156679,-0.184777,-0.188978,0.101542,-0.793457,-0.732422,1.403809
6.744739,-0.414937,-0.175435,10.209370,-0.348237,-0.207539,0.154233,0.091553,-1.129150,0.732422
6.754835,-0.339494,-0.040117,10.041718,-0.272793,-0.072220,-0.013419,0.823975,-1.556396,1.495361
6.764931,-0.296384,-0.161065,9.993219,-0.229683,-0.193169,-0.061918,0.030518,-1.464844,1.586914
6.775026,-0.356259,-0.113763,10.039922,-0.289559,-0.145867,-0.015215,1.190186,-1.373291,0.061035
6.785122,-0.226329,-0.147892,10.030342,-0.159629,-0.179996,-0.024795,1.037598,-1.251221,0.122070
6.795219,-0.257465,-0.113165,10.112371,-0.190764,-0.145268,0.057234,0.640869,-0.701904,0.640869
6.805315,-0.258662,-0.083227,10.036928,-0.191962,-0.115331,-0.018209,0.335693,-0.213623,1.190186
6.815410,-0.236508,-0.102387,10.043514,-0.169808,-0.134491,-0.011623,0.122070,0.762939,2.105713
6.825503,-0.210762,-0.035925,10.050699,-0.144061,-0.068029,-0.004438,-0.366211,0.732422,2.990723
6.835599,-0.356858,0.049697,9.942325,-0.290157,0.017593,-0.112812,-1.159668,0.762939,3.906250
6.845696,-0.328716,-0.089813,10.017169,-0.262016,-0.121917,-0.037968,-2.075195,0.885010,5.401611
6.855792,-0.289797,-0.010778,9.905202,-0.223097,-0.042881,-0.149935,-1.098633,0.946045,6.866455
6.865887,-0.036524,0.031734,10.064471,0.030176,-0.000370,0.009334,0.671387,2.044678,6.958008
6.875983,-0.101788,0.214354,10.121951,-0.035088,0.182251,0.066814,0.549316,2.136230,6.652832
6.886079,0.018561,0.092208,10.162667,0.085262,0.060105,0.107530,-1.159668,1.312256,5.554199
6.896176,-0.179028,0.239502,9.959689,-0.112327,0.207398,-0.095448,-0.152588,1.708984,2.990723
6.906273,-0.195793,0.205972,9.938732,-0.129092,0.173868,-0.116405,-0.976562,1.281738,0.671387
6.916369,-0.007185,0.237706,10.130334,0.059515,0.205602,0.075197,-3.356934,0.152588,-5.340576
6.926466,0.045505,0.176633,9.989626,0.112206,0.144529,-0.065511,-2.197266,0.396729,-6.835938
6.936562,0.149090,0.102986,10.051298,0.215791,0.070882,-0.003839,-0.976562,0.000000,-8.850098
6.946657,0.133522,-0.031734,10.180629,0.200223,-0.063838,0.125492,-1.495361,-0.396729,-8.728027
6.956754,0.147294,-0.086221,10.238110,0.213994,-0.118324,0.182973,-0.701904,-0.061035,-8.422852
6.966851,-0.150287,-0.058678,10.260264,-0.083587,-0.090782,0.205127,1.007080,-0.488281,-7.843018
6.976948,-0.134121,-0.183219,10.131531,-0.067421,-0.215323,0.076394,3.723145,0.366211,-6.042480
6.987042,0.088017,-0.067061,9.924961,0.154718,-0.099164,-0.130176,2.410889,1.007080,-2.410889
6.997131,0.407752,-0.015568,10.187216,0.474453,-0.047671,0.132079,2.166748,0.213623,-1.831055
7.007221,-0.016765,0.007185,10.015373,0.049935,-0.024919,-0.039764,2.624512,-0.061035,-3.417969
7.017309,-0.082029,-0.102986,10.073452,-0.015329,-0.135090,0.018315,1.342773,0.213623,-3.845215
7.027397,0.149090,0.050894,10.056088,0.215791,0.018790,0.000951,0.976562,0.518799,-2.471924
7.037486,-0.057480,-0.144899,9.957294,0.009220,-0.177002,-0.097843,-0.671387,0.579834,-0.640869
7.047573,-0.050894,-0.184417,10.027348,0.015806,-0.216520,-0.027789,-0.640869,-0.244141,-2.471924
7.057675,0.322130,-0.037722,10.241104,0.388831,-0.069825,0.185967,0.000000,-0.274658,-2.838135
7.067767,0.533491,0.055684,10.008787,0.600191,0.023580,-0.046350,0.579834,-0.610352,-1.861572
7.077858,0.364642,0.026944,10.114766,0.431342,-0.005160,0.059629,0.274658,-0.671387,-1.861572
7.087948,0.232317,0.085622,10.118359,0.299017,0.053518,0.063222,0.518799,-0.640869,-1.464844
7.098040,0.106578,0.268242,10.051298,0.173279,0.236138,-0.003839,2.441406,-0.305176,-1.861572
7.108136,0.229922,-0.276625,10.009984,0.296622,-0.308728,-0.045153,0.030518,-0.671387,0.274658
7.118232,0.104183,0.053289,10.123149,0.170884,0.021185,0.068012,-0.732422,-1.007080,-1.037598
7.128329,-0.147892,0.079634,10.049502,-0.081192,0.047531,-0.005635,-1.495361,-1.007080,-1.708984
7.138426,0.193398,0.031734,10.065070,0.260098,-0.000370,0.009933,-0.427246,-0.518799,-2.349854
7.148524,0.307161,0.155676,10.027947,0.373862,0.123573,-0.027190,0.885010,-0.335693,-2.929688
7.158620,0.323328,0.027543,10.019564,0.390028,-0.004561,-0.035573,-0.274658,-0.488281,-1.190186
7.168717,-0.175435,-0.043110,10.078242,-0.108735,-0.075214,0.023105,-0.213623,-0.549316,-1.007080
7.178814,-0.063468,0.037722,10.023157,0.003233,0.005618,-0.031980,-0.152588,-0.549316,-0.549316
7.188910,0.080233,-0.313149,10.199789,0.146934,-0.345253,0.144652,0.579834,-0.885010,4.516602
7.199000,-0.043709,-0.098196,10.153087,0.022991,-0.130300,0.097950,-0.915527,-0.396729,6.744385
7.209091,-0.101788,-0.353864,10.171648,-0.035088,-0.385968,0.116511,-1.586914,-0.305176,6.683350
7.219181,-0.041913,-0.101788,10.169852,0.024788,-0.133892,0.114715,-1.007080,0.213623,3.387451
7.229272,-0.169448,0.029938,10.147099,-0.102747,-0.002166,0.091962,-1.281738,0.366211,3.173828
7.239362,-0.185015,0.182620,10.108180,-0.118315,0.150516,0.053043,-1.220703,0.488281,1.220703
7.249451,-0.385598,0.301174,9.888437,-0.318898,0.269070,-0.166700,-1.434326,0.854492,0.183105
7.259541,-0.620310,0.305964,10.034533,-0.553610,0.273860,-0.020604,-0.427246,0.823975,-0.335693
7.269632,-0.382006,0.156874,9.996213,-0.315305,0.124770,-0.058924,0.122070,0.610352,-0.183105
7.279729,-0.190404,0.034129,10.081236,-0.123704,0.002025,0.026099,0.579834,-0.183105,-2.105713
7.289819,-0.298779,0.082029,10.026151,-0.232078,0.049926,-0.028986,0.122070,-0.488281,-3.112793
7.299915,-0.403561,0.031135,10.043514,-0.336860,-0.000968,-0.011623,0.030518,-0.701904,-3.662109
7.310011,-0.354463,-0.035925,9.893227,-0.287762,-0.068029,-0.161910,0.427246,-0.183105,-1.373291
7.320109,-0.470023,-0.119751,10.078242,-0.403322,-0.151855,0.023105,-0.976562,-0.396729,0.854492
7.330206,-0.423320,-0.114961,10.011182,-0.356619,-0.147065,-0.043955,1.495361,0.549316,0.701904
7.340304,-0.229922,-0.111967,10.223141,-0.163221,-0.144071,0.168004,0.335693,0.305176,1.800537
7.350403,-0.180225,-0.131127,10.165062,-0.113525,-0.163231,0.109925,0.854492,0.244141,3.479004
7.360499,-0.007784,-0.116757,9.978849,0.058917,-0.148861,-0.076288,1.403809,0.305176,3.784180
7.370594,-0.116757,-0.179028,10.129735,-0.050057,-0.211131,0.074598,1.251221,-0.152588,4.211426
7.380691,-0.033530,0.076641,10.070458,0.033170,0.044537,0.015321,-0.518799,-0.579834,6.774902
7.390787,-0.367037,-0.166454,9.999805,-0.300336,-0.198558,-0.055332,-1.220703,-0.549316,6.164551
7.400879,-0.200583,0.097597,10.062675,-0.133882,0.065493,0.007538,-0.732422,-1.281738,2.532959
7.410968,0.088017,0.083227,10.051298,0.154718,0.051123,-0.003839,-0.671387,-1.220703,1.831055
7.421057,0.085023,0.042512,10.115964,0.151724,0.010408,0.060827,-1.892090,-1.220703,1.556396
7.431147,-0.158670,0.058678,10.017768,-0.091969,0.026574,-0.037369,-1.373291,-0.915527,0.457764
7.441237,-0.041913,-0.055684,10.098600,0.024788,-0.087788,0.043463,-0.976562,-1.068115,0.488281
7.451326,-0.041314,-0.094603,10.123149,0.025386,-0.126707,0.068012,1.373291,-0.274658,0.610352
7.461415,-0.078437,-0.021555,10.060280,-0.011736,-0.053659,0.005143,0.854492,-0.122070,0.457764
7.471505,-0.144300,-0.194595,10.129136,-0.077599,-0.226699,0.073999,-0.396729,0.488281,0.274658
7.481594,-0.282612,-0.069456,10.159074,-0.215912,-0.101559,0.103937,-0.335693,0.518799,1.251221
7.491683,-0.338297,-0.173040,10.099199,-0.271596,-0.205144,0.044062,0.610352,0.793457,1.770020
7.501778,0.075443,-0.085023,10.015373,0.142144,-0.117127,-0.039764,1.098633,0.732422,1.678467
7.511874,0.144300,0.028740,10.032138,0.211000,-0.003364,-0.022999,0.396729,0.488281,1.892090
7.521969,-0.076042,-0.034728,10.048304,-0.009341,-0.066832,-0.006833,-0.091553,0.091553,-0.091553
7.532064,-0.270637,0.195793,9.909992,-0.203937,0.163689,-0.145145,-0.061035,0.244141,-1.708984
7.542161,0.222737,-0.071252,10.148297,0.289437,-0.103356,0.093160,-0.518799,0.305176,-1.586914
7.552257,0.367635,-0.038320,10.162667,0.434336,-0.070424,0.107530,-0.061035,0.518799,-1.434326
7.562353,0.144300,-0.164658,10.223141,0.211000,-0.196761,0.168004,0.457764,0.305176,-2.197266
7.572449,-0.136516,-0.054487,10.090816,-0.069816,-0.086590,0.035679,-0.366211,0.091553,-2.624512
7.582545,-0.093406,-0.022753,10.103390,-0.026705,-0.054856,0.048253,-0.488281,-0.183105,-3.021240
7.592641,-0.086819,0.085622,10.001602,-0.020119,0.053518,-0.053535,0.549316,-0.122070,-4.241943
7.602737,-0.171843,0.102387,10.191407,-0.105142,0.070283,0.136270,-0.244141,0.061035,-5.401611
7.612833,-0.029339,-0.108973,10.362651,0.037362,-0.141077,0.307514,-1.251221,-0.946045,-6.164551
7.622930,-0.083826,0.016765,10.296189,-0.017125,-0.015339,0.241052,-1.312256,-1.342773,-6.042480
7.633027,-0.096998,-0.077838,10.172845,-0.030298,-0.109942,0.117708,-1.129150,-0.457764,-5.157471
7.643122,-0.127535,0.094005,10.090217,-0.060834,0.061901,0.035080,-1.312256,-0.213623,-4.974365
7.653219,-0.070054,0.134720,10.083631,-0.003354,0.102616,0.028494,-1.190186,0.122070,-4.699707
7.663316,-0.269440,0.073048,9.972263,-0.202739,0.040944,-0.082874,-1.190186,0.122070,-5.035400
7.673413,-0.192799,0.029938,9.978250,-0.126099,-0.002166,-0.076887,-1.525879,0.030518,-5.340576
7.683509,-0.171244,-0.117955,10.117760,-0.104543,-0.150058,0.062623,-0.915527,-0.061035,-2.380371
7.693615,-0.023351,-0.120948,9.846524,0.043349,-0.153052,-0.208613,-0.274658,0.213623,-0.640869
7.703708,0.109572,-0.199984,10.031539,0.176273,-0.232088,-0.023598,0.274658,0.000000,-0.732422
7.713796,0.057480,-0.214354,10.171648,0.124181,-0.246458,0.116511,0.366211,-0.305176,-1.190186
7.723887,-0.077239,-0.273631,10.142309,-0.010539,-0.305735,0.087172,2.044678,-0.396729,0.061035
7.733980,-0.158670,-0.026944,9.990824,-0.091969,-0.059048,-0.064313,1.617432,-0.427246,0.915527
7.744070,-0.263452,0.011376,9.960886,-0.196752,-0.020727,-0.094251,0.823975,-0.427246,1.525879
7.754158,0.186213,0.032932,10.120754,0.252913,0.000828,0.065617,-0.518799,-0.305176,1.312256
7.764249,0.126936,0.179626,9.981843,0.193637,0.147523,-0.073294,-0.061035,-0.427246,0.457764
7.774338,-0.040715,0.100591,10.083631,0.025985,0.068487,0.028494,-0.488281,-0.732422,-0.305176
7.784428,-0.004790,-0.038320,9.984238,0.061911,-0.070424,-0.070899,-0.152588,-0.823975,-0.671387
7.794518,-0.065863,-0.010778,9.950707,0.000838,-0.042881,-0.104430,-0.061035,-0.976562,0.732422
7.804608,-0.052690,-0.088017,9.954899,0.014010,-0.120121,-0.100238,0.000000,-0.701904,1.312256
7.814697,-0.054487,0.081431,9.884844,0.012214,0.049327,-0.170293,-0.030518,-0.061035,1.434326
7.824790,0.053289,-0.191003,9.981244,0.119990,-0.223107,-0.073893,-0.427246,-0.061035,2.807617
7.834879,0.044907,-0.145497,9.913585,0.111607,-0.177601,-0.141552,0.091553,0.274658,3.601074
7.844969,-0.001198,-0.089813,10.089020,0.065503,-0.121917,0.033883,1.007080,0.457764,5.737305
7.855059,0.001198,-0.177231,10.103989,0.067898,-0.209335,0.048852,0.976562,0.671387,6.622314
7.865148,0.092807,-0.129331,10.094409,0.159508,-0.161435,0.039272,0.732422,1.129150,8.239746
7.875238,0.225731,0.105980,9.830956,0.292431,0.073876,-0.224181,2.044678,1.678467,7.537842
7.885327,0.018561,0.213755,10.021360,0.085262,0.181652,-0.033777,-1.190186,0.885010,4.638672
7.895415,0.021555,0.019759,10.036329,0.088256,-0.012345,-0.018808,-1.861572,0.732422,3.936768
7.905509,0.317939,0.005389,10.074051,0.384639,-0.026715,0.018914,-1.922607,0.671387,2.227783
7.915606,-0.010179,0.170046,10.062076,0.056522,0.137943,0.006939,-1.831055,0.213623,0.122070
7.925702,0.152682,0.140707,10.047107,0.219383,0.108604,-0.008030,-0.610352,0.152588,-0.183105
7.935797,0.005389,-0.367037,10.174043,0.072089,-0.399140,0.118906,-0.885010,-0.335693,-2.319336
7.945890,-0.222737,0.013771,9.939331,-0.156036,-0.018332,-0.115806,0.396729,-0.122070,-4.425049
7.955985,-0.108973,-0.026944,9.901609,-0.042273,-0.059048,-0.153527,-0.335693,-0.427246,-3.540039
7.966081,-0.096400,-0.130529,10.076446,-0.029699,-0.162632,0.021309,-0.305176,-0.885010,-4.089355
7.976176,-0.065264,-0.237107,10.071057,0.001436,-0.269211,0.015920,-0.854492,-1.098633,-4.333496
7.986271,-0.004191,-0.122745,10.019564,0.062509,-0.154848,-0.035573,3.204346,-0.427246,-6.042480
7.996366,-0.231119,-0.107177,10.045311,-0.164419,-0.139281,-0.009826,2.960205,-0.579834,-5.279541
8.006454,-0.655038,0.213157,10.044712,-0.588337,0.181053,-0.010425,1.312256,-0.885010,-4.791260
8.016543,-0.659229,-0.040117,10.116563,-0.592529,-0.072220,0.061426,-0.610352,-1.129150,-3.295898
8.026634,-0.280816,-0.135319,9.870474,-0.214115,-0.167422,-0.184663,-0.518799,-1.892090,-2.044678
8.036723,-0.191003,0.093406,10.027348,-0.124302,0.061302,-0.027789,-0.457764,-1.953125,-2.502441
8.046811,-0.422122,0.013173,10.050699,-0.355422,-0.018931,-0.004438,-0.610352,-1.770020,-3.265381
8.056899,-0.430505,-0.023950,10.164463,-0.363804,-0.056054,0.109326,0.152588,-1.556396,-2.960205
8.066989,-0.502954,0.027543,10.137519,-0.436254,-0.004561,0.082382,-0.122070,-1.098633,-1.251221
8.077079,-0.334105,-0.010179,10.020163,-0.267405,-0.042283,-0.034974,-0.488281,0.183105,1.220703
8.087168,-0.235311,-0.055085,10.092014,-0.168610,-0.087189,0.036877,0.518799,0.549316,1.708984
8.097258,-0.159868,0.086221,9.839938,-0.093167,0.054117,-0.215199,-1.159668,1.373291,0.640869
8.107347,-0.290995,-0.044308,9.878857,-0.224294,-0.076412,-0.176280,-1.007080,0.976562,-0.183105
8.117437,-0.120948,-0.161664,9.920770,-0.054248,-0.193768,-0.134367,-0.518799,0.793457,-2.502441
8.127527,-0.076042,-0.112566,10.050101,-0.009341,-0.144670,-0.005036,0.183105,0.610352,-1.953125
8.137616,-0.008383,0.020358,10.090816,0.058318,-0.011746,0.035679,-0.335693,0.427246,-2.014160
8.147706,-0.025746,-0.021555,10.060280,0.040954,-0.053659,0.005143,-0.640869,0.122070,-2.075195
8.157795,-0.138312,0.019759,10.095606,-0.071612,-0.012345,0.040469,-0.122070,-0.183105,-1.922607
8.167885,-0.005988,0.156874,9.954300,0.060713,0.124770,-0.100837,0.762939,0.152588,-1.190186
8.177974,0.035327,0.186213,9.946516,0.102027,0.154109,-0.108621,0.671387,-0.122070,-0.610352
8.188063,0.170645,-0.019160,9.948911,0.237346,-0.051264,-0.106226,0.762939,-0.305176,-1.678467
8.198153,0.005389,-0.023950,10.039922,0.072089,-0.056054,-0.015215,1.007080,0.091553,-2.227783
8.208247,-0.051493,-0.174836,10.029144,0.015208,-0.206940,-0.025993,0.549316,0.549316,-1.434326
8.218344,-0.123942,-0.170046,9.968670,-0.057242,-0.202150,-0.086467,0.335693,1.190186,0.610352
8.228440,-0.045505,-0.133522,10.097402,0.021195,-0.165626,0.042265,-0.030518,1.007080,2.349854
8.238536,0.055684,-0.237706,9.999805,0.122385,-0.269809,-0.055332,-0.457764,1.037598,4.455566
8.248631,0.007185,-0.097597,9.966874,0.073886,-0.129701,-0.088263,-0.946045,0.885010,4.455566
8.258742,-0.116757,-0.004191,9.951905,-0.050057,-0.036295,-0.103232,-2.258301,0.427246,5.706787
8.268845,0.113763,-0.212558,10.136920,0.180464,-0.244662,0.081783,-2.563477,0.518799,5.279541
8.278941,0.139510,0.037123,9.961485,0.206210,0.005019,-0.093652,-2.777100,1.037598,5.432129
8.289038,0.335901,0.070054,10.169852,0.402602,0.037951,0.114715,-3.265381,1.312256,7.507324
8.299134,0.386197,-0.146695,10.187216,0.452897,-0.178799,0.132079,-3.082275,0.946045,6.927490
8.309223,-0.101190,0.146695,10.030941,-0.034489,0.114591,-0.024196,-2.227783,1.220703,4.180908
8.319314,-0.131127,-0.093406,10.137519,-0.064427,-0.125510,0.082382,-0.793457,1.190186,3.082275
8.329404,0.083227,0.014969,9.974059,0.149927,-0.017135,-0.081078,1.464844,0.518799,0.915527
8.339494,0.165256,0.133522,10.072255,0.231957,0.101419,0.017118,1.495361,-0.061035,-0.518799
8.349584,-0.055684,0.116757,10.119556,0.011016,0.084653,0.064419,1.220703,-0.213623,-2.197266
8.359672,-0.139510,0.085023,10.039922,-0.072809,0.052919,-0.015215,1.281738,-0.640869,-4.516602
8.369762,-0.193997,0.168250,10.060878,-0.127296,0.136146,0.005741,0.610352,-0.793457,-4.119873
8.379853,-0.070054,0.072449,10.039922,-0.003354,0.040346,-0.015215,0.244141,-0.366211,-4.852295
8.389943,-0.231718,0.049098,10.053693,-0.165018,0.016994,-0.001444,0.335693,0.488281,-5.828857
8.400033,-0.368234,0.038320,9.911788,-0.301534,0.006217,-0.143349,1.434326,0.885010,-4.394531
8.410124,-0.290995,-0.192799,10.028546,-0.224294,-0.224903,-0.026591,0.579834,0.640869,-2.349854
8.420220,-0.320334,-0.212558,10.060280,-0.253633,-0.244662,0.005143,1.373291,0.122070,-1.007080
8.430315,-0.241897,-0.063468,9.948911,-0.175196,-0.095572,-0.106226,2.624512,-0.244141,-1.831055
8.440412,-0.253872,0.004191,10.025552,-0.187172,-0.027912,-0.029585,1.434326,-0.396729,-2.319336
8.450508,-0.329914,-0.065863,10.054891,-0.263213,-0.097967,-0.000246,0.213623,-0.030518,-2.960205
8.460604,-0.407752,-0.112566,9.958491,-0.341052,-0.144670,-0.096646,0.732422,0.335693,-3.082275
8.470700,-0.267643,-0.033530,10.047107,-0.200943,-0.065634,-0.008030,-0.579834,0.152588,-1.831055
8.480796,-0.190404,-0.102986,10.031539,-0.123704,-0.135090,-0.023598,-0.701904,-0.061035,-1.403809
8.490892,-0.274230,-0.155676,10.061477,-0.207529,-0.187780,0.006340,0.122070,0.366211,-1.037598
8.500988,-0.476010,-0.185015,10.003997,-0.409310,-0.217119,-0.051140,0.793457,0.396729,-0.976562
8.511085,-0.558040,-0.049697,9.945319,-0.491339,-0.081800,-0.109818,0.274658,0.549316,0.244141
8.521181,-0.254471,0.250878,10.002799,-0.187770,0.218775,-0.052338,1.464844,0.823975,2.655029
8.531277,-0.365839,0.265248,10.070458,-0.299139,0.233145,0.015321,-0.030518,-0.061035,2.441406
8.541374,-0.196990,0.078437,10.063872,-0.130290,0.046333,0.008735,0.061035,-0.183105,0.823975
8.551470,-0.303569,0.001796,10.105785,-0.236868,-0.030307,0.050648,0.305176,-0.610352,-0.335693
8.561565,-0.221539,0.165855,9.996812,-0.154839,0.133751,-0.058325,0.701904,-0.793457,-1.983643
8.571663,-0.190404,0.194595,9.995614,-0.123704,0.162492,-0.059523,1.220703,-0.610352,-1.983643
8.581758,-0.211360,0.134121,9.997410,-0.144660,0.102017,-0.057727,0.396729,-0.427246,-1.861572
8.591855,-0.455652,-0.096400,10.055490,-0.388952,-0.128503,0.000353,1.556396,0.274658,-2.288818
8.601950,-0.137115,-0.139510,10.044712,-0.070414,-0.171614,-0.010425,-1.129150,0.640869,0.000000
8.612046,-0.189207,-0.076042,10.014774,-0.122506,-0.108146,-0.040363,-1.525879,0.885010,0.213623
8.622142,-0.180225,-0.293989,10.023755,-0.113525,-0.326092,-0.031381,2.441406,1.525879,-0.946045
8.632237,-0.566422,0.398771,9.809401,-0.499722,0.366667,-0.245736,-1.068115,0.396729,-0.488281
8.642333,-0.360450,0.038320,10.057885,-0.293750,0.006217,0.002748,-0.854492,-0.030518,0.976562
8.652429,-0.176034,-0.076042,10.047107,-0.109333,-0.108146,-0.008030,-1.617432,-0.061035,3.387451
8.662525,-0.189207,0.150287,10.095007,-0.122506,0.118184,0.039870,0.762939,-0.366211,3.112793
8.672621,-0.274828,0.157473,10.001602,-0.208128,0.125369,-0.053535,-0.762939,-0.396729,3.356934
8.682719,-0.030536,-0.023950,10.068662,0.036164,-0.056054,0.013525,0.122070,0.671387,4.577637
8.692817,0.089813,0.027543,10.121353,0.156514,-0.004561,0.066216,-0.732422,1.525879,6.011963
8.702913,-0.432900,0.157473,10.108180,-0.366199,0.125369,0.053043,-3.692627,2.593994,6.072998
8.713003,0.056283,0.086221,10.331516,0.122984,0.054117,0.276379,-3.417969,0.488281,5.981445
8.723093,-0.101190,-0.201182,10.182426,-0.034489,-0.233285,0.127289,-0.885010,0.427246,6.835938
8.733183,-0.092208,-0.015568,10.090816,-0.025508,-0.047671,0.035679,1.342773,0.000000,5.798340
8.743272,-0.339494,0.117356,9.988429,-0.272793,0.085252,-0.066708,1.007080,-0.183105,5.218506
8.753362,-0.096998,-0.144300,10.057885,-0.030298,-0.176404,0.002748,1.464844,0.366211,4.272461
8.763450,-0.235909,0.122745,10.159673,-0.169209,0.090641,0.104536,0.854492,0.488281,3.326416
8.773540,-0.182021,0.280217,9.948312,-0.115321,0.248114,-0.106825,-2.044678,-0.518799,1.251221
8.783629,0.084424,0.222737,10.157877,0.151125,0.190633,0.102740,-1.647949,-0.427246,0.518799
8.793719,-0.172441,0.330513,9.951306,-0.105741,0.298409,-0.103831,-3.051758,-1.800537,-0.823975
8.803808,0.024549,0.089813,9.996812,0.091249,0.057709,-0.058325,-2.532959,-1.678467,-0.823975
8.813902,-0.008383,0.018561,10.089619,0.058318,-0.013542,0.034482,-0.762939,-1.403809,-1.281738
8.823999,-0.189207,-0.072449,10.103989,-0.122506,-0.104553,0.048852,-0.061035,-1.190186,-0.701904
8.834096,-0.102387,0.001198,10.111772,-0.035687,-0.030906,0.056635,-0.183105,-0.549316,-1.159668
8.844192,-0.070054,0.010179,10.060280,-0.003354,-0.021925,0.005143,-0.610352,-0.274658,-0.061035
8.854288,-0.097597,0.004790,10.009385,-0.030897,-0.027314,-0.045752,-1.220703,0.518799,0.793457
8.864386,-0.367037,-0.089214,9.939331,-0.300336,-0.121318,-0.115806,-1.678467,1.342773,1.403809
8.874480,0.126337,-0.439486,10.126143,0.193038,-0.471590,0.071006,2.410889,1.678467,1.861572
8.884577,0.282612,-0.237706,10.097402,0.349313,-0.269809,0.042265,0.701904,0.854492,2.990723
8.894674,0.012574,-0.461640,10.309362,0.079274,-0.493744,0.254225,0.823975,0.366211,0.976562
8.904769,0.096400,-0.135319,10.162068,0.163100,-0.167422,0.106931,0.762939,-0.030518,-0.549316
8.914859,-0.211959,-0.301772,10.068662,-0.145259,-0.333876,0.013525,-0.244141,0.457764,1.831055
8.924948,-0.079634,-0.386796,9.945917,-0.012934,-0.418899,-0.109220,-0.823975,0.061035,2.319336
8.935038,0.058678,-0.405956,10.186617,0.125379,-0.438060,0.131480,-0.854492,0.335693,1.007080
8.945128,-0.122146,-0.367037,9.931547,-0.055445,-0.399140,-0.123590,-0.305176,0.762939,0.640869
8.955219,0.176633,-0.446072,9.999207,0.243333,-0.478176,-0.055930,-0.030518,0.518799,0.183105
8.965309,-0.151485,-0.349074,10.121353,-0.084784,-0.381178,0.066216,-0.335693,-0.091553,-1.312256
8.975399,-0.146695,-0.307161,10.163864,-0.079994,-0.339265,0.108727,0.885010,-0.671387,-1.495361
8.985489,-0.112566,-0.213755,10.013577,-0.045865,-0.245859,-0.041560,0.244141,-0.854492,1.495361
8.995579,0.013771,-0.327519,10.034533,0.080472,-0.359623,-0.020604,-0.061035,-0.823975,3.234863
9.005669,-0.017364,-0.392184,9.983040,0.049337,-0.424288,-0.072097,1.800537,-0.213623,4.669189
9.015764,0.029339,-0.223336,9.996812,0.096040,-0.255439,-0.058325,0.732422,0.244141,5.279541
9.025861,0.172441,-0.253273,10.002799,0.239142,-0.285377,-0.052338,-0.488281,0.701904,5.035400
9.035955,0.163460,-0.187410,9.990225,0.230161,-0.219514,-0.064912,-0.061035,0.854492,6.500244
9.046050,0.119751,-0.310155,10.412347,0.186452,-0.342259,0.357210,-1.037598,1.190186,8.575439
9.056147,0.338297,-0.037123,10.248887,0.404997,-0.069227,0.193750,-0.061035,0.183105,8.758545
9.066243,0.219144,-0.022154,10.044113,0.285845,-0.054258,-0.011024,1.220703,0.152588,7.873535
9.076340,0.181423,-0.031734,10.019564,0.248123,-0.063838,-0.035573,2.166748,-0.244141,5.706787
9.086434,0.185614,-0.020956,10.069860,0.252315,-0.053060,0.014723,1.983643,-0.335693,4.821777
9.096531,0.191602,-0.047900,9.993818,0.258302,-0.080004,-0.061319,2.838135,-0.549316,2.807617
9.106627,-0.033530,0.005389,10.078841,0.033170,-0.026715,0.023704,2.380371,-0.701904,2.075195
9.116718,-0.167651,-0.082628,10.030342,-0.100951,-0.114732,-0.024795,1.007080,-1.098633,1.831055
9.126809,0.252076,-0.107177,10.100995,0.318776,-0.139281,0.045858,0.610352,-1.220703,2.868652
9.136898,0.224533,-0.092208,10.156679,0.291234,-0.124312,0.101542,0.305176,-1.037598,2.960205
9.146988,-0.060474,-0.093406,10.042916,0.006226,-0.125510,-0.012221,0.183105,-1.251221,2.563477
9.157078,0.191003,-0.064067,10.012379,0.257703,-0.096171,-0.042758,-0.518799,-1.159668,2.624512
9.167168,0.340692,-0.159868,9.982441,0.407392,-0.191971,-0.072696,-2.136230,-0.762939,1.434326
9.177258,0.091609,-0.150287,10.025552,0.158310,-0.182391,-0.029585,-1.403809,-0.213623,0.549316
9.187348,0.246687,-0.029938,9.987830,0.313388,-0.062041,-0.067307,-0.457764,0.335693,0.549316
9.197438,0.129930,-0.128732,10.032737,0.196630,-0.160836,-0.022400,0.762939,0.549316,1.556396
9.207528,0.070653,0.022753,10.060280,0.137354,-0.009351,0.005143,0.610352,0.915527,1.586914
9.217623,0.241897,0.059875,10.027348,0.308598,0.027772,-0.027789,-1.037598,1.068115,1.159668
9.227719,0.165855,-0.077239,10.106384,0.232556,-0.109343,0.051247,-2.410889,1.037598,1.007080
9.237816,0.000599,-0.025148,10.099797,0.067299,-0.057251,0.044660,-2.746582,1.098633,2.258301
9.247912,0.191602,-0.291594,10.032737,0.258302,-0.323697,-0.022400,-2.807617,1.281738,1.647949
9.258008,0.149090,-0.447270,10.164463,0.215791,-0.479374,0.109326,-3.051758,1.251221,0.671387
9.268104,0.099393,-0.031734,10.173444,0.166094,-0.063838,0.118307,-1.770020,1.159668,3.326416
9.278199,-0.117955,-0.203577,9.889634,-0.051254,-0.235680,-0.165503,0.122070,0.915527,2.319336
9.288296,-0.261656,0.020358,10.105785,-0.194955,-0.011746,0.050648,-1.770020,-0.518799,2.075195
9.298392,-0.061073,-0.106578,10.108180,0.005628,-0.138682,0.053043,-0.671387,-1.037598,1.983643
9.308488,0.099393,0.000000,9.987231,0.166094,-0.032104,-0.067906,0.122070,-1.159668,1.770020
9.318585,0.059277,0.003593,10.154284,0.125977,-0.028511,0.099147,3.204346,-0.701904,0.183105
9.328681,-0.083826,0.156874,10.047107,-0.017125,0.124770,-0.008030,1.068115,-0.885010,5.859375
9.338778,-0.037123,0.392184,10.043514,0.029578,0.360081,-0.011623,0.244141,-1.312256,8.117676
9.348875,0.037123,0.361049,10.053693,0.103823,0.328945,-0.001444,0.671387,-1.220703,6.347656
9.358972,-0.429307,0.102986,10.086026,-0.362607,0.070882,0.030889,0.183105,-0.976562,-0.244141
9.369068,-0.157473,0.147892,10.090217,-0.090772,0.115789,0.035080,0.335693,-0.701904,-0.946045
9.379165,0.004191,0.185015,10.072853,0.070892,0.152912,0.017716,0.671387,-0.213623,0.701904
9.389262,-0.035327,0.296384,10.147698,0.031374,0.264280,0.092561,1.098633,0.061035,1.678467
9.399357,-0.145497,0.114362,10.135124,-0.078797,0.082258,0.079987,0.152588,0.885010,0.366211
9.409454,-0.176633,-0.006586,10.100995,-0.109932,-0.038690,0.045858,0.152588,1.068115,-0.457764
9.419551,-0.055085,-0.005988,10.023755,0.011615,-0.038091,-0.031381,0.610352,1.403809,-0.885010
9.429648,-0.171244,0.020358,10.004595,-0.104543,-0.011746,-0.050542,1.068115,1.312256,-1.251221
9.439744,-0.146096,-0.111967,9.951306,-0.079396,-0.144071,-0.103831,0.915527,1.068115,-0.762939
9.449839,-0.003593,0.177231,10.054292,0.063108,0.145128,-0.000845,1.068115,1.342773,0.030518
9.459949,-0.094603,-0.298180,10.001003,-0.027903,-0.330284,-0.054134,-0.213623,0.671387,-0.427246
9.470047,-0.068258,-0.076042,10.039323,-0.001558,-0.108146,-0.015814,-0.823975,-0.579834,-4.730225
9.480143,-0.309556,0.050295,10.106982,-0.242856,0.018192,0.051845,-1.190186,-0.671387,-5.981445
9.490239,-0.544268,0.080233,10.068063,-0.477568,0.048129,0.012926,-1.983643,-0.946045,-5.706787
9.500335,-0.127535,0.072449,10.028546,-0.060834,0.040346,-0.026591,-0.610352,-0.488281,-4.699707
9.510431,-0.099992,0.003593,10.074051,-0.033292,-0.028511,0.018914,0.518799,-0.366211,-5.706787
9.520523,-0.493973,0.041913,10.084230,-0.427272,0.009809,0.029093,-0.427246,-1.007080,-7.965088
9.530613,-0.455054,0.004790,10.118359,-0.388353,-0.027314,0.063222,-0.427246,-1.068115,-7.873535
9.540703,-0.550854,-0.041913,10.151889,-0.484154,-0.074017,0.096752,0.427246,-0.427246,-6.774902
9.550794,-0.646655,-0.146096,10.051897,-0.579955,-0.178200,-0.003240,0.244141,-0.152588,-5.615234
9.560884,-0.592169,-0.188009,9.969868,-0.525468,-0.220113,-0.085269,-0.152588,0.152588,-4.241943
9.570975,-0.245490,-0.166454,10.084828,-0.178789,-0.198558,0.029692,-0.701904,0.213623,-0.579834
9.581065,-0.135917,-0.049098,10.070458,-0.069217,-0.081202,0.015321,-0.610352,0.335693,1.342773
9.591155,-0.018561,0.026944,9.978250,0.048139,-0.005160,-0.076887,-1.647949,0.335693,1.586914
9.601244,0.000000,0.047900,9.995614,0.066701,0.015797,-0.059523,-2.471924,0.701904,2.777100
9.611334,-0.057480,-0.064067,10.128538,0.009220,-0.096171,0.073401,-1.739502,0.732422,2.685547
9.621428,-0.018561,-0.038919,9.936936,0.048139,-0.071023,-0.118201,-1.007080,1.007080,2.471924
9.631524,0.026944,-0.231718,9.939331,0.093645,-0.263822,-0.115806,-2.044678,1.098633,1.495361
9.641620,0.079634,-0.226329,10.096205,0.146335,-0.258433,0.041068,-0.518799,0.915527,1.007080
9.651716,0.014370,-0.441881,9.978250,0.081071,-0.473985,-0.076887,-0.457764,0.701904,0.518799
9.661812,-0.108375,-0.259860,10.055490,-0.041674,-0.291963,0.000353,-1.800537,0.885010,-1.678467
9.671907,-0.079036,-0.281415,10.006990,-0.012335,-0.313519,-0.048147,-1.892090,0.183105,-2.990723
9.682003,-0.251477,-0.297581,9.986034,-0.184777,-0.329685,-0.069103,-1.556396,-0.701904,-6.195068
9.692099,-0.395178,-0.006586,9.902807,-0.328478,-0.038690,-0.152330,-0.671387,-0.671387,-8.605957
9.702195,-0.241298,-0.043110,9.957892,-0.174598,-0.075214,-0.097245,-0.396729,-1.190186,-9.704590
9.712291,-0.325723,0.003593,10.194999,-0.259022,-0.028511,0.139862,0.457764,-1.129150,-11.077881
9.722379,-0.592169,0.089813,9.960287,-0.525468,0.057709,-0.094850,1.190186,-0.671387,-11.383057
9.732468,-0.713716,0.125140,9.956096,-0.647015,0.093036,-0.099041,0.305176,0.701904,-12.054443
9.742557,-0.513732,0.128732,10.039323,-0.447031,0.096629,-0.015814,0.305176,1.007080,-11.260986
9.752646,-0.714315,-0.158071,10.100396,-0.647614,-0.190175,0.045259,1.281738,1.495361,-8.514404
9.762736,-0.667013,-0.036524,9.941127,-0.600312,-0.068628,-0.114010,2.014160,1.739502,-6.469727
9.772825,-0.441881,-0.059277,9.988429,-0.375181,-0.091380,-0.066708,4.455566,1.525879,-2.105713
9.782913,-0.534089,0.153281,10.002799,-0.467389,0.121178,-0.052338,2.197266,1.190186,-0.762939
9.793002,-0.338297,0.054487,10.189611,-0.271596,0.022383,0.134474,0.213623,0.457764,-0.854492
9.803092,-0.036524,-0.020956,10.183623,0.030176,-0.053060,0.128486,-2.136230,-0.549316,-1.861572
9.813181,0.174836,0.049697,10.371632,0.241537,0.017593,0.316495,-2.655029,-0.610352,-2.624512
9.823274,0.055085,-0.341290,10.274634,0.121786,-0.373394,0.219497,-0.640869,-1.922607,-5.310059
9.833370,-0.173040,-0.301772,10.478210,-0.106340,-0.333876,0.423073,1.129150,-1.525879,-6.378174
9.843467,-0.149689,-0.086819,10.039323,-0.082988,-0.118923,-0.015814,0.213623,-0.976562,-7.202148
9.853562,0.127535,-0.095202,10.096804,0.194235,-0.127306,0.041667,-1.037598,-0.701904,-7.141113
9.863660,0.098795,-0.127535,10.144105,0.165495,-0.159639,0.088968,-1.708984,0.396729,-6.500244
9.873757,-0.044907,-0.161065,10.184222,0.021794,-0.193169,0.129085,-2.655029,1.007080,-5.340576
9.883853,-0.032932,-0.067061,9.956096,0.033769,-0.099164,-0.099041,-2.441406,1.312256,-4.486084
9.893948,-0.250878,-0.126936,9.969269,-0.184178,-0.159040,-0.085868,-1.220703,0.610352,-2.746582
9.904044,-0.188608,-0.276026,10.081236,-0.121907,-0.308130,0.026099,-0.762939,-0.274658,-1.556396
9.914140,0.144899,-0.175435,10.088421,0.211599,-0.207539,0.033284,0.457764,-0.579834,-1.312256
9.924230,0.118553,-0.134720,10.240505,0.185254,-0.166824,0.185368,0.274658,-0.793457,-1.312256
9.934320,0.085622,-0.083227,10.023755,0.152322,-0.115331,-0.031381,0.335693,-0.305176,-0.671387
9.944410,0.192200,-0.010179,10.091415,0.258901,-0.042283,0.036278,-0.030518,0.030518,-1.068115
9.954498,0.064666,-0.080832,10.065070,0.131366,-0.112936,0.009933,-0.549316,0.396729,-2.899170
9.964587,0.070653,-0.191602,10.133926,0.137354,-0.223705,0.078789,-0.152588,0.396729,-3.997803
9.974676,0.011975,-0.252076,10.268646,0.078676,-0.284180,0.213509,-0.091553,0.244141,-3.265381
9.984766,-0.153281,-0.114362,10.078841,-0.086581,-0.146466,0.023704,1.892090,-0.061035,-1.983643
9.994854,-0.110770,-0.167053,9.987830,-0.044069,-0.199156,-0.067307,2.471924,-0.549316,-1.556396
10.004944,-0.092807,-0.087418,9.974658,-0.026106,-0.119522,-0.080479,2.349854,-1.495361,-1.739502
10.015033,0.280217,-0.010179,10.097402,0.346918,-0.042283,0.042265,1.831055,-1.800537,-1.739502
10.025132,0.123344,0.149689,10.207573,0.190044,0.117585,0.152436,0.671387,-0.762939,-1.708984
10.035229,0.064666,-0.123942,9.954899,0.131366,-0.156046,-0.100238,0.122070,-0.305176,-1.708984
10.045326,0.119152,-0.183219,10.030342,0.185853,-0.215323,-0.024795,-0.213623,-0.030518,-1.861572
10.055418,-0.010179,-0.163460,10.133926,0.056522,-0.195564,0.078789,-0.061035,0.701904,-1.098633
10.065515,-0.064666,-0.098196,9.959090,0.002035,-0.130300,-0.096047,-1.190186,0.915527,-0.518799
10.075614,0.032932,-0.076641,10.018965,0.099632,-0.108744,-0.036172,-2.746582,0.701904,0.610352
10.085721,-0.052092,-0.091609,10.091415,0.014609,-0.123713,0.036278,-3.051758,0.976562,1.068115
10.095819,-0.096998,-0.213755,10.102791,-0.030298,-0.245859,0.047654,-2.166748,0.823975,0.457764
10.105915,0.031734,-0.165855,10.142309,0.098435,-0.197959,0.087172,-0.030518,-0.396729,-0.671387
10.116012,-0.018561,-0.149090,10.094409,0.048139,-0.181194,0.039272,0.732422,-0.946045,-0.854492
10.126108,-0.051493,-0.121547,10.036928,0.015208,-0.153651,-0.018209,1.159668,-0.457764,-1.739502
10.136205,0.000000,-0.182021,9.992620,0.066701,-0.214125,-0.062517,2.349854,-0.030518,-0.885010
10.146301,0.138911,-0.340093,10.177037,0.205612,-0.372197,0.121900,2.990723,0.183105,-2.532959
10.156398,0.150886,-0.109572,9.973460,0.217587,-0.141676,-0.081677,1.708984,0.061035,-3.295898
10.166494,0.064067,0.031135,10.020163,0.130767,-0.000968,-0.034974,0.000000,0.762939,-4.394531
10.176591,0.074246,-0.014969,10.032737,0.140946,-0.047073,-0.022400,0.305176,0.671387,-3.417969
10.186688,0.430505,-0.299976,10.085427,0.497205,-0.332080,0.030290,-0.732422,0.518799,-4.699707
10.196785,0.119152,-0.061073,10.038724,0.185853,-0.093177,-0.016413,0.305176,0.793457,-5.554199
10.206880,-0.308958,-0.343685,10.223141,-0.242257,-0.375789,0.168004,1.220703,0.518799,-5.554199
10.216976,-0.353864,-0.161664,10.080038,-0.287164,-0.193768,0.024901,-1.678467,0.518799,1.251221
10.227101,0.094603,-0.282014,10.048304,0.161304,-0.314117,-0.006833,-0.854492,1.068115,3.723145
10.237205,0.154479,-0.300575,10.070458,0.221179,-0.332679,0.015321,0.671387,1.464844,1.800537
10.247302,0.165256,0.223934,9.911788,0.231957,0.191831,-0.143349,2.258301,0.488281,1.190186
10.257399,-0.307161,0.013771,10.130933,-0.240461,-0.018332,0.075796,2.502441,0.427246,0.335693
10.267496,-0.149090,-0.070054,10.110575,-0.082389,-0.102158,0.055438,0.823975,0.000000,-1.495361
10.277593,-0.156275,-0.010179,10.004595,-0.089574,-0.042283,-0.050542,1.922607,-0.518799,-2.746582
10.287689,-0.683778,0.074246,10.049502,-0.617078,0.042142,-0.005635,0.579834,-0.610352,-2.349854
10.297786,-0.717907,-0.285606,10.003997,-0.651207,-0.317710,-0.051140,0.610352,0.061035,-0.549316
10.307882,-0.349673,-0.177830,9.977053,-0.282972,-0.209934,-0.078084,1.495361,0.579834,2.166748
10.317979,-0.358654,0.241897,9.963880,-0.291954,0.209793,-0.091257,2.746582,1.281738,3.509521
10.328076,-0.188009,0.108973,9.915381,-0.121308,0.076870,-0.139756,3.143311,1.525879,4.211426
10.338172,-0.429307,0.295785,9.888437,-0.362607,0.263681,-0.166700,0.457764,-0.305176,2.227783
10.348269,-0.446671,-0.283810,9.761501,-0.379971,-0.315914,-0.293636,-1.708984,-0.488281,1.739502
10.358366,-0.254471,0.238903,9.821975,-0.187770,0.206799,-0.233162,0.854492,-0.640869,0.885010
10.368462,0.098795,0.061672,9.969868,0.165495,0.029568,-0.085269,-2.899170,-1.159668,0.671387
10.378558,0.082628,0.019160,10.059082,0.149329,-0.012944,0.003945,-1.220703,-0.091553,-1.159668
10.388654,-0.010778,-0.038320,9.890233,0.055923,-0.070424,-0.164904,-1.129150,0.244141,-1.495361
10.398751,-0.082029,0.002395,9.964479,-0.015329,-0.029709,-0.090658,-1.831055,1.159668,-2.685547
10.408847,-0.263452,-0.079634,9.915980,-0.196752,-0.111738,-0.139157,-0.915527,1.159668,-2.319336
10.418945,-0.148491,0.395777,10.106384,-0.081791,0.363673,0.051247,-3.021240,0.457764,-1.647949
10.429042,-0.536484,-0.120948,10.111772,-0.469784,-0.153052,0.056635,-4.150391,-1.159668,0.061035
10.439137,-0.268841,-0.131127,10.142908,-0.202140,-0.163231,0.087771,-3.082275,-1.068115,0.885010
10.449234,-0.148491,-0.081431,9.978849,-0.081791,-0.113534,-0.076288,-2.197266,0.061035,1.739502
10.459331,-0.578397,0.059875,9.928553,-0.511697,0.027772,-0.126584,-1.098633,0.457764,1.098633
10.469427,-0.208965,-0.094603,10.125544,-0.142265,-0.126707,0.070407,2.716064,0.335693,1.586914
10.479561,-0.374222,-0.002395,9.973460,-0.307521,-0.034499,-0.081677,1.556396,0.305176,2.166748
10.489657,-0.284409,0.093406,10.030342,-0.217708,0.061302,-0.024795,1.129150,0.274658,3.356934
10.499753,0.001198,-0.111967,9.875863,0.067898,-0.144071,-0.179274,2.349854,0.213623,2.014160
10.509850,-0.052690,0.066462,9.872869,0.014010,0.034358,-0.182268,1.861572,-0.335693,0.793457
10.519947,-0.072449,-0.128732,10.086026,-0.005749,-0.160836,0.030889,1.525879,-0.701904,0.671387
10.530043,0.134121,-0.026345,9.944720,0.200822,-0.058449,-0.110417,1.495361,-0.061035,1.403809
10.540139,0.053888,-0.144899,10.046508,0.120588,-0.177002,-0.008629,0.335693,0.701904,0.946045
10.550236,-0.538281,-0.073048,9.847123,-0.471580,-0.105152,-0.208014,0.610352,0.976562,1.495361
10.560334,-0.070054,-0.146096,10.069261,-0.003354,-0.178200,0.014124,-0.213623,0.946045,3.662109
10.570431,-0.237107,-0.365839,10.075248,-0.170406,-0.397943,0.020111,-0.793457,-0.244141,5.706787
10.580528,-0.135917,0.063468,10.020163,-0.069217,0.031364,-0.034974,5.920410,0.579834,4.699707
10.590625,0.043709,0.028141,9.901011,0.110410,-0.003962,-0.154126,1.312256,0.122070,5.126953
10.600722,-0.055085,0.031135,10.156080,0.011615,-0.000968,0.100943,0.549316,0.091553,5.279541
10.610818,-0.218546,-0.257465,10.169852,-0.151845,-0.289568,0.114715,-2.563477,-0.335693,4.791260
10.620915,-0.079036,-0.243094,10.069860,-0.012335,-0.275198,0.014723,-0.701904,-0.640869,4.516602
10.631011,0.025148,0.329914,10.157877,0.091848,0.297810,0.102740,2.441406,-0.640869,4.425049
10.641108,-0.549657,-0.051493,9.923763,-0.482956,-0.083597,-0.131374,-0.854492,0.091553,6.286621
10.651205,-0.560435,0.092208,9.963281,-0.493734,0.060105,-0.091856,-0.762939,0.457764,6.591797
10.661299,-0.477208,-0.249681,10.118958,-0.410507,-0.281785,0.063821,-4.211426,0.915527,10.253906
10.671395,-0.435894,-0.355660,10.063872,-0.369193,-0.387764,0.008735,-2.410889,0.701904,8.270264
10.681491,-0.384999,-0.372426,10.320738,-0.318299,-0.404529,0.265601,-1.922607,0.274658,7.598877
10.691586,-0.535287,-0.077239,10.148895,-0.468586,-0.109343,0.093758,-0.518799,0.091553,7.598877
10.701683,-0.359852,-0.573607,10.012978,-0.293151,-0.605711,-0.042159,-1.525879,0.610352,7.385254
10.711778,-0.295186,-0.155078,9.965676,-0.228486,-0.187181,-0.089461,0.335693,1.159668,6.958008
10.721874,-0.455054,-0.123942,9.931547,-0.388353,-0.156046,-0.123590,0.183105,0.671387,6.164551
10.731970,-0.405956,-0.038320,10.039323,-0.339255,-0.070424,-0.015814,0.183105,0.579834,3.784180
10.742066,-0.389191,0.043110,10.143506,-0.322490,0.011007,0.088369,-0.213623,0.732422,3.051758
10.752162,-0.390388,0.104183,9.903406,-0.323688,0.072080,-0.151731,1.403809,0.854492,3.875732
10.762259,-0.396974,0.050894,10.006392,-0.330274,0.018790,-0.048745,1.129150,0.823975,3.326416
10.772355,-0.370629,0.068258,10.047107,-0.303929,0.036154,-0.008030,0.793457,0.610352,0.213623
10.782451,-0.317340,0.237107,9.903406,-0.250640,0.205003,-0.151731,3.753662,1.464844,0.518799
10.792547,-0.465233,0.207169,10.407557,-0.398532,0.175065,0.352420,1.312256,0.579834,2.990723
10.802643,-0.137115,-0.344883,10.276430,-0.070414,-0.376987,0.221293,0.701904,0.244141,-0.305176
10.812736,-0.432900,-0.168250,10.095606,-0.366199,-0.200354,0.040469,0.946045,-0.030518,-2.716064
10.822832,-0.477208,-0.188009,9.895023,-0.410507,-0.220113,-0.160114,0.335693,0.152588,-3.570557
10.832928,-0.313149,0.135917,10.066267,-0.246448,0.103814,0.011130,5.096436,1.251221,-1.800537
10.843024,-0.067061,-0.061073,9.948312,-0.000360,-0.093177,-0.106825,-3.875732,-0.457764,1.220703
10.853120,-0.067061,-0.416733,10.373428,-0.000360,-0.448837,0.318291,-5.187988,-1.342773,-0.274658
10.863217,-0.277822,-0.480201,10.232721,-0.211122,-0.512305,0.177584,-3.295898,-1.159668,-1.556396
10.873313,-0.040117,0.322130,9.916578,0.026584,0.290026,-0.138559,0.915527,-0.915527,1.403809
10.883409,-0.259261,-0.204175,9.954899,-0.192560,-0.236279,-0.100238,-1.678467,-1.525879,2.197266
10.893506,-0.204774,0.188009,10.159074,-0.138074,0.155905,0.103937,-1.159668,-1.800537,-0.061035
10.903602,0.132325,0.177231,10.099797,0.199025,0.145128,0.044660,-0.946045,-1.647949,0.823975
10.913698,0.285007,-0.027543,10.174642,0.351708,-0.059646,0.119505,1.831055,-1.922607,-0.885010
10.923794,0.192799,0.078437,10.230925,0.259500,0.046333,0.175788,0.274658,-1.464844,-2.502441
10.933890,-0.279020,0.028141,10.137519,-0.212319,-0.003962,0.082382,-0.305176,-1.220703,-1.647949
10.943986,-0.112566,0.129331,10.038126,-0.045865,0.097227,-0.017011,0.244141,-1.037598,1.953125
10.954082,0.168250,0.015568,10.103390,0.234951,-0.016536,0.048253,0.671387,-0.152588,5.584717
10.964178,0.291594,0.126337,9.923763,0.358294,0.094234,-0.131374,0.305176,0.427246,5.249023
10.974275,0.105381,0.008981,10.096804,0.172081,-0.023122,0.041667,0.213623,0.274658,3.845215
10.984370,0.044308,-0.124541,10.047107,0.111008,-0.156645,-0.008030,-0.976562,-0.183105,3.326416
10.994466,0.161065,-0.065264,9.930350,0.227766,-0.097368,-0.124787,-1.159668,-0.061035,4.821777
11.004579,0.331710,-0.111967,10.008787,0.398411,-0.144071,-0.046350,-0.488281,0.366211,5.187988
11.014677,0.061672,-0.169448,10.034533,0.128372,-0.201551,-0.020604,-1.739502,0.305176,5.706787
11.024767,0.051493,-0.373623,10.281220,0.118193,-0.405727,0.226083,-2.960205,-0.152588,6.164551
11.034877,0.265847,-0.281415,10.120155,0.332548,-0.313519,0.065018,-0.640869,-0.122070,6.561279
11.044968,0.256866,-0.295186,10.144704,0.323566,-0.327290,0.089567,0.976562,0.244141,5.462646
11.055063,0.290995,-0.187410,10.181228,0.357695,-0.219514,0.126091,0.518799,0.396729,3.448486
11.065159,0.645458,-0.382006,10.067465,0.712158,-0.414109,0.012328,-0.030518,-0.061035,-0.061035
11.075257,0.383203,-0.295186,10.139315,0.449904,-0.327290,0.084178,2.288818,0.244141,-5.493164
11.085352,-0.242496,-0.295186,10.102192,-0.175795,-0.327290,0.047055,0.488281,0.091553,-5.737305
11.095448,-0.035925,-0.244292,10.023157,0.030775,-0.276396,-0.031980,0.885010,-0.061035,-5.859375
11.105544,0.063468,-0.041913,10.129735,0.130169,-0.074017,0.074598,0.579834,-0.305176,-6.195068
11.115642,0.058678,0.034129,9.957892,0.125379,0.002025,-0.097245,0.000000,-0.396729,-8.422852
11.125738,0.143102,-0.194595,10.121951,0.209803,-0.226699,0.066814,0.823975,-0.701904,-14.587402
11.135829,-0.158670,0.103585,10.005194,-0.091969,0.071481,-0.049943,2.471924,-0.244141,-16.876221
11.145994,-0.216151,-0.003593,9.933942,-0.149450,-0.035696,-0.121195,0.335693,-0.549316,-20.599365
11.156085,-0.118553,-0.083826,10.208172,-0.051853,-0.115929,0.153035,-0.122070,-0.854492,-21.087646
11.166175,-0.376018,-0.150287,10.247690,-0.309318,-0.182391,0.192553,0.061035,-0.457764,-21.392822
11.176263,-0.540077,-0.280217,10.015373,-0.473376,-0.312321,-0.039764,-0.671387,-0.122070,-21.575928
11.186353,-0.334105,-0.311951,9.941127,-0.267405,-0.344055,-0.114010,-0.396729,0.091553,-20.996094
11.196443,-0.323926,-0.004790,10.029743,-0.257226,-0.036894,-0.025394,0.885010,0.488281,-21.240234
11.206532,-0.467029,-0.072449,10.167457,-0.400328,-0.104553,0.112320,0.701904,0.457764,-19.897461
11.216621,-0.471819,-0.281415,10.059681,-0.405118,-0.313519,0.004544,0.671387,0.732422,-18.493652
11.226710,-0.241897,-0.255668,10.308763,-0.175196,-0.287772,0.253626,-0.152588,0.274658,-17.578125
11.236804,-0.392783,-0.196990,10.036329,-0.326083,-0.229094,-0.018808,-0.732422,-0.091553,-14.343262
11.246899,-0.205373,0.208367,9.826166,-0.138672,0.176263,-0.228971,-1.922607,-0.030518,-13.671875
11.257181,-0.229922,-0.130529,9.832154,-0.163221,-0.162632,-0.222983,-3.784180,-0.762939,-12.908936
11.267280,-0.447869,-0.047302,9.965078,-0.381168,-0.079405,-0.090059,-2.502441,-1.007080,-12.939453
11.277378,-0.474214,-0.231718,10.089020,-0.407513,-0.263822,0.033883,-1.342773,-1.586914,-10.314941
11.287474,-0.398172,-0.183219,10.100995,-0.331471,-0.215323,0.045858,1.129150,-2.197266,-6.561279
11.297571,-0.434097,-0.255668,10.083032,-0.367397,-0.287772,0.027895,-0.305176,-2.380371,-4.638672
11.307668,-0.337698,-0.107776,10.044113,-0.270997,-0.139880,-0.011024,0.366211,-0.976562,-0.396729
11.317765,-0.152084,-0.156874,9.969868,-0.085383,-0.188978,-0.085269,-0.823975,-0.579834,1.251221
11.327860,-0.258662,-0.116158,10.010583,-0.191962,-0.148262,-0.044554,-0.915527,-0.305176,1.708984
11.337950,-0.122745,-0.381407,10.148895,-0.056044,-0.413511,0.093758,1.983643,0.915527,3.845215
11.348040,-0.023950,0.096998,10.001003,0.042750,0.064895,-0.054134,2.075195,1.464844,3.967285
11.358130,-0.495170,0.092807,9.874067,-0.428470,0.060703,-0.181070,1.983643,1.617432,6.256104
11.368220,-0.444875,0.201780,9.811796,-0.378174,0.169677,-0.243341,1.586914,1.281738,8.300781
11.378310,-0.312550,0.117955,9.898017,-0.245850,0.085851,-0.157120,0.152588,0.610352,10.894775
11.388400,-0.132325,0.220342,10.039922,-0.065624,0.188238,-0.015215,-0.244141,0.793457,12.329102
11.398489,-0.061073,0.102986,10.051298,0.005628,0.070882,-0.003839,-0.305176,0.701904,12.603760
11.408579,-0.330513,0.634081,9.851913,-0.263812,0.601978,-0.203224,0.305176,0.640869,9.948730
11.418669,-0.051493,-0.028141,10.083032,0.015208,-0.060245,0.027895,-1.251221,0.274658,10.772705
11.428757,0.240699,-0.167053,10.253079,0.307400,-0.199156,0.197942,-0.488281,-0.030518,3.662109
11.438849,-0.310155,0.823887,9.818981,-0.243454,0.791783,-0.236156,1.922607,0.915527,3.417969
11.448944,-0.432301,0.077838,10.117760,-0.365600,0.045734,0.062623,1.220703,0.518799,8.178711
11.459041,-0.431702,0.153880,9.795630,-0.365002,0.121776,-0.259507,2.990723,0.946045,9.399414
11.469137,-0.267643,0.138312,9.827963,-0.200943,0.106209,-0.227174,0.183105,0.152588,13.031006
11.479234,0.207169,-0.356858,9.795630,0.273870,-0.388962,-0.259507,0.885010,-0.518799,8.422852
11.489331,0.170645,-0.129930,9.935739,0.237346,-0.162034,-0.119398,0.701904,-1.129150,5.035400
11.499426,0.089214,-0.043709,10.127939,0.155915,-0.075813,0.072802,-0.091553,-1.007080,3.875732
11.509522,-0.122146,0.134720,10.080637,-0.055445,0.102616,0.025500,0.946045,-0.122070,5.126953
11.519619,0.016166,-0.068857,10.025552,0.082867,-0.100961,-0.029585,0.091553,0.854492,8.148193
11.529715,-0.149090,0.174238,10.071057,-0.082389,0.142134,0.015920,0.823975,1.037598,8.331299
11.539812,0.004191,0.135319,9.936936,0.070892,0.103215,-0.118201,-1.007080,1.098633,9.887695
11.549906,0.426912,-0.043709,10.059082,0.493613,-0.075813,0.003945,-1.739502,1.037598,8.575439
11.559999,0.045505,0.252675,10.021959,0.112206,0.220571,-0.033178,0.762939,1.312256,4.211426
11.570094,-0.101190,0.265248,9.905801,-0.034489,0.233145,-0.149336,-2.471924,1.464844,3.540039
11.580190,-0.141905,0.493973,9.705817,-0.075204,0.461869,-0.349320,-0.701904,1.739502,3.723145
11.590286,0.486189,-0.577200,10.187814,0.552890,-0.609303,0.132677,1.647949,1.770020,4.272461
11.600384,-0.177830,0.232916,10.338701,-0.111130,0.200812,0.283564,2.960205,1.312256,2.593994
11.610479,-0.165855,0.365240,10.032138,-0.099155,0.333137,-0.022999,1.159668,1.281738,8.758545
11.620574,0.079634,0.093406,9.865684,0.146335,0.061302,-0.189453,0.610352,1.312256,9.796143
11.630670,-0.053289,0.143102,10.071656,0.013411,0.110999,0.016519,-1.312256,0.671387,10.040283
11.640766,0.206570,-0.038919,10.074051,0.273271,-0.071023,0.018914,-2.593994,-0.152588,10.559082
11.650863,0.440684,0.186812,9.804611,0.507384,0.154708,-0.250526,-1.403809,-0.366211,6.805420
11.660959,0.117356,0.028141,10.047107,0.184057,-0.003962,-0.008030,-1.342773,-1.800537,0.579834
11.671054,-0.156874,-0.038919,10.262659,-0.090173,-0.071023,0.207522,-1.037598,-2.441406,-0.457764
11.681151,-0.099393,-0.311353,10.156679,-0.032693,-0.343456,0.101542,1.739502,-0.946045,4.180908
11.691248,0.225132,-0.219743,10.112371,0.291832,-0.251847,0.057234,-0.305176,-0.335693,5.004883
11.701344,-0.113763,-0.026345,10.050699,-0.047063,-0.058449,-0.004438,-1.525879,1.525879,5.432129
11.711441,-0.361648,-0.129331,10.071656,-0.294947,-0.161435,0.016519,-2.441406,2.349854,7.690430
11.721538,-0.498763,-0.304167,10.021360,-0.432062,-0.336271,-0.033777,0.152588,2.716064,9.033203
11.731634,-0.338895,-0.001198,9.754316,-0.272195,-0.033301,-0.300821,3.051758,2.044678,11.505127
11.741730,0.275427,-0.340093,9.671089,0.342128,-0.372197,-0.384048,1.098633,1.251221,10.986328
11.751826,-0.029339,-0.104183,10.113569,0.037362,-0.136287,0.058432,0.305176,0.152588,7.751465
11.761922,0.081431,-0.141306,10.069261,0.148131,-0.173410,0.014124,0.640869,-0.335693,7.354736
11.772018,-0.165256,-0.111967,10.143506,-0.098556,-0.144071,0.088369,0.122070,0.213623,7.049561
11.782114,0.030536,-0.069456,9.984238,0.097237,-0.101559,-0.070899,0.640869,1.190186,7.110596
11.792210,-0.210762,-0.020956,10.009385,-0.144061,-0.053060,-0.045752,0.213623,1.373291,6.683350
11.802306,0.286804,0.067061,10.128538,0.353504,0.034957,0.073401,-1.495361,1.922607,7.965088
11.812403,0.232317,-0.010778,10.308164,0.299017,-0.042881,0.253027,-1.342773,0.946045,7.080078
11.822498,0.231718,-0.268242,10.132729,0.298419,-0.300346,0.077592,-1.129150,0.213623,5.218506
11.832650,0.280816,0.034129,10.108779,0.347517,0.002025,0.053642,-1.190186,-0.030518,4.455566
11.842756,0.292791,-0.117955,10.044113,0.359492,-0.150058,-0.011024,-0.305176,0.305176,1.739502
11.852890,0.137714,-0.123942,10.079440,0.204414,-0.156046,0.024303,0.000000,0.183105,1.586914
11.862991,0.273032,-0.173040,10.106384,0.339733,-0.205144,0.051247,0.701904,-0.335693,1.800537
11.875179,0.340093,-0.426313,9.999207,0.406793,-0.458417,-0.055930,1.525879,-0.457764,2.105713
11.885320,0.458047,-0.493374,10.071057,0.524748,-0.525478,0.015920,2.716064,-0.030518,1.800537
11.895455,0.149689,-0.430505,9.995614,0.216389,-0.462609,-0.059523,2.136230,0.030518,1.373291
11.905570,0.196392,-0.503553,10.003997,0.263092,-0.535657,-0.051140,0.213623,-0.183105,0.671387
11.915683,0.246687,-0.519120,10.006392,0.313388,-0.551224,-0.048745,-0.366211,-0.030518,0.640869
11.925803,0.356858,-0.577798,10.072255,0.423558,-0.609902,0.017118,0.000000,0.152588,0.335693
11.935912,0.061672,-0.432301,10.039922,0.128372,-0.464405,-0.015215,-0.488281,-0.183105,-1.434326
11.946008,0.199385,-0.349074,10.117161,0.266086,-0.381178,0.062024,-0.946045,-0.274658,-1.373291
11.956097,0.223934,-0.329914,10.424921,0.290635,-0.362018,0.369784,-3.723145,-1.525879,-0.976562
11.966197,0.186213,-0.347278,10.156679,0.252913,-0.379382,0.101542,-2.502441,-1.525879,-1.708984
11.976394,-0.077239,-0.355660,10.105785,-0.010539,-0.387764,0.050648,-2.166748,-1.037598,-2.258301
11.986496,-0.076641,-0.250280,10.006990,-0.009940,-0.282383,-0.048147,-0.579834,-0.518799,-2.868652
11.996574,0.011376,-0.283810,10.047706,0.078077,-0.315914,-0.007431,-1.495361,-0.701904,-2.532959
12.006646,-0.288001,-0.249082,10.009385,-0.221301,-0.281186,-0.045752,-1.739502,-0.244141,-4.058838
12.016721,-0.201780,-0.173040,10.066866,-0.135080,-0.205144,0.011729,-1.312256,-0.061035,-4.608154
12.026798,-0.434696,-0.059875,10.124346,-0.367995,-0.091979,0.069209,-2.014160,-0.183105,-5.096436
12.036946,-0.204774,0.016765,10.238110,-0.138074,-0.015339,0.182973,-2.410889,-0.091553,-5.065918
12.047027,-0.208965,-0.174836,10.373428,-0.142265,-0.206940,0.318291,-0.885010,-0.335693,-8.666992
12.057110,-0.571212,-0.010179,10.056687,-0.504512,-0.042283,0.001550,1.037598,-0.488281,-11.047363
12.067192,-0.407752,-0.028141,10.180031,-0.341052,-0.060245,0.124894,1.922607,-0.549316,-13.214111
12.077274,-0.716111,-0.034728,9.972263,-0.649410,-0.066832,-0.082874,3.326416,-0.701904,-16.693115
12.087354,-0.719703,0.153281,9.992620,-0.653003,0.121178,-0.062517,4.425049,-0.610352,-15.747070
12.097436,-0.572410,-0.008383,10.090217,-0.505709,-0.040486,0.035080,2.685547,-1.037598,-14.465332
12.107517,-0.768801,0.170645,9.991423,-0.702101,0.138541,-0.063714,1.251221,-0.976562,-12.237549
12.117603,-0.561632,0.016765,10.087822,-0.494932,-0.015339,0.032685,0.488281,0.274658,-10.528564
12.127687,-0.112566,0.457449,10.379416,-0.045865,0.425345,0.324279,-0.518799,0.549316,-7.720947
12.137850,0.077838,-0.087418,10.175839,0.144539,-0.119522,0.120702,-3.540039,0.305176,-5.249023
12.147947,-0.026944,0.003593,10.105785,0.039757,-0.028511,0.050648,-2.807617,0.701904,-4.852295
12.158044,0.028141,-0.040715,10.001602,0.094842,-0.072819,-0.053535,-1.190186,1.129150,-0.976562
12.168140,0.461640,-0.577798,10.283615,0.528341,-0.609902,0.228478,-0.762939,-0.122070,3.875732
12.178238,0.507145,-0.567021,10.132729,0.573846,-0.599125,0.077592,0.976562,-0.915527,4.730225
12.188335,0.483794,-0.379611,10.175839,0.550494,-0.411714,0.120702,0.946045,-1.281738,6.622314
12.198429,0.280816,-0.246687,10.058483,0.347517,-0.278791,0.003346,2.014160,-1.129150,6.561279
12.208526,0.384999,-0.193398,10.077045,0.451700,-0.225502,0.021908,1.098633,-1.007080,3.631592
12.218620,0.065264,-0.289797,9.902208,0.131965,-0.321901,-0.152929,1.098633,-0.793457,1.098633
12.228717,0.030536,-0.167053,9.982441,0.097237,-0.199156,-0.072696,0.244141,-0.793457,-2.593994
12.238927,-0.334704,-0.055684,10.186018,-0.268003,-0.087788,0.130881,-0.030518,-1.098633,-8.758545
12.249020,-0.332908,-0.099393,10.209968,-0.266207,-0.131497,0.154831,-0.122070,-0.976562,-9.399414
12.259112,-0.567021,0.042512,10.048304,-0.500320,0.010408,-0.006833,1.129150,-0.640869,-10.864258
12.269202,-0.788560,0.051493,9.901011,-0.721860,0.019389,-0.154126,1.037598,0.061035,-10.681152
12.279299,-0.699346,-0.131726,9.996812,-0.632645,-0.163830,-0.058325,1.403809,0.488281,-7.568359
12.289403,-0.438887,-0.031135,10.066866,-0.372187,-0.063239,0.011729,0.579834,0.274658,-5.004883
12.299496,-0.505948,0.002395,10.098001,-0.439247,-0.029709,0.042864,0.946045,-0.091553,-4.455566
12.309587,-0.637075,-0.054487,9.947714,-0.570375,-0.086590,-0.107423,0.183105,-0.061035,-4.760742
12.319677,-0.690364,0.186213,10.151290,-0.623664,0.154109,0.096153,0.152588,-0.183105,-3.387451
12.329767,-0.272433,-0.164059,10.093810,-0.205733,-0.196163,0.038673,-2.044678,0.579834,2.227783
12.339895,-0.400567,-0.061672,10.123149,-0.333866,-0.093775,0.068012,-1.312256,0.915527,2.288818
12.349985,-0.546663,0.054487,10.167457,-0.479963,0.022383,0.112320,-2.655029,0.671387,5.157471
12.360076,-0.332309,-0.228724,9.850715,-0.265608,-0.260828,-0.204422,-1.708984,0.610352,6.011963
12.370166,-0.255070,-0.108375,10.075248,-0.188369,-0.140478,0.020111,-1.525879,0.274658,5.676270
12.380258,-0.194595,-0.118553,10.233320,-0.127895,-0.150657,0.178183,0.976562,0.335693,3.784180
12.390352,0.031135,0.219743,10.282418,0.097836,0.187639,0.227281,3.204346,0.549316,2.136230
12.400446,0.124541,0.126936,9.886641,0.191242,0.094832,-0.168496,1.892090,-0.732422,-2.471924
12.410537,-0.264051,-0.047302,10.064471,-0.197350,-0.079405,0.009334,1.647949,-0.640869,-5.096436
12.420629,0.037123,-0.150287,9.940529,0.103823,-0.182391,-0.114608,1.861572,-1.220703,-4.730225
12.430722,0.026944,-0.326920,9.960886,0.093645,-0.359024,-0.094251,0.823975,-1.159668,-2.624512
12.440851,-0.170645,-0.280816,10.096804,-0.103945,-0.312920,0.041667,1.220703,-0.946045,3.570557
12.450941,0.059277,-0.162861,10.066866,0.125977,-0.194965,0.011729,0.610352,-0.610352,6.805420
12.461032,0.211360,-0.154479,9.965676,0.278061,-0.186582,-0.089461,-0.122070,-0.946045,9.307861
12.471122,0.245490,-0.065264,10.045311,0.312190,-0.097368,-0.009826,0.640869,-0.335693,12.695312
12.481215,0.231718,-0.234712,10.071057,0.298419,-0.266816,0.015920,0.579834,-0.488281,12.756348
12.491307,0.298180,-0.068857,10.094409,0.364880,-0.100961,0.039272,0.610352,-1.129150,10.253906
12.501396,0.402962,-0.217348,10.001602,0.469663,-0.249452,-0.053535,0.457764,-1.220703,8.605957
12.511488,0.229323,-0.076042,9.903406,0.296024,-0.108146,-0.151731,0.366211,-0.122070,5.981445
12.521579,0.414937,0.004790,10.092014,0.481638,-0.027314,0.036877,-2.227783,-0.183105,4.211426
12.531669,0.272433,0.128134,10.055490,0.339134,0.096030,0.000353,-1.037598,0.152588,1.617432
12.541792,0.519719,-0.030536,9.958491,0.586420,-0.062640,-0.096646,0.610352,0.396729,-5.554199
12.551883,0.483794,0.511337,9.876462,0.550494,0.479233,-0.178675,2.838135,0.396729,-10.131836
12.561973,0.629890,0.492177,10.044113,0.696591,0.460073,-0.011024,1.525879,-0.518799,-19.409180
12.572063,0.500559,0.256866,10.093810,0.567260,0.224762,0.038673,1.556396,-1.373291,-23.895264
12.582154,0.541873,0.116757,10.217153,0.608574,0.084653,0.162016,0.885010,-2.471924,-30.456543
