time,ax_raw,ay_raw,az_raw,ax,ay,az,gx,gy,gz
0.001027,-0.068258,0.026345,10.053094,0.002289,-0.007300,-0.002858,0.000000,0.000000,-0.061035
0.011127,-0.066462,0.027543,10.060878,0.004086,-0.006103,0.004926,0.030518,0.000000,-0.030518
0.021227,-0.070653,0.029339,10.059681,-0.000106,-0.004307,0.003729,-0.030518,-0.030518,-0.030518
0.031322,-0.068258,0.031135,10.063273,0.002289,-0.002510,0.007321,0.000000,0.000000,-0.030518
0.041417,-0.065863,0.031734,10.054891,0.004685,-0.001912,-0.001061,0.000000,-0.030518,0.000000
0.051511,-0.073647,0.031135,10.053693,-0.003099,-0.002510,-0.002259,0.000000,-0.030518,-0.030518
0.061708,-0.068857,0.034728,10.051897,0.001691,0.001082,-0.004055,0.000000,0.000000,-0.061035
0.071797,-0.070054,0.035327,10.055490,0.000493,0.001681,-0.000463,0.000000,0.000000,-0.061035
0.081888,-0.074844,0.032932,10.057885,-0.004297,-0.000714,0.001932,-0.030518,0.000000,-0.061035
0.091975,-0.069456,0.035925,10.057286,0.001092,0.002280,0.001334,-0.061035,0.000000,-0.030518
0.102066,-0.070054,0.039518,10.058483,0.000493,0.005872,0.002531,-0.061035,0.000000,0.030518
0.112153,-0.068258,0.034129,10.063273,0.002289,0.000483,0.007321,-0.030518,0.030518,0.030518
0.122241,-0.071252,0.033530,10.069860,-0.000704,-0.000115,0.013908,-0.061035,0.030518,0.030518
0.132329,-0.074246,0.036524,10.068662,-0.003698,0.002879,0.012710,-0.030518,0.061035,-0.030518
0.142418,-0.080233,0.036524,10.068662,-0.009686,0.002879,0.012710,-0.030518,0.061035,0.000000
0.152507,-0.076042,0.036524,10.068662,-0.005494,0.002879,0.012710,0.000000,0.030518,-0.030518
0.162671,-0.071851,0.041314,10.069261,-0.001303,0.007669,0.013309,0.030518,0.000000,0.000000
0.172767,-0.078437,0.035925,10.074650,-0.007889,0.002280,0.018698,0.000000,0.000000,0.030518
0.182864,-0.075443,0.035925,10.065070,-0.004896,0.002280,0.009118,-0.030518,-0.030518,0.000000
0.192962,-0.073048,0.041314,10.068063,-0.002501,0.007669,0.012111,-0.030518,0.000000,0.000000
0.203059,-0.074246,0.043709,10.065070,-0.003698,0.010064,0.009118,-0.030518,0.030518,-0.030518
0.213156,-0.068258,0.040715,10.063273,0.002289,0.007070,0.007321,-0.030518,0.030518,-0.061035
0.223253,-0.064666,0.038320,10.049502,0.005882,0.004675,-0.006450,-0.030518,0.000000,-0.030518
0.233348,-0.068857,0.038919,10.046508,0.001691,0.005274,-0.009444,0.000000,0.000000,-0.061035
0.243445,-0.067061,0.032333,10.044712,0.003487,-0.001313,-0.011240,0.000000,0.000000,-0.061035
0.253543,-0.067061,0.035925,10.048304,0.003487,0.002280,-0.007648,-0.030518,-0.030518,-0.061035
0.263666,-0.068258,0.033530,10.044712,0.002289,-0.000115,-0.011240,-0.061035,-0.030518,-0.030518
0.273763,-0.063468,0.038320,10.052496,0.007080,0.004675,-0.003456,-0.091553,0.000000,0.000000
0.283861,-0.063468,0.031734,10.054292,0.007080,-0.001912,-0.001660,-0.061035,0.000000,0.000000
0.293958,-0.068857,0.028141,10.057885,0.001691,-0.005504,0.001932,-0.030518,0.000000,0.000000
0.304055,-0.068857,0.030536,10.048903,0.001691,-0.003109,-0.007049,0.000000,0.030518,0.030518
0.314151,-0.068258,0.021555,10.057885,0.002289,-0.012090,0.001932,0.030518,0.061035,0.000000
0.324248,-0.074844,0.024549,10.064471,-0.004297,-0.009097,0.008519,0.030518,0.061035,0.000000
0.334345,-0.076641,0.021555,10.060280,-0.006093,-0.012090,0.004328,-0.030518,0.030518,0.000000
0.344443,-0.077838,0.033530,10.059082,-0.007291,-0.000115,0.003130,-0.030518,0.030518,-0.061035
0.354540,-0.076042,0.033530,10.056687,-0.005494,-0.000115,0.000735,-0.061035,0.030518,-0.030518
0.364665,-0.074246,0.031135,10.062675,-0.003698,-0.002510,0.006723,-0.061035,0.061035,-0.030518
0.374762,-0.073647,0.030536,10.062675,-0.003099,-0.003109,0.006723,-0.061035,0.030518,-0.061035
0.384859,-0.069456,0.036524,10.063273,0.001092,0.002879,0.007321,-0.030518,0.030518,-0.061035
0.394957,-0.069456,0.036524,10.065668,0.001092,0.002879,0.009716,-0.030518,0.030518,-0.030518
0.405056,-0.067061,0.038919,10.056088,0.003487,0.005274,0.000136,-0.061035,0.091553,0.000000
0.415153,-0.070653,0.034728,10.063273,-0.000106,0.001082,0.007321,-0.061035,0.091553,0.000000
0.425250,-0.065264,0.035327,10.065070,0.005283,0.001681,0.009118,-0.061035,0.061035,0.000000
0.435348,-0.070054,0.038320,10.059082,0.000493,0.004675,0.003130,-0.061035,0.030518,0.030518
0.445446,-0.066462,0.040117,10.060878,0.004086,0.006471,0.004926,-0.030518,0.030518,-0.030518
0.455543,-0.062869,0.041314,10.054891,0.007678,0.007669,-0.001061,-0.061035,0.030518,-0.030518
0.465665,-0.062271,0.040117,10.057885,0.008277,0.006471,0.001932,-0.030518,0.030518,-0.030518
0.475762,-0.060474,0.041314,10.057286,0.010073,0.007669,0.001334,-0.030518,0.030518,-0.030518
0.485859,-0.071851,0.035327,10.049502,-0.001303,0.001681,-0.006450,-0.030518,0.030518,-0.030518
0.495955,-0.074844,0.035925,10.053693,-0.004297,0.002280,-0.002259,-0.061035,0.000000,-0.030518
0.506052,-0.066462,0.037722,10.047706,0.004086,0.004076,-0.008246,-0.061035,-0.030518,-0.061035
0.516151,-0.073048,0.036524,10.047107,-0.002501,0.002879,-0.008845,-0.061035,-0.061035,-0.061035
0.526249,-0.068857,0.038919,10.050699,0.001691,0.005274,-0.005253,-0.030518,-0.030518,-0.061035
0.536345,-0.071252,0.036524,10.050101,-0.000704,0.002879,-0.005851,-0.061035,-0.061035,-0.030518
0.546443,-0.065863,0.034728,10.049502,0.004685,0.001082,-0.006450,-0.030518,-0.030518,-0.030518
0.556540,-0.069456,0.036524,10.050101,0.001092,0.002879,-0.005851,0.000000,0.000000,0.000000
0.566667,-0.067061,0.034129,10.056088,0.003487,0.000483,0.000136,0.000000,-0.030518,0.000000
0.576764,-0.070653,0.039518,10.052496,-0.000106,0.005872,-0.003456,0.000000,-0.030518,0.000000
0.586861,-0.061073,0.041314,10.050699,0.009475,0.007669,-0.005253,-0.030518,0.000000,0.000000
0.596956,-0.061073,0.035327,10.048903,0.009475,0.001681,-0.007049,-0.061035,0.000000,-0.030518
0.607054,-0.058079,0.036524,10.050101,0.012468,0.002879,-0.005851,-0.061035,-0.030518,-0.030518
0.617152,-0.065264,0.034129,10.050699,0.005283,0.000483,-0.005253,-0.061035,-0.061035,-0.030518
0.627249,-0.065264,0.035327,10.051298,0.005283,0.001681,-0.004654,-0.061035,-0.030518,-0.061035
0.637347,-0.068258,0.034728,10.051298,0.002289,0.001082,-0.004654,-0.091553,-0.061035,-0.030518
0.647444,-0.068857,0.032333,10.052496,0.001691,-0.001313,-0.003456,-0.061035,-0.030518,0.000000
0.657541,-0.069456,0.031734,10.048903,0.001092,-0.001912,-0.007049,-0.030518,-0.030518,-0.030518
0.667664,-0.070054,0.036524,10.056088,0.000493,0.002879,0.000136,0.000000,0.000000,-0.061035
0.677761,-0.065264,0.032932,10.057885,0.005283,-0.000714,0.001932,0.000000,0.000000,-0.061035
0.687858,-0.063468,0.037722,10.049502,0.007080,0.004076,-0.006450,0.000000,-0.030518,-0.061035
0.697955,-0.062869,0.040117,10.045909,0.007678,0.006471,-0.010043,0.000000,0.000000,-0.091553
0.708052,-0.066462,0.025148,10.041119,0.004086,-0.008498,-0.014833,0.000000,0.030518,-0.061035
0.718149,-0.060474,0.026944,10.046508,0.010073,-0.006702,-0.009444,0.000000,0.000000,-0.091553
0.728245,-0.056283,0.020956,10.047107,0.014265,-0.012689,-0.008845,0.000000,0.000000,-0.061035
0.738343,-0.061073,0.028141,10.050101,0.009475,-0.005504,-0.005851,-0.030518,0.000000,-0.030518
0.748440,-0.068258,0.029339,10.047706,0.002289,-0.004307,-0.008246,0.000000,-0.030518,-0.061035
0.758537,-0.066462,0.035327,10.051298,0.004086,0.001681,-0.004654,0.000000,0.000000,-0.030518
0.768660,-0.068857,0.036524,10.056088,0.001691,0.002879,0.000136,-0.030518,0.000000,-0.030518
0.778757,-0.065264,0.038320,10.053094,0.005283,0.004675,-0.002858,-0.030518,0.000000,-0.061035
0.788854,-0.053888,0.038320,10.050101,0.016660,0.004675,-0.005851,0.000000,0.000000,-0.030518
0.798949,-0.048499,0.040117,10.047107,0.022048,0.006471,-0.008845,0.000000,-0.030518,-0.061035
0.809047,-0.057480,0.040715,10.048903,0.013067,0.007070,-0.007049,-0.030518,0.000000,-0.030518
0.819145,-0.059277,0.040715,10.053693,0.011271,0.007070,-0.002259,-0.030518,0.000000,-0.030518
0.829239,-0.061073,0.037722,10.052496,0.009475,0.004076,-0.003456,-0.030518,0.000000,-0.030518
0.839336,-0.067061,0.040117,10.053094,0.003487,0.006471,-0.002858,0.000000,0.000000,-0.030518
0.849433,-0.062869,0.036524,10.056088,0.007678,0.002879,0.000136,-0.030518,0.000000,-0.061035
0.859531,-0.061672,0.037722,10.057286,0.008876,0.004076,0.001334,-0.030518,0.000000,-0.091553
0.869661,-0.064067,0.039518,10.063273,0.006481,0.005872,0.007321,-0.061035,0.000000,-0.061035
0.879756,-0.065863,0.040117,10.057885,0.004685,0.006471,0.001932,-0.061035,0.000000,-0.061035
0.889851,-0.068857,0.034728,10.056088,0.001691,0.001082,0.000136,-0.030518,0.030518,-0.091553
0.899947,-0.079634,0.036524,10.052496,-0.009087,0.002879,-0.003456,-0.030518,0.030518,-0.091553
0.910041,-0.086221,0.039518,10.052496,-0.015673,0.005872,-0.003456,-0.030518,0.030518,-0.091553
0.920135,-0.080832,0.040117,10.060280,-0.010284,0.006471,0.004328,-0.030518,0.030518,0.000000
0.930229,-0.081431,0.044308,10.059082,-0.010883,0.010662,0.003130,-0.061035,0.061035,0.000000
0.940324,-0.073647,0.038320,10.056687,-0.003099,0.004675,0.000735,0.000000,0.061035,0.000000
0.950417,-0.064666,0.032932,10.053094,0.005882,-0.000714,-0.002858,-0.030518,0.030518,-0.061035
0.960512,-0.062271,0.031734,10.053693,0.008277,-0.001912,-0.002259,-0.061035,0.000000,-0.030518
0.970633,-0.064067,0.028740,10.056687,0.006481,-0.004905,0.000735,-0.061035,0.030518,0.000000
0.980728,-0.070653,0.025746,10.054292,-0.000106,-0.007899,-0.001660,-0.030518,0.000000,0.000000
0.990822,-0.074246,0.026345,10.053693,-0.003698,-0.007300,-0.002259,-0.030518,0.030518,-0.061035
1.000957,-0.071851,0.028141,10.048903,-0.001303,-0.005504,-0.007049,0.000000,0.030518,0.000000
1.011052,-0.076641,0.026944,10.062076,-0.006093,-0.006702,0.006124,0.000000,0.030518,0.000000
1.021150,-0.074246,0.029339,10.055490,-0.003698,-0.004307,-0.000463,0.030518,0.030518,-0.030518
1.031244,-0.070054,0.030536,10.052496,0.000493,-0.003109,-0.003456,0.000000,0.061035,-0.030518
1.041340,-0.062869,0.034129,10.040521,0.007678,0.000483,-0.015431,0.030518,0.061035,-0.030518
1.051434,-0.065264,0.036524,10.041718,0.005283,0.002879,-0.014234,0.091553,0.061035,0.000000
1.061530,-0.052092,0.050295,10.054292,0.018456,0.016650,-0.001660,0.122070,0.030518,0.000000
1.071649,-0.048499,0.052092,10.059681,0.022048,0.018446,0.003729,0.122070,0.030518,0.000000
1.081743,-0.059875,0.036524,10.059082,0.010672,0.002879,0.003130,0.061035,0.000000,0.000000
1.091836,-0.061073,0.032932,10.053094,0.009475,-0.000714,-0.002858,0.030518,0.030518,0.000000
1.101933,-0.059277,0.037123,10.045311,0.011271,0.003477,-0.010641,0.000000,0.030518,0.000000
1.112028,-0.065264,0.038320,10.048903,0.005283,0.004675,-0.007049,0.000000,0.030518,-0.030518
1.122124,-0.067061,0.040117,10.047706,0.003487,0.006471,-0.008246,-0.030518,0.030518,-0.061035
1.132218,-0.061672,0.032932,10.042916,0.008876,-0.000714,-0.013036,-0.030518,0.000000,-0.091553
1.142315,-0.062271,0.031734,10.039323,0.008277,-0.001912,-0.016629,-0.030518,0.000000,-0.091553
1.152410,-0.073647,0.027543,10.044113,-0.003099,-0.006103,-0.011839,-0.030518,0.000000,-0.091553
1.162508,-0.072449,0.027543,10.050101,-0.001902,-0.006103,-0.005851,-0.061035,0.000000,-0.091553
1.172628,-0.073048,0.031734,10.045311,-0.002501,-0.001912,-0.010641,-0.030518,0.030518,-0.091553
1.182725,-0.072449,0.029339,10.048304,-0.001902,-0.004307,-0.007648,0.000000,0.061035,-0.061035
1.192822,-0.074246,0.032333,10.048304,-0.003698,-0.001313,-0.007648,-0.030518,0.030518,-0.061035
1.202919,-0.070653,0.031135,10.042317,-0.000106,-0.002510,-0.013635,0.000000,0.030518,-0.061035
1.213017,-0.065863,0.031135,10.052496,0.004685,-0.002510,-0.003456,0.000000,0.000000,-0.061035
1.223113,-0.057480,0.035327,10.063872,0.013067,0.001681,0.007920,0.000000,0.030518,-0.061035
1.233207,-0.053888,0.035925,10.062675,0.016660,0.002280,0.006723,-0.030518,0.000000,-0.061035
1.243299,-0.063468,0.033530,10.056687,0.007080,-0.000115,0.000735,0.000000,0.030518,-0.091553
1.253397,-0.067061,0.041314,10.054891,0.003487,0.007669,-0.001061,0.030518,0.061035,-0.061035
1.263494,-0.066462,0.044907,10.062675,0.004086,0.011261,0.006723,0.000000,0.030518,-0.030518
1.273616,-0.057480,0.050894,10.059082,0.013067,0.017249,0.003130,0.000000,0.030518,-0.030518
1.283714,-0.055684,0.037123,10.055490,0.014863,0.003477,-0.000463,0.000000,0.030518,-0.030518
1.293810,-0.055684,0.028740,10.053094,0.014863,-0.004905,-0.002858,0.000000,0.030518,0.000000
1.303906,-0.062271,0.029339,10.054292,0.008277,-0.004307,-0.001660,0.000000,0.030518,0.000000
1.314003,-0.059875,0.029339,10.065668,0.010672,-0.004307,0.009716,0.000000,0.000000,0.000000
1.324099,-0.065264,0.025746,10.059082,0.005283,-0.007899,0.003130,0.000000,0.000000,0.000000
1.334197,-0.063468,0.028740,10.057286,0.007080,-0.004905,0.001334,0.000000,0.000000,-0.030518
1.344293,-0.062271,0.033530,10.050101,0.008277,-0.000115,-0.005851,-0.030518,0.030518,0.000000
1.354389,-0.064067,0.034728,10.045311,0.006481,0.001082,-0.010641,0.000000,0.061035,0.000000
1.364486,-0.064067,0.033530,10.062675,0.006481,-0.000115,0.006723,0.000000,0.030518,-0.030518
1.374610,-0.065863,0.029938,10.059082,0.004685,-0.003708,0.003130,0.000000,0.030518,0.000000
1.384708,-0.072449,0.031734,10.053693,-0.001902,-0.001912,-0.002259,0.030518,0.000000,0.000000
1.394806,-0.074246,0.031135,10.054891,-0.003698,-0.002510,-0.001061,0.000000,0.000000,0.000000
1.404903,-0.070653,0.032932,10.049502,-0.000106,-0.000714,-0.006450,0.000000,0.000000,-0.030518
1.415000,-0.070054,0.031734,10.059082,0.000493,-0.001912,0.003130,0.030518,0.000000,-0.030518
1.425097,-0.067061,0.027543,10.058483,0.003487,-0.006103,0.002531,0.000000,0.000000,-0.030518
1.435193,-0.067659,0.026944,10.053693,0.002888,-0.006702,-0.002259,0.000000,-0.030518,-0.061035
1.445289,-0.069456,0.025148,10.051298,0.001092,-0.008498,-0.004654,0.000000,-0.030518,-0.061035
1.455386,-0.068857,0.022154,10.054292,0.001691,-0.011492,-0.001660,-0.061035,-0.030518,-0.061035
1.465483,-0.068857,0.022753,10.059681,0.001691,-0.010893,0.003729,-0.030518,-0.030518,-0.030518
1.475606,-0.065264,0.031734,10.059681,0.005283,-0.001912,0.003729,-0.030518,0.000000,-0.030518
1.485703,-0.069456,0.034728,10.054292,0.001092,0.001082,-0.001660,0.000000,0.000000,-0.061035
1.495800,-0.069456,0.043709,10.050101,0.001092,0.010064,-0.005851,-0.030518,0.000000,-0.061035
1.505896,-0.070054,0.037722,10.044712,0.000493,0.004076,-0.011240,0.000000,0.000000,-0.061035
1.515992,-0.065863,0.044308,10.050101,0.004685,0.010662,-0.005851,-0.030518,0.000000,-0.030518
1.526090,-0.067061,0.046703,10.048304,0.003487,0.013057,-0.007648,-0.030518,0.030518,-0.030518
1.536186,-0.074246,0.047302,10.048903,-0.003698,0.013656,-0.007049,0.000000,-0.030518,-0.030518
1.546280,-0.071851,0.053289,10.051298,-0.001303,0.019644,-0.004654,0.000000,-0.030518,-0.030518
1.556376,-0.067659,0.047900,10.062076,0.002888,0.014255,0.006124,0.030518,-0.030518,-0.061035
1.566476,-0.061073,0.047900,10.062675,0.009475,0.014255,0.006723,0.000000,-0.061035,-0.061035
1.576570,-0.065863,0.040117,10.051897,0.004685,0.006471,-0.004055,-0.030518,-0.030518,-0.030518
1.586668,-0.073048,0.037722,10.059681,-0.002501,0.004076,0.003729,-0.030518,-0.030518,0.000000
1.596765,-0.069456,0.035925,10.052496,0.001092,0.002280,-0.003456,-0.061035,0.000000,0.000000
1.606862,-0.065264,0.035925,10.048903,0.005283,0.002280,-0.007049,-0.030518,0.000000,0.000000
1.616961,-0.069456,0.028740,10.056687,0.001092,-0.004905,0.000735,0.000000,0.000000,-0.030518
1.627058,-0.069456,0.036524,10.060878,0.001092,0.002879,0.004926,0.000000,0.030518,-0.030518
1.637155,-0.071252,0.032932,10.063273,-0.000704,-0.000714,0.007321,0.000000,0.030518,0.000000
1.647253,-0.066462,0.031135,10.048304,0.004086,-0.002510,-0.007648,0.030518,0.030518,0.000000
1.657350,-0.065863,0.032333,10.048304,0.004685,-0.001313,-0.007648,0.030518,0.030518,0.000000
1.667447,-0.070054,0.032333,10.059082,0.000493,-0.001313,0.003130,0.000000,0.030518,-0.030518
1.677572,-0.071252,0.035327,10.060878,-0.000704,0.001681,0.004926,0.030518,0.030518,-0.030518
1.687669,-0.069456,0.045505,10.051897,0.001092,0.011860,-0.004055,0.030518,-0.030518,-0.030518
1.697767,-0.064067,0.034728,10.053693,0.006481,0.001082,-0.002259,0.000000,-0.030518,-0.030518
1.707864,-0.065264,0.029938,10.056088,0.005283,-0.003708,0.000136,0.030518,0.000000,0.000000
1.717961,-0.065264,0.032333,10.060280,0.005283,-0.001313,0.004328,0.000000,0.000000,0.030518
1.728059,-0.065264,0.034728,10.060280,0.005283,0.001082,0.004328,-0.030518,0.030518,0.030518
1.738159,-0.068258,0.028141,10.055490,0.002289,-0.005504,-0.000463,-0.030518,0.030518,0.030518
1.748256,-0.065264,0.028740,10.052496,0.005283,-0.004905,-0.003456,0.030518,0.000000,0.030518
1.758353,-0.074246,0.036524,10.054891,-0.003698,0.002879,-0.001061,0.030518,0.000000,-0.030518
1.768447,-0.072449,0.037722,10.059082,-0.001902,0.004076,0.003130,0.061035,0.000000,-0.030518
1.778641,-0.067659,0.038919,10.055490,0.002888,0.005274,-0.000463,0.030518,-0.030518,-0.030518
1.788731,-0.070653,0.035925,10.054292,-0.000106,0.002280,-0.001660,0.030518,-0.030518,-0.030518
1.798819,-0.064067,0.032333,10.052496,0.006481,-0.001313,-0.003456,0.000000,-0.030518,0.000000
1.808910,-0.060474,0.037123,10.054292,0.010073,0.003477,-0.001660,-0.030518,0.000000,0.000000
1.818998,-0.059875,0.035925,10.053693,0.010672,0.002280,-0.002259,0.000000,0.030518,0.000000
1.829088,-0.058678,0.034728,10.053693,0.011870,0.001082,-0.002259,0.000000,0.030518,0.000000
1.839178,-0.056283,0.033530,10.056088,0.014265,-0.000115,0.000136,0.000000,0.030518,0.000000
1.849265,-0.056882,0.041913,10.053094,0.013666,0.008267,-0.002858,0.000000,0.000000,0.000000
1.859355,-0.050894,0.041913,10.060280,0.019653,0.008267,0.004328,0.000000,0.000000,0.000000
1.869445,-0.056882,0.036524,10.063872,0.013666,0.002879,0.007920,0.000000,0.000000,-0.030518
1.879534,-0.058678,0.036524,10.063872,0.011870,0.002879,0.007920,0.000000,0.000000,0.000000
1.889628,-0.060474,0.035327,10.063273,0.010073,0.001681,0.007321,0.000000,0.030518,0.000000
1.899722,-0.067061,0.031135,10.048304,0.003487,-0.002510,-0.007648,0.000000,0.000000,0.000000
1.909817,-0.073647,0.025746,10.055490,-0.003099,-0.007899,-0.000463,0.030518,0.000000,0.000000
1.919911,-0.082029,0.029339,10.062675,-0.011482,-0.004307,0.006723,0.061035,0.000000,0.000000
1.930004,-0.077838,0.040117,10.060280,-0.007291,0.006471,0.004328,0.030518,0.030518,0.000000
1.940098,-0.078437,0.037722,10.053094,-0.007889,0.004076,-0.002858,0.000000,0.030518,0.000000
1.950191,-0.078437,0.041913,10.052496,-0.007889,0.008267,-0.003456,-0.030518,0.000000,0.030518
1.960285,-0.075443,0.040715,10.056088,-0.004896,0.007070,0.000136,0.000000,0.000000,0.000000
1.970379,-0.077838,0.040117,10.057286,-0.007291,0.006471,0.001334,0.000000,0.000000,-0.030518
1.980501,-0.074246,0.043709,10.062076,-0.003698,0.010064,0.006124,0.000000,0.030518,-0.030518
1.990595,-0.068857,0.044907,10.056088,0.001691,0.011261,0.000136,-0.030518,0.000000,-0.030518
2.000691,-0.068857,0.041913,10.059681,0.001691,0.008267,0.003729,0.030518,0.000000,-0.030518
2.010786,-0.077838,0.034728,10.059082,-0.007291,0.001082,0.003130,0.030518,-0.030518,-0.030518
2.020880,-0.072449,0.032932,10.051897,-0.001902,-0.000714,-0.004055,0.030518,-0.061035,-0.061035
2.030974,-0.069456,0.035327,10.050699,0.001092,0.001681,-0.005253,0.061035,-0.030518,-0.030518
2.041071,-0.074844,0.030536,10.050101,-0.004297,-0.003109,-0.005851,0.000000,0.000000,-0.030518
2.051164,-0.076042,0.032932,10.047107,-0.005494,-0.000714,-0.008845,0.061035,0.000000,-0.061035
2.061260,-0.084424,0.026345,10.057286,-0.013877,-0.007300,0.001334,0.061035,-0.030518,-0.061035
2.071354,-0.083826,0.027543,10.051897,-0.013278,-0.006103,-0.004055,0.030518,0.000000,-0.061035
2.081482,-0.073647,0.028740,10.048304,-0.003099,-0.004905,-0.007648,0.000000,0.030518,-0.030518
2.091577,-0.075443,0.028740,10.045311,-0.004896,-0.004905,-0.010641,0.061035,0.000000,-0.030518
2.101671,-0.071851,0.034728,10.041119,-0.001303,0.001082,-0.014833,0.030518,0.030518,-0.061035
2.111765,-0.072449,0.034129,10.049502,-0.001902,0.000483,-0.006450,0.000000,0.030518,-0.091553
2.121862,-0.070054,0.039518,10.053693,0.000493,0.005872,-0.002259,0.000000,0.000000,-0.061035
2.131956,-0.070653,0.034728,10.045311,-0.000106,0.001082,-0.010641,0.000000,0.000000,-0.030518
2.142053,-0.067061,0.033530,10.043514,0.003487,-0.000115,-0.012438,0.000000,0.030518,-0.030518
2.152147,-0.076641,0.023351,10.046508,-0.006093,-0.010294,-0.009444,0.000000,0.000000,-0.030518
2.162244,-0.076641,0.024549,10.047706,-0.006093,-0.009097,-0.008246,0.000000,0.000000,0.000000
2.172338,-0.074844,0.026944,10.050699,-0.004297,-0.006702,-0.005253,-0.030518,0.000000,-0.030518
2.182468,-0.076641,0.031135,10.051298,-0.006093,-0.002510,-0.004654,-0.030518,0.030518,-0.030518
2.192562,-0.074844,0.032333,10.054292,-0.004297,-0.001313,-0.001660,-0.030518,0.030518,0.000000
2.202659,-0.070054,0.033530,10.053094,0.000493,-0.000115,-0.002858,-0.061035,0.000000,-0.030518
2.212756,-0.070653,0.036524,10.061477,-0.000106,0.002879,0.005525,-0.061035,0.000000,-0.030518
2.222850,-0.076641,0.031734,10.056088,-0.006093,-0.001912,0.000136,-0.030518,0.000000,-0.061035
2.232944,-0.077239,0.026944,10.050101,-0.006692,-0.006702,-0.005851,0.000000,0.000000,-0.061035
2.243042,-0.152682,0.181423,10.112970,-0.082135,0.147777,0.057018,0.518799,-0.061035,0.305176
2.253139,-0.230521,0.433499,10.129735,-0.159973,0.399853,0.073783,1.861572,-0.366211,2.441406
2.263237,-0.253872,0.529898,9.878857,-0.183325,0.496253,-0.177095,-0.274658,0.213623,5.462646
2.273335,-0.950823,0.911904,10.103390,-0.880275,0.878258,0.047438,-1.159668,0.061035,2.075195
2.283463,-0.704136,0.641266,10.045909,-0.633588,0.607621,-0.010043,0.030518,-0.274658,-0.854492
2.293560,-0.028141,-0.198188,10.071057,0.042406,-0.231833,0.015105,-1.007080,-0.122070,-1.800537
2.303657,0.101788,-0.400567,10.072255,0.172336,-0.434213,0.016303,-1.037598,-0.122070,-2.288818
2.313754,0.212558,-0.319735,10.063872,0.283106,-0.353381,0.007920,-0.732422,-0.152588,-2.777100
2.323850,0.276026,-0.366438,10.059082,0.346574,-0.400084,0.003130,-0.549316,-0.091553,-2.593994
2.333947,0.377216,-0.395178,10.057286,0.447763,-0.428824,0.001334,-0.305176,-0.061035,-1.647949
2.344044,0.201780,-0.229922,10.067465,0.272328,-0.263567,0.011513,-0.213623,-0.030518,-1.312256
2.354140,0.165256,-0.296384,10.060280,0.235804,-0.330029,0.004328,-0.152588,-0.061035,-1.129150
2.364237,0.117955,-0.363444,10.060878,0.188502,-0.397090,0.004926,-0.122070,-0.122070,-2.899170
2.374334,0.102986,-0.353265,10.058483,0.173533,-0.386911,0.002531,-0.030518,-0.183105,-4.943848
2.384457,0.005988,-0.150886,10.039323,0.076535,-0.184532,-0.016629,0.061035,-0.183105,-8.453369
2.394555,-0.058678,0.123344,10.049502,0.011870,0.089698,-0.006450,0.213623,-0.152588,-8.880615
2.404653,-0.080233,0.229922,10.045311,-0.009686,0.196276,-0.010641,0.183105,-0.061035,-5.767822
2.414747,-0.418530,0.135319,10.060878,-0.347982,0.101673,0.004926,0.152588,-0.030518,-4.547119
2.424839,-0.858016,0.082029,10.086026,-0.787468,0.048384,0.030074,0.000000,0.000000,-4.119873
2.434936,-1.072370,0.206570,10.056088,-1.001822,0.172925,0.000136,-0.640869,-0.091553,-3.417969
2.445034,-0.793949,0.220342,10.060878,-0.723401,0.186696,0.004926,-0.579834,-0.061035,-2.288818
2.455131,-0.326920,0.198188,10.060280,-0.256373,0.164542,0.004328,-0.183105,0.030518,0.274658
2.465229,-0.166454,0.110171,10.090217,-0.095906,0.076525,0.034265,0.061035,0.061035,1.739502
2.475326,-0.175435,0.058079,10.078242,-0.104888,0.024434,0.022290,0.061035,0.152588,2.105713
2.485456,-0.549058,-0.027543,10.079440,-0.478511,-0.061188,0.023488,0.213623,0.091553,1.922607
2.495553,-0.667612,-0.032333,10.072853,-0.597064,-0.065978,0.016901,0.396729,0.122070,3.051758
2.505650,-0.749042,-0.037722,10.043514,-0.678495,-0.071367,-0.012438,0.457764,0.152588,4.333496
2.515745,-0.610131,-0.158670,10.107581,-0.539584,-0.192316,0.051629,0.457764,0.061035,5.798340
2.525842,-0.491578,-0.080832,10.111174,-0.421030,-0.114477,0.055222,0.732422,0.244141,6.958008
2.535940,-0.507145,0.050295,10.112371,-0.436598,0.016650,0.056419,0.671387,0.335693,7.476807
2.546037,-0.662822,0.143701,10.065668,-0.592274,0.110056,0.009716,-0.640869,0.457764,10.467529
2.556134,-0.683778,0.123942,10.095606,-0.613231,0.090297,0.039654,-0.305176,0.488281,11.901855
2.566231,-0.620310,-0.385598,10.105785,-0.549763,-0.419244,0.049833,0.244141,0.396729,12.603760
2.576328,-0.404758,-0.246687,10.029144,-0.334211,-0.280333,-0.026808,-0.457764,0.244141,12.054443
2.586453,-0.525707,-0.206570,10.024354,-0.455159,-0.240216,-0.031598,-0.335693,0.396729,9.826660
2.596550,-0.311951,-0.274230,10.089020,-0.241404,-0.307875,0.033068,1.190186,0.640869,5.554199
2.606649,-0.262853,0.298180,10.041718,-0.192306,0.264534,-0.014234,1.892090,0.091553,4.425049
2.616747,-0.289797,0.331710,10.098600,-0.219250,0.298065,0.042648,-0.946045,-0.030518,4.486084
2.626844,-0.477806,0.373623,10.074051,-0.407259,0.339978,0.018099,-1.342773,0.152588,3.662109
2.636941,-0.448467,0.353864,10.063273,-0.377920,0.320219,0.007321,0.457764,0.793457,1.983643
2.647038,-0.286804,-0.115560,10.003997,-0.216256,-0.149205,-0.051955,0.091553,0.885010,0.396729
2.657136,-0.333506,-0.029339,10.121951,-0.262959,-0.062985,0.065999,-0.427246,0.610352,-0.885010
2.667233,-0.368833,0.022753,10.095606,-0.298285,-0.010893,0.039654,-0.488281,0.244141,-0.671387
2.677331,-0.413740,-0.052092,10.117161,-0.343192,-0.085737,0.061209,-0.640869,0.244141,0.030518
2.687455,-0.309556,0.060474,10.071057,-0.239009,0.026829,0.015105,-0.335693,-0.122070,1.525879
2.697553,-0.226329,0.048499,10.021360,-0.155782,0.014854,-0.034592,0.030518,-0.213623,1.983643
2.707650,-0.325723,0.016765,10.075248,-0.255175,-0.016880,0.019296,0.061035,-0.610352,1.007080
2.717747,-0.416733,0.107776,10.077045,-0.346186,0.074130,0.021093,0.213623,-0.823975,0.305176
2.727844,-0.341889,0.020358,10.083032,-0.271341,-0.013288,0.027080,-0.213623,-0.701904,-0.579834
2.737941,-0.355062,0.081431,10.098001,-0.284514,0.047785,0.042049,-0.305176,-0.671387,-1.159668
2.748038,-0.246088,0.056882,10.082433,-0.175541,0.023236,0.026481,-0.488281,-0.915527,-1.007080
2.758135,-0.347278,0.035327,10.052496,-0.276730,0.001681,-0.003456,0.122070,-0.854492,-1.098633
2.768233,-0.334704,0.066462,10.008188,-0.264156,0.032816,-0.047764,1.312256,-0.701904,-0.762939
2.778326,-0.203577,-0.098795,10.051298,-0.133029,-0.132440,-0.004654,1.983643,-0.671387,-0.823975
2.788450,-0.338297,-0.074844,10.028546,-0.267749,-0.108490,-0.027407,1.892090,-0.518799,-0.671387
2.798550,-0.332309,-0.267643,10.112970,-0.261761,-0.301289,0.057018,1.129150,0.091553,-1.800537
2.808645,-0.458646,0.038919,10.131531,-0.388099,0.005274,0.075579,0.610352,0.396729,-0.335693
2.818741,-0.316143,0.196392,10.213561,-0.245595,0.162746,0.157609,0.762939,0.610352,0.518799
2.828839,0.191003,-0.050894,10.092014,0.261550,-0.084540,0.036062,0.183105,1.251221,1.464844
2.838936,-0.013173,0.279619,9.957294,0.057375,0.245973,-0.098658,-1.068115,1.495361,1.403809
2.849032,-0.140707,-0.083826,10.280023,-0.070160,-0.117471,0.224071,-3.967285,0.701904,-0.579834
2.859129,-0.253273,-0.111368,10.059082,-0.182726,-0.145014,0.003130,-2.014160,-0.030518,-2.319336
2.869224,-0.177830,-0.172441,10.056687,-0.107283,-0.206087,0.000735,-1.770020,-0.823975,-3.509521
2.879318,-0.313149,-0.111368,10.012978,-0.242601,-0.145014,-0.042974,-1.770020,-0.640869,-4.089355
2.889445,-0.343685,-0.117955,10.044712,-0.273138,-0.151600,-0.011240,-1.922607,-0.610352,-4.272461
2.899542,-0.210762,0.000599,10.017768,-0.140214,-0.033047,-0.038184,0.091553,-1.129150,-2.014160
2.909635,-0.115560,0.065264,10.093810,-0.045012,0.031619,0.037858,0.579834,-0.885010,0.640869
2.919733,-0.516725,-0.045505,10.004595,-0.446178,-0.079151,-0.051357,0.701904,-0.122070,0.915527
2.929830,-0.506547,-0.153281,10.070458,-0.435999,-0.186927,0.014506,0.640869,0.030518,1.007080
2.939924,-0.365839,-0.188009,10.053693,-0.295292,-0.221655,-0.002259,1.068115,0.213623,2.471924
2.950019,-0.247286,-0.117955,10.088421,-0.176738,-0.151600,0.032469,1.220703,0.183105,1.312256
2.960113,-0.189207,-0.156874,10.165062,-0.118659,-0.190519,0.109110,0.488281,0.091553,-0.885010
2.970207,-0.098196,-0.085023,9.939331,-0.027648,-0.118669,-0.116621,0.427246,0.640869,-2.166748
2.980301,-0.086221,0.104782,10.095606,-0.015673,0.071137,0.039654,0.305176,0.457764,-3.173828
2.990422,0.026944,0.296384,10.017169,0.097492,0.262738,-0.038783,0.030518,0.976562,-2.227783
3.000517,-0.191003,0.122146,10.012379,-0.120455,0.088500,-0.043573,-0.762939,2.349854,-0.946045
3.010612,-0.014969,-0.190404,9.983040,0.055579,-0.224050,-0.072912,-0.366211,0.915527,-2.502441
3.020707,-0.092208,-0.110171,10.038724,-0.021661,-0.143816,-0.017228,0.549316,0.946045,-3.326416
3.030800,-0.016166,-0.041314,10.009984,0.054381,-0.074960,-0.045968,1.037598,0.549316,-2.441406
3.040897,-0.229323,0.110171,9.956695,-0.158776,0.076525,-0.099257,0.549316,0.427246,-1.159668
3.050991,-0.157473,0.087418,10.106982,-0.086925,0.053773,0.051030,-0.091553,0.610352,-1.373291
3.061088,-0.220941,0.113165,10.072853,-0.150393,0.079519,0.016901,0.183105,0.427246,-3.234863
3.071182,-0.387993,0.285606,9.971065,-0.317446,0.251961,-0.084887,0.122070,0.335693,-4.577637
3.081279,-0.282612,0.293989,10.090217,-0.212065,0.260343,0.034265,-2.990723,-0.305176,-5.340576
3.091397,-0.365240,0.192799,10.115365,-0.294693,0.159154,0.059413,-2.563477,-0.610352,-7.598877
3.101494,-0.388592,0.329914,9.974658,-0.318044,0.296268,-0.081294,-1.861572,-0.976562,-9.399414
3.111588,-0.492775,0.149689,10.094409,-0.422228,0.116043,0.038457,-1.037598,-0.732422,-10.742188
3.121684,-0.591570,0.304766,10.096205,-0.521022,0.271121,0.040253,-0.946045,-0.183105,-9.552002
3.131778,-0.565225,-0.247286,10.259665,-0.494677,-0.280931,0.203713,-0.366211,-1.159668,-8.911133
3.141876,-0.451461,-0.246088,10.054891,-0.380914,-0.279734,-0.001061,0.762939,-0.885010,-9.857178
3.151970,-0.383203,-0.301772,10.004595,-0.312656,-0.335418,-0.051357,1.678467,-0.457764,-5.828857
3.162066,-0.538879,-0.062869,10.087822,-0.468332,-0.096515,0.031870,-0.183105,-0.457764,-4.119873
3.172160,-0.525108,-0.298180,10.146500,-0.454560,-0.331825,0.090548,2.105713,0.976562,-3.509521
3.182256,-0.512534,-0.111967,10.074650,-0.441987,-0.145613,0.018698,2.624512,1.220703,-2.288818
3.192375,-0.532892,-0.099992,10.189012,-0.462344,-0.133638,0.133060,2.410889,1.800537,2.471924
3.202472,-0.476609,0.226329,10.351274,-0.406061,0.192684,0.295322,0.885010,1.495361,3.417969
3.212569,-0.519719,0.109572,10.215357,-0.449172,0.075927,0.159405,-0.305176,1.373291,3.082275
3.222665,-0.485590,0.320334,10.260264,-0.415043,0.286688,0.204312,-1.373291,-0.061035,2.197266
3.232759,-0.547861,-0.029339,10.220147,-0.477313,-0.062985,0.164195,-4.760742,-1.464844,4.516602
3.242856,-0.352667,-0.072449,10.071656,-0.282119,-0.106095,0.015704,-1.739502,-1.495361,1.556396
3.252954,-0.376018,0.037123,9.933942,-0.305471,0.003477,-0.122010,-1.525879,-0.854492,0.549316
3.263050,-0.129930,-0.037722,10.197394,-0.059382,-0.071367,0.141442,-2.838135,-1.007080,-0.122070
3.273147,-0.137714,-0.138312,9.956096,-0.067166,-0.171958,-0.099856,-3.784180,-1.190186,-1.220703
3.283243,-0.186812,0.144899,9.746532,-0.116264,0.111253,-0.309420,-0.030518,0.152588,-2.258301
3.293337,-0.504750,-0.025148,10.226733,-0.434203,-0.058793,0.170781,1.281738,0.396729,0.305176
3.303435,-0.532892,0.000000,10.155482,-0.462344,-0.033646,0.099530,2.563477,0.518799,1.159668
3.313531,-0.301174,0.098196,10.099199,-0.230626,0.064550,0.043247,0.274658,-0.427246,3.326416
3.323629,-0.417931,0.411345,10.136321,-0.347383,0.377699,0.080369,1.159668,-0.366211,3.417969
3.333726,-0.403561,0.436492,9.975855,-0.333013,0.402847,-0.080097,-2.716064,-0.762939,5.096436
3.343985,-0.380209,-0.062869,10.233320,-0.309662,-0.096515,0.177368,-1.464844,-0.549316,5.737305
3.354110,-0.147892,0.199385,10.056088,-0.077345,0.165740,0.000136,0.885010,-0.305176,7.568359
3.364217,-0.426912,0.005389,9.979448,-0.356365,-0.028257,-0.076504,-0.152588,-0.610352,11.474609
3.374316,-0.347877,0.085023,10.054292,-0.277329,0.051378,-0.001660,2.471924,0.396729,11.810303
3.384410,-0.252675,0.156275,9.798025,-0.182127,0.122629,-0.257927,3.448486,0.976562,12.969971
3.394518,-0.195194,0.082628,9.751921,-0.124647,0.048983,-0.304031,1.159668,0.579834,11.169434
3.404609,-0.153281,0.143701,9.983639,-0.082734,0.110056,-0.072313,0.000000,1.190186,7.385254
3.414699,-0.152682,-0.007784,10.148895,-0.082135,-0.041429,0.092943,-1.007080,1.220703,5.950928
3.424789,-0.281415,-0.062271,10.058483,-0.210867,-0.095916,0.002531,0.244141,1.098633,5.157471
3.434878,-0.149090,0.164658,9.789642,-0.078542,0.131012,-0.266310,-1.708984,0.640869,4.730225
3.444967,-0.203577,0.189805,9.730366,-0.133029,0.156160,-0.325586,-1.159668,0.244141,3.540039
3.455058,-0.362845,-0.211959,10.207573,-0.292298,-0.245605,0.151621,-0.396729,0.152588,1.525879
3.465151,-0.023950,-0.170046,10.276430,0.046597,-0.203692,0.220478,-1.159668,-0.549316,1.525879
3.475241,-0.185015,-0.241897,10.186617,-0.114468,-0.275543,0.130665,1.708984,-0.030518,1.647949
3.485330,-0.164658,-0.190404,10.069860,-0.094110,-0.224050,0.013908,0.305176,-0.396729,0.915527
3.495485,-0.365240,-0.085023,9.928553,-0.294693,-0.118669,-0.127399,2.227783,0.030518,-1.342773
3.505582,-0.580792,-0.202379,9.895622,-0.510245,-0.236025,-0.160330,2.166748,0.335693,-3.662109
3.515684,-0.324525,0.152682,9.836345,-0.253978,0.119037,-0.219607,1.007080,-0.427246,-6.317139
3.525781,-0.224533,0.178429,10.217153,-0.153986,0.144783,0.161201,-0.701904,-0.488281,-8.422852
3.535875,-0.050894,-0.013173,10.155482,0.019653,-0.046818,0.099530,-1.220703,-0.549316,-7.171631
3.545969,-0.677192,0.055684,9.989028,-0.606644,0.022039,-0.066924,1.251221,0.488281,-5.615234
3.556066,-0.283810,0.070653,9.858499,-0.213262,0.037008,-0.197453,1.037598,0.549316,-6.103516
3.566163,-0.359253,0.210163,9.748328,-0.288705,0.176517,-0.307624,0.305176,0.457764,-6.713867
3.576259,0.052092,0.214354,9.854907,0.122639,0.180709,-0.201045,-0.122070,-0.183105,-8.422852
3.586356,-0.208367,0.107776,9.984836,-0.137819,0.074130,-0.071116,-0.976562,-0.579834,-9.674072
3.596574,0.158071,0.117356,9.994417,0.228619,0.083710,-0.061536,-2.746582,-1.312256,-14.251709
3.606666,0.098196,-0.129331,10.290800,0.168743,-0.162977,0.234848,-1.647949,-1.129150,-15.716553
3.616756,0.088017,-0.031135,10.142908,0.158565,-0.064781,0.086956,1.953125,-0.061035,-19.104004
3.626856,0.019759,-0.235311,10.089619,0.090306,-0.268956,0.033666,1.159668,0.488281,-19.897461
3.636947,0.349074,0.160466,9.974059,0.419622,0.126821,-0.081893,0.091553,1.251221,-20.599365
3.647038,-0.136516,0.307161,10.189611,-0.065969,0.273516,0.133659,-1.129150,0.030518,-21.087646
3.657128,0.076042,0.110770,10.150093,0.146589,0.077124,0.094141,0.000000,0.579834,-19.287109
3.667220,0.091011,-0.278421,10.222542,0.161558,-0.312067,0.166590,1.281738,0.732422,-16.204834
3.677311,-0.242496,-0.242496,10.278825,-0.171948,-0.276141,0.222873,-0.885010,0.610352,-16.021729
3.687401,-0.155078,-0.094603,9.759106,-0.084530,-0.128249,-0.296846,0.579834,0.396729,-14.678955
3.697556,-0.218546,0.152682,9.897418,-0.147998,0.119037,-0.158534,-0.061035,-0.122070,-13.061523
3.707653,-0.663420,-0.059277,10.009385,-0.592873,-0.092922,-0.046567,-0.366211,-0.518799,-12.084961
3.717768,-0.542472,-0.239502,9.913585,-0.471924,-0.273147,-0.142367,-1.190186,-1.098633,-15.441895
3.727866,-0.526306,-0.395777,10.058483,-0.455758,-0.429423,0.002531,0.366211,-1.770020,-14.587402
3.737963,-0.616718,-0.017963,10.093211,-0.546170,-0.051608,0.037259,-0.396729,-1.312256,-10.467529
3.748057,-0.571811,-0.004191,9.964479,-0.501263,-0.037837,-0.091473,-0.091553,-0.946045,-9.277344
3.758153,-0.523911,-0.302371,9.931547,-0.453363,-0.336017,-0.124405,0.061035,-0.610352,-8.941650
3.768250,-0.467029,-0.103585,10.028546,-0.396481,-0.137230,-0.027407,-0.366211,-0.030518,-7.873535
3.778345,-0.555046,-0.028740,10.074650,-0.484498,-0.062386,0.018698,-2.532959,-0.335693,-6.439209
3.788444,-0.766406,-0.200583,10.223141,-0.695859,-0.234228,0.167189,-1.770020,-0.305176,-4.547119
3.798632,-0.553848,-0.307161,10.044712,-0.483301,-0.340807,-0.011240,-0.915527,-0.091553,-2.563477
3.808722,-0.536484,0.041913,9.925560,-0.465937,0.008267,-0.130392,-0.946045,-0.396729,-1.861572
3.818812,-0.624501,0.177830,10.189611,-0.553954,0.144185,0.133659,-0.915527,-0.732422,0.518799
3.828902,-0.382604,-0.641266,9.863289,-0.312057,-0.674912,-0.192663,-0.457764,1.312256,0.762939
3.838991,-0.498164,-0.174836,9.868678,-0.427617,-0.208482,-0.187274,2.471924,2.349854,-1.007080
3.849081,-0.917891,0.314346,10.160272,-0.847344,0.280701,0.104320,-0.762939,1.342773,1.525879
3.859171,-0.663420,-0.194595,10.267449,-0.592873,-0.228241,0.211497,-0.976562,-0.518799,1.190186
3.869261,-0.644859,-0.043709,10.303973,-0.574311,-0.077355,0.248021,0.396729,-1.068115,2.380371
3.879350,-0.653840,-0.098196,9.951905,-0.583293,-0.131841,-0.104047,-0.518799,-0.640869,2.197266
3.889440,-0.752036,-0.225731,9.901609,-0.681489,-0.259376,-0.154343,-0.976562,-0.335693,0.701904
3.899589,-0.356259,-0.340093,9.935140,-0.285712,-0.373738,-0.120812,2.044678,-1.861572,-0.183105
3.909686,-0.568218,-0.140109,10.017169,-0.497671,-0.173754,-0.038783,1.220703,-1.770020,0.213623
3.919782,-0.440085,-0.035327,9.940529,-0.369537,-0.068972,-0.115423,0.579834,-0.488281,1.708984
3.929879,-0.168849,0.209564,9.952504,-0.098301,0.175919,-0.103448,0.396729,-0.946045,2.136230
3.939975,0.025746,0.288600,10.065668,0.096294,0.254954,0.009716,-0.183105,0.640869,3.631592
3.950074,-0.262853,0.137115,10.241702,-0.192306,0.103469,0.185750,0.152588,1.556396,1.861572
3.960171,-0.183818,0.255070,10.089020,-0.113270,0.221424,0.033068,1.525879,1.251221,2.136230
3.970267,0.234712,0.758024,10.133328,0.305259,0.724378,0.077376,4.821777,1.922607,0.976562
3.980363,-0.242496,0.177830,10.095606,-0.171948,0.144185,0.039654,2.105713,0.671387,1.007080
3.990460,0.118553,0.278421,10.195598,0.189101,0.244775,0.139646,-1.434326,-1.190186,-2.960205
4.000585,0.001796,0.562231,9.824370,0.072344,0.528585,-0.231582,-2.014160,-1.220703,-3.906250
4.010681,-0.162263,0.192799,10.197394,-0.091715,0.159154,0.141442,-5.035400,-0.244141,-4.089355
4.020778,0.108375,-0.083227,10.062675,0.178922,-0.116872,0.006723,-3.753662,0.122070,-4.425049
4.030874,0.232916,-0.068258,10.158475,0.303463,-0.101904,0.102523,-1.953125,-0.701904,-0.518799
4.040972,0.061073,0.002994,10.141111,0.131621,-0.030652,0.085159,-0.640869,-0.701904,1.556396
4.051069,-0.011975,-0.029339,9.871672,0.058572,-0.062985,-0.184280,-0.518799,0.061035,3.509521
4.061165,0.217348,-0.229323,9.924362,0.287896,-0.262969,-0.131590,-0.610352,1.037598,5.096436
4.071262,0.198188,-0.102986,9.965078,0.268735,-0.136631,-0.090875,0.488281,1.434326,6.896973
4.081360,0.147294,-0.138911,10.001602,0.217841,-0.172557,-0.054350,2.166748,0.854492,9.765625
4.091456,0.250878,-0.097597,9.993818,0.321426,-0.131243,-0.062134,2.624512,0.152588,9.918213
4.101579,0.447869,-0.065863,9.948312,0.518416,-0.099509,-0.107640,-0.030518,-0.305176,12.023926
4.111676,0.226329,-0.193997,10.060280,0.296877,-0.227642,0.004328,0.366211,0.854492,10.131836
4.121773,0.427511,-0.096998,10.186617,0.498059,-0.130644,0.130665,-1.098633,0.823975,10.345459
4.131869,0.612526,-0.227527,10.116563,0.683074,-0.261172,0.060610,1.403809,1.007080,12.329102
4.141965,0.424517,-0.028740,9.843530,0.495065,-0.062386,-0.212422,1.708984,1.281738,12.664795
4.152061,0.368234,0.055684,9.790840,0.438782,0.022039,-0.265112,4.791260,-0.091553,9.307861
4.162157,0.386796,0.129331,9.839339,0.457343,0.095686,-0.216613,3.570557,-1.098633,10.437012
4.172253,0.420326,0.168849,9.913585,0.490873,0.135203,-0.142367,1.647949,-0.549316,7.141113
4.182348,0.647254,0.137115,10.011182,0.717802,0.103469,-0.044770,-0.274658,0.793457,7.049561
4.192445,0.439486,-0.083227,10.111174,0.510034,-0.116872,0.055222,-0.793457,0.335693,6.103516
4.202566,0.440684,-0.079634,10.004595,0.511231,-0.113280,-0.051357,-0.976562,0.183105,7.110596
4.212676,0.401765,0.052092,10.076446,0.472312,0.018446,0.020494,-1.617432,-0.122070,8.331299
4.222773,0.229922,-0.261656,10.173444,0.300469,-0.295301,0.117492,-3.021240,-1.159668,7.385254
4.232867,0.253273,-0.304766,10.312954,0.323821,-0.338412,0.257002,-0.976562,-0.885010,5.340576
4.242963,0.714913,0.126936,9.899813,0.785461,0.093291,-0.156139,1.251221,1.342773,7.446289
4.253060,0.319735,0.277224,10.085427,0.390283,0.243578,0.029475,0.152588,1.556396,5.889893
4.263156,0.505948,-0.141306,10.169852,0.576495,-0.174952,0.113900,1.586914,1.922607,1.220703
4.273252,0.403561,0.034728,10.061477,0.474108,0.001082,0.005525,0.976562,1.434326,0.946045
4.283349,0.392783,0.082029,9.963281,0.463331,0.048384,-0.092671,1.739502,1.464844,-0.305176
4.293445,0.353265,0.094005,9.975256,0.423813,0.060359,-0.080696,1.098633,0.854492,-0.274658
4.303641,0.213755,-0.028141,10.035132,0.284303,-0.061787,-0.020820,0.885010,0.610352,-0.793457
4.313728,0.085622,0.002395,9.956695,0.156169,-0.031251,-0.099257,0.610352,0.183105,1.220703
4.323818,0.046104,-0.067061,9.962682,0.116652,-0.100706,-0.093270,0.244141,-0.183105,2.899170
4.333910,-0.043110,0.016765,9.966874,0.027437,-0.016880,-0.089078,0.518799,-0.091553,5.310059
4.344000,-0.099992,-0.469424,10.216555,-0.029445,-0.503069,0.160603,3.540039,0.549316,4.577637
4.354090,0.091011,-0.002994,9.773476,0.161558,-0.036639,-0.282476,7.293701,1.739502,4.455566
4.364179,0.123344,-0.081431,9.889036,0.193891,-0.115076,-0.166916,2.349854,1.220703,10.040283
4.374269,-0.424517,0.104782,9.955497,-0.353970,0.071137,-0.100455,2.807617,0.701904,7.385254
4.384359,-0.174238,-0.027543,10.111174,-0.103690,-0.061188,0.055222,0.610352,0.030518,5.004883
4.394448,-0.209564,-0.092208,9.984238,-0.139017,-0.125854,-0.071714,0.305176,0.457764,5.310059
4.404601,-0.302371,-0.067061,10.299183,-0.231824,-0.100706,0.243231,-1.159668,1.281738,4.638672
4.414698,-0.389789,0.341290,10.054891,-0.319242,0.307645,-0.001061,-1.190186,1.434326,4.669189
4.424794,-0.474214,0.104782,10.017169,-0.403666,0.071137,-0.038783,-2.014160,1.617432,4.913330
4.434908,-0.074844,-0.114961,10.195598,-0.004297,-0.148606,0.139646,-2.929688,1.098633,6.988525
4.445001,-0.344284,-0.015568,10.122550,-0.273737,-0.049213,0.066598,-1.464844,0.823975,7.965088
4.455099,-0.420925,-0.175435,10.089020,-0.350377,-0.209081,0.033068,-0.671387,0.061035,10.070801
4.465196,-0.608934,-0.085023,10.060878,-0.538386,-0.118669,0.004926,-0.915527,-0.335693,11.596680
4.475290,-0.624501,-0.364642,9.933344,-0.553954,-0.398287,-0.122609,-1.708984,0.061035,13.488770
4.485385,-0.380209,-0.321531,9.922566,-0.309662,-0.355177,-0.133386,0.213623,0.915527,13.549805
4.495482,-0.374821,0.025746,10.036329,-0.304273,-0.007899,-0.019623,-2.624512,0.427246,12.969971
4.505664,-0.702938,0.118553,10.048304,-0.632391,0.084908,-0.007648,-5.187988,-0.213623,10.986328
4.515754,-0.468226,-0.120350,10.356064,-0.397679,-0.153995,0.300112,-6.561279,-0.854492,9.307861
4.525844,-0.467628,-0.279619,10.121353,-0.397080,-0.313264,0.065400,-2.288818,-1.342773,8.483887
4.535934,-0.513732,-0.179626,10.054292,-0.443184,-0.213272,-0.001660,-0.793457,-1.190186,9.826660
4.546039,-0.367635,-0.259860,10.080038,-0.297088,-0.293505,0.024086,0.183105,-0.854492,10.711670
4.556132,-0.367037,-0.105381,9.965078,-0.296489,-0.139026,-0.090875,0.762939,-1.159668,10.040283
4.566483,-0.465233,0.065863,9.981843,-0.394685,0.032218,-0.074109,-0.244141,-1.586914,9.857178
4.576576,-0.438289,-0.092208,9.956695,-0.367741,-0.125854,-0.099257,0.488281,-1.129150,9.582520
4.586679,-0.413141,0.270637,9.995614,-0.342593,0.236992,-0.060338,2.410889,0.701904,11.077881
4.596770,-0.271835,0.056882,9.927955,-0.201287,0.023236,-0.127997,0.030518,0.946045,10.711670
4.606984,-0.188009,-0.105980,10.210567,-0.117461,-0.139625,0.154615,-0.366211,1.159668,5.737305
4.617082,0.108375,0.235909,10.101594,0.178922,0.202264,0.045642,0.854492,1.556396,-2.319336
4.627178,0.001796,0.531694,10.202184,0.072344,0.498049,0.146232,0.061035,1.251221,-5.096436
4.637276,-0.053888,0.231718,10.141111,0.016660,0.198073,0.085159,1.281738,-0.396729,-12.969971
4.647372,-0.143701,0.373024,10.037527,-0.073154,0.339379,-0.018425,2.166748,-0.610352,-14.739990
4.657469,-0.293390,0.150287,10.121353,-0.222842,0.116642,0.065400,1.922607,-1.495361,-16.052246
4.667564,-0.256866,-0.059875,10.178833,-0.186318,-0.093521,0.122881,1.403809,-1.708984,-16.387939
4.677665,-0.326321,0.034129,10.150093,-0.255774,0.000483,0.094141,0.244141,-1.129150,-15.808105
4.687761,-0.361049,-0.016166,9.822574,-0.290502,-0.049812,-0.233378,-0.640869,-0.854492,-11.962891
4.697857,-0.323328,-0.050295,10.128538,-0.252780,-0.083941,0.072586,-1.800537,-0.518799,-9.155273
4.707985,0.480800,-0.010179,10.087224,0.551348,-0.043824,0.031271,0.366211,0.274658,-8.087158
4.718081,-0.273631,0.093406,10.017768,-0.203083,0.059760,-0.038184,-1.983643,1.556396,-8.209229
4.728178,-0.073647,0.215552,10.068063,-0.003099,0.181906,0.012111,-4.028320,0.976562,-9.277344
4.738275,0.265248,0.356858,10.023157,0.335796,0.323212,-0.032795,-2.044678,1.129150,-9.460449
4.748371,0.245490,0.217348,9.949510,0.316037,0.183702,-0.106442,-1.037598,1.190186,-4.821777
4.758467,-0.307760,-0.450862,10.308164,-0.237212,-0.484508,0.252212,0.000000,0.030518,-7.293701
4.768564,-0.207768,-0.437091,10.216555,-0.137220,-0.470737,0.160603,2.624512,-0.549316,-8.941650
4.778660,-0.232916,-0.299377,10.149494,-0.162368,-0.333023,0.093542,3.295898,0.061035,-2.990723
4.788756,-0.237107,-0.132924,9.902208,-0.166559,-0.166569,-0.153744,4.516602,1.068115,-2.197266
4.798852,-0.200583,0.452659,9.562714,-0.130035,0.419013,-0.493238,1.556396,1.129150,-0.579834
4.808974,-0.178429,0.301174,9.590856,-0.107881,0.267528,-0.465096,-0.366211,0.061035,-0.366211
4.819111,-0.240101,0.405357,10.187216,-0.169553,0.371712,0.131264,0.396729,-0.305176,-0.244141
4.829213,-0.175435,0.143701,10.178234,-0.104888,0.110056,0.122282,-0.671387,-1.770020,-0.793457
4.839311,-0.486788,0.368833,10.094409,-0.416240,0.335187,0.038457,-3.234863,-1.831055,-1.129150
4.849409,0.221539,0.129930,10.103390,0.292087,0.096284,0.047438,-2.014160,-1.708984,0.000000
4.859504,-0.240699,-0.188608,10.071656,-0.170152,-0.222253,0.015704,-2.075195,-1.281738,0.030518
4.869602,-0.145497,0.371827,9.787247,-0.074950,0.338181,-0.268705,-2.716064,-0.183105,-0.762939
4.879694,-0.285007,0.292192,9.974059,-0.214460,0.258547,-0.081893,-5.187988,0.244141,-0.305176
4.889790,-0.097597,0.341290,10.048304,-0.027050,0.307645,-0.007648,-0.427246,0.518799,-3.814697
4.899888,-0.123344,0.156874,10.035132,-0.052796,0.123228,-0.020820,0.579834,0.274658,-2.716064
4.910022,-0.119751,0.237706,9.985435,-0.049203,0.204060,-0.070517,0.854492,-0.518799,-0.488281
4.920119,-0.100591,-0.261057,10.039922,-0.030043,-0.294703,-0.016030,1.525879,-0.030518,0.244141
4.930212,-0.010179,-0.294587,10.092612,0.060369,-0.328233,0.036660,0.701904,-0.122070,1.495361
4.940308,-0.331111,-0.428708,10.144105,-0.260564,-0.462354,0.088153,1.617432,-0.549316,1.403809
4.950404,-0.224533,-0.150287,10.013577,-0.153986,-0.183933,-0.042375,0.305176,-0.396729,2.441406
4.960500,0.018561,-0.177231,9.982441,0.089109,-0.210877,-0.073511,-1.098633,-1.159668,0.122070
4.970596,0.089813,-0.020956,10.000404,0.160361,-0.054602,-0.055548,-1.525879,-1.190186,-0.823975
4.980692,-0.053888,-0.077838,10.013577,0.016660,-0.111484,-0.042375,-1.342773,-1.525879,-2.014160
4.990789,0.038320,-0.065863,9.848919,0.108868,-0.099509,-0.207033,1.464844,0.122070,-1.007080
5.000885,-0.344284,-0.098795,9.984238,-0.273737,-0.132440,-0.071714,0.183105,0.488281,0.274658
5.011009,-0.022154,0.187410,9.966275,0.048394,0.153765,-0.089677,0.854492,0.793457,-0.122070
5.021105,0.091609,0.123344,9.847722,0.162157,0.089698,-0.208230,-0.366211,0.518799,1.953125
5.031201,0.223336,0.057480,10.287806,0.293883,0.023835,0.231854,1.312256,1.037598,1.647949
5.041297,-0.162861,-0.098196,10.108180,-0.092314,-0.131841,0.052228,1.770020,1.281738,1.739502
5.051394,-0.180225,-0.167651,10.152488,-0.109678,-0.201297,0.096536,-0.183105,-0.274658,0.152588
5.061489,0.216749,0.028141,10.011182,0.287297,-0.005504,-0.044770,0.000000,0.152588,-0.061035
5.071586,0.053888,-0.083227,10.094409,0.124435,-0.116872,0.038457,-0.762939,0.122070,0.305176
5.081682,-0.353864,0.047900,10.116563,-0.283317,0.014255,0.060610,-1.739502,0.061035,5.035400
5.091778,-0.229323,-0.393382,10.068063,-0.158776,-0.427027,0.012111,-2.258301,0.213623,9.460449
5.101874,-0.041913,-0.053888,10.129735,0.028635,-0.087533,0.073783,-1.617432,0.183105,12.115479
5.111995,0.110770,0.018561,9.987830,0.181317,-0.015084,-0.068122,-0.488281,0.030518,12.908936
5.122091,0.081431,0.117955,9.983040,0.151978,0.084309,-0.072912,1.037598,-0.183105,12.176514
5.132187,0.107776,0.125739,9.873468,0.178323,0.092093,-0.182484,1.495361,-0.061035,11.352539
5.142283,0.169448,0.028141,10.143506,0.239995,-0.005504,0.087554,0.152588,-0.213623,10.284424
5.152379,0.207169,-0.240699,10.141710,0.277717,-0.274345,0.085758,-0.030518,-0.976562,9.094238
5.162475,0.215552,-0.150886,10.459050,0.286099,-0.184532,0.403098,0.457764,-0.946045,8.087158
5.172571,0.171843,-0.174836,10.080637,0.242390,-0.208482,0.024685,-1.495361,-0.579834,8.331299
5.182668,-0.042512,-0.100591,10.111772,0.028036,-0.134236,0.055820,-1.037598,-0.488281,6.713867
5.192764,0.342488,0.171843,10.030342,0.413035,0.138197,-0.025610,-0.213623,1.220703,9.765625
5.202862,-0.038320,-0.217348,10.127340,0.032227,-0.250994,0.071388,-0.946045,1.068115,9.765625
5.212988,0.137115,0.196990,9.821376,0.207662,0.163345,-0.234576,-0.518799,1.251221,11.596680
5.223086,-0.010179,-0.204175,10.486593,0.060369,-0.237821,0.430641,-3.417969,-0.366211,8.575439
5.233179,-0.095801,-0.215552,10.223740,-0.025253,-0.249197,0.167788,-1.159668,-0.244141,8.789062
5.243272,0.068258,-0.195194,10.013577,0.138806,-0.228840,-0.042375,0.000000,-0.244141,9.857178
5.253368,0.067061,-0.105980,9.986034,0.137608,-0.139625,-0.069918,0.152588,-0.396729,9.368896
5.263464,0.319735,-0.123942,9.827364,0.390283,-0.157588,-0.228588,-0.488281,-1.556396,8.270264
5.273561,0.059875,0.020956,10.027947,0.130423,-0.012689,-0.028005,1.617432,-1.739502,9.307861
5.283657,0.129930,-0.078437,10.077045,0.200477,-0.112082,0.021093,-0.244141,-2.014160,10.437012
5.293753,0.335901,-0.071851,10.233320,0.406449,-0.105496,0.177368,-0.701904,-2.319336,9.033203
5.303850,0.398771,0.080832,10.218351,0.469318,0.047186,0.162399,-0.518799,-1.220703,8.331299
5.313971,0.004191,0.147892,10.023157,0.074739,0.114247,-0.032795,0.610352,0.122070,5.249023
5.324068,-0.168250,0.117955,9.990225,-0.097703,0.084309,-0.065727,0.274658,1.495361,4.547119
5.334164,-0.064067,-0.067659,10.050101,0.006481,-0.101305,-0.005851,0.793457,1.098633,1.617432
5.344260,0.062869,-0.001796,9.909992,0.133417,-0.035442,-0.145960,-0.305176,0.427246,1.953125
5.354498,-0.092208,-0.083227,10.030342,-0.021661,-0.116872,-0.025610,-0.762939,-0.915527,0.335693
5.364595,-0.096998,-0.179028,10.200987,-0.026451,-0.212673,0.145035,-0.549316,-0.885010,0.030518
5.374691,-0.136516,0.251477,9.950109,-0.065969,0.217832,-0.105843,-0.854492,-0.427246,0.823975
5.384786,0.111368,0.186812,9.866882,0.181916,0.153166,-0.189070,-0.396729,2.136230,1.129150
5.394883,0.013173,0.280217,9.699829,0.083720,0.246572,-0.356123,-0.366211,2.655029,-0.732422
5.404979,0.035327,0.438887,9.772877,0.105874,0.405242,-0.283075,-1.586914,0.793457,-4.852295
5.415105,0.229922,0.018561,9.974059,0.300469,-0.015084,-0.081893,-2.746582,1.007080,-5.249023
5.425200,-0.107177,0.143102,9.897418,-0.036630,0.109457,-0.158534,0.000000,1.464844,-10.223389
5.435296,-0.082029,-0.199984,10.267449,-0.011482,-0.233630,0.211497,-1.190186,0.915527,-11.047363
5.445392,-0.537083,0.065863,10.068662,-0.466536,0.032218,0.012710,-1.007080,1.129150,-10.650635
5.455488,-0.126337,-0.073647,9.930948,-0.055790,-0.107292,-0.125004,2.563477,0.030518,-4.852295
5.465585,-0.319136,0.157473,9.649534,-0.248589,0.123827,-0.406418,0.274658,-0.732422,-4.913330
5.475681,-0.243693,-0.156874,9.993219,-0.173146,-0.190519,-0.062733,0.762939,1.129150,-2.960205
5.485774,-0.213755,0.167053,10.081835,-0.143208,0.133407,0.025883,0.488281,0.396729,-2.563477
5.495870,-0.332908,-0.055085,10.001602,-0.262360,-0.088731,-0.054350,0.640869,0.762939,0.518799
5.505965,-0.057480,0.260458,9.721384,0.013067,0.226813,-0.334568,0.122070,1.220703,0.579834
5.516165,-0.071252,0.425715,9.799222,-0.000704,0.392069,-0.256730,-1.068115,0.152588,0.091553
5.526264,0.072449,0.031734,10.079440,0.142997,-0.001912,0.023488,-1.312256,0.244141,-1.770020
5.536362,0.112566,0.120948,9.979448,0.183113,0.087303,-0.076504,-1.708984,0.823975,-2.319336
5.546462,0.696951,-0.899929,10.031539,0.767498,-0.933574,-0.024413,3.417969,2.258301,-3.753662
5.556558,-0.807122,0.487386,10.260264,-0.736574,0.453741,0.204312,-0.061035,0.976562,-3.356934
5.566655,0.009580,0.047302,9.909393,0.080128,0.013656,-0.146559,-0.305176,-0.701904,-6.378174
5.576752,0.064666,-0.021555,9.787846,0.135213,-0.055201,-0.268106,2.746582,-0.030518,-6.347656
5.586845,-0.362845,0.039518,10.130933,-0.292298,0.005872,0.074981,2.075195,-0.610352,-5.310059
5.596941,-0.364642,-0.043110,9.892029,-0.294094,-0.076756,-0.163923,2.319336,-0.579834,-5.584717
5.607037,-0.184417,-0.107776,9.986633,-0.113869,-0.141421,-0.069319,1.647949,-0.244141,-3.967285
5.617167,-0.102387,-0.060474,10.173444,-0.031840,-0.094120,0.117492,-0.427246,1.129150,-0.915527
5.627263,0.035327,-0.020956,9.945917,0.105874,-0.054602,-0.110035,-0.549316,0.488281,-1.556396
5.637360,-0.088017,0.001198,9.974658,-0.017469,-0.032448,-0.081294,-1.342773,0.030518,-4.943848
5.647457,-0.374821,-0.167651,10.039922,-0.304273,-0.201297,-0.016030,-0.732422,-0.030518,-3.509521
5.657553,-0.074246,-0.016765,10.074051,-0.003698,-0.050411,0.018099,0.488281,-0.061035,-0.549316
5.667650,-0.088017,-0.028740,10.063872,-0.017469,-0.062386,0.007920,0.701904,0.518799,-2.319336
5.677747,0.189805,-0.169448,9.952504,0.260353,-0.203093,-0.103448,-0.091553,0.671387,-3.509521
5.687843,-0.408351,0.059277,10.069261,-0.337803,0.025631,0.013309,-1.220703,-0.274658,-5.737305
5.697940,-0.231718,0.034129,10.014774,-0.161171,0.000483,-0.041178,-0.335693,-0.671387,-3.173828
5.708035,-0.321531,-0.360450,10.026151,-0.250984,-0.394096,-0.029802,1.312256,0.061035,1.068115
5.718160,-0.392184,-0.088616,10.051897,-0.321637,-0.122261,-0.004055,0.915527,0.457764,2.563477
5.728256,-0.412542,-0.219144,10.008188,-0.341995,-0.252790,-0.047764,0.946045,0.793457,6.072998
5.738353,-0.331111,0.101190,9.935140,-0.260564,0.067544,-0.120812,3.082275,-0.183105,8.117676
5.748446,-0.092807,-0.171843,10.053094,-0.022259,-0.205488,-0.002858,-0.915527,-1.129150,7.965088
5.758542,-0.380209,-0.229323,10.037527,-0.309662,-0.262969,-0.018425,-2.746582,-1.068115,4.241943
5.768638,-0.165855,-0.227527,10.105785,-0.095308,-0.261172,0.049833,-0.030518,-0.823975,-0.274658
5.778735,-0.071851,0.207169,9.698033,-0.001303,0.173524,-0.357919,-1.342773,0.305176,1.892090
5.788831,-0.009580,-0.016166,10.081236,0.060967,-0.049812,0.025284,-2.624512,0.701904,1.647949
5.798928,-0.226928,0.104782,9.866283,-0.156381,0.071137,-0.189669,-2.685547,0.915527,-1.953125
5.809025,-0.255070,0.029339,10.097402,-0.184522,-0.004307,0.041450,-3.662109,1.068115,-3.997803
5.819148,-0.259860,-0.089214,10.106384,-0.189312,-0.122860,0.050432,-1.098633,1.220703,-7.812500
5.829245,-0.486788,0.001796,10.131531,-0.416240,-0.031849,0.075579,-2.197266,1.037598,-7.476807
5.839341,-0.619711,0.169448,10.154284,-0.549164,0.135802,0.098332,-1.892090,1.007080,-7.720947
5.849435,-0.371228,0.098795,10.192006,-0.300680,0.065149,0.136054,1.220703,0.061035,-4.913330
5.859531,-0.191602,-0.642464,10.504556,-0.121054,-0.676110,0.448604,1.708984,0.061035,-3.448486
5.869627,-0.280816,-0.061672,10.095007,-0.210268,-0.095317,0.039055,2.807617,-0.854492,-3.540039
5.879724,-0.337698,0.184417,9.900412,-0.267150,0.150771,-0.155540,0.030518,-0.030518,-1.159668
5.889821,-0.362845,0.216749,9.960287,-0.292298,0.183104,-0.095665,-2.380371,0.427246,-6.866455
5.899916,0.193398,-0.162861,9.921967,0.263945,-0.196507,-0.133985,-2.105713,-0.396729,-6.622314
5.910012,-0.241298,-0.330513,10.036329,-0.170751,-0.364158,-0.019623,-0.244141,-0.305176,-5.249023
5.920132,-0.533491,-0.291594,9.904005,-0.462943,-0.325239,-0.151948,3.723145,-0.762939,-0.427246
5.930229,-0.317939,-0.282014,9.861493,-0.247391,-0.315659,-0.194459,1.556396,-1.037598,1.403809
5.940325,-0.231119,-0.092208,9.854907,-0.160572,-0.125854,-0.201045,1.251221,-0.305176,-0.427246
5.950421,-0.402962,0.051493,9.775272,-0.332414,0.017847,-0.280680,0.915527,0.274658,-0.518799
5.960518,-0.675396,0.056283,9.784852,-0.604848,0.022637,-0.271100,-1.312256,-0.701904,-2.197266
5.970614,-0.340692,0.078437,9.772877,-0.270144,0.044791,-0.283075,-2.532959,-1.190186,-3.021240
5.980710,-0.366438,0.205373,10.045311,-0.295890,0.171727,-0.010641,-1.953125,-0.305176,-3.875732
5.990807,-0.283810,0.117356,10.317744,-0.213262,0.083710,0.261792,-0.579834,1.770020,-4.547119
6.000903,-0.554447,0.428110,9.957892,-0.483899,0.394464,-0.098060,-2.258301,1.434326,-4.913330
6.010999,-0.146096,0.241897,10.291399,-0.075549,0.208251,0.235447,-2.563477,0.671387,-9.490967
6.021122,-0.198787,0.213755,10.029743,-0.128239,0.180110,-0.026209,-3.265381,0.305176,-7.568359
6.031218,-0.462239,-0.012574,10.259066,-0.391691,-0.046219,0.203114,-0.335693,-1.251221,-9.460449
6.041315,-0.332908,-0.097597,10.105785,-0.262360,-0.131243,0.049833,-0.427246,-1.831055,-7.232666
6.051410,-0.004790,-0.428110,9.944720,0.065758,-0.461755,-0.111232,-0.915527,-1.739502,-2.685547
6.061509,-0.455652,0.078437,10.178833,-0.385105,0.044791,0.122881,-0.885010,-0.305176,-2.746582
6.071607,-0.014370,-0.053888,10.178234,0.056177,-0.087533,0.122282,-2.410889,-0.030518,-3.112793
6.081704,0.261057,-0.374222,10.241702,0.331605,-0.407867,0.185750,1.098633,1.403809,0.518799
6.091800,-0.131127,-0.404160,9.908196,-0.060580,-0.437805,-0.147756,1.556396,0.488281,-1.342773
6.101897,-0.014370,0.072449,10.078242,0.056177,0.038804,0.022290,0.396729,-1.129150,-8.453369
6.111992,-0.165256,-0.366438,9.914183,-0.094709,-0.400084,-0.141769,0.823975,-0.305176,-7.598877
6.122114,-0.249681,-0.354463,9.876462,-0.179133,-0.388108,-0.179490,3.631592,0.549316,-11.016846
6.132211,-0.030536,-0.227527,10.208771,0.040011,-0.261172,0.152819,2.166748,-0.457764,-10.162354
6.142307,-0.937051,0.134720,10.121951,-0.866504,0.101074,0.065999,-0.885010,-0.274658,-7.781982
6.152400,-0.204774,-0.125140,10.086625,-0.134227,-0.158785,0.030673,-2.441406,-0.213623,-4.394531
6.162494,0.025746,-0.267045,10.333312,0.096294,-0.300690,0.277360,-1.739502,1.007080,-0.671387
6.172590,-0.373623,-0.376018,10.106982,-0.303076,-0.409664,0.051030,-1.831055,1.159668,-1.922607
6.182686,0.028141,-0.271236,10.142908,0.098689,-0.304881,0.086956,-4.058838,1.464844,0.061035
6.192783,0.056283,-0.774190,10.275233,0.126831,-0.807836,0.219281,-3.509521,0.579834,-1.098633
6.202879,-0.517324,0.058678,10.042317,-0.446777,0.025032,-0.013635,-1.678467,-0.640869,-2.471924
6.212976,-0.218546,-0.124541,10.006392,-0.147998,-0.158187,-0.049560,-0.823975,-1.983643,-1.098633
6.223098,0.310754,0.035327,10.163864,0.381301,0.001681,0.107912,-0.732422,-0.793457,-0.213623
6.233194,0.312550,0.114961,9.908795,0.383098,0.081315,-0.147157,-1.861572,0.640869,-1.586914
6.243291,0.261656,-0.302371,9.631571,0.332203,-0.336017,-0.424381,0.854492,2.929688,-6.195068
6.253388,-0.002994,0.194595,9.712403,0.067554,0.160950,-0.343549,0.885010,1.861572,-5.615234
6.263484,0.175435,-0.277224,10.379416,0.245983,-0.310869,0.323464,-0.091553,-0.549316,-11.413574
6.273580,0.564626,0.214953,10.129136,0.635173,0.181307,0.073184,2.014160,-0.946045,-10.437012
6.283676,0.311353,0.071851,9.995614,0.381900,0.038205,-0.060338,2.929688,-1.373291,-11.383057
6.293772,0.550854,-0.011975,9.975855,0.621402,-0.045621,-0.080097,1.800537,-1.464844,-10.437012
6.303868,0.420326,-0.435894,10.027348,0.490873,-0.469539,-0.028604,0.793457,-1.800537,-10.070801
6.313964,0.229323,0.198188,10.117161,0.299871,0.164542,0.061209,-1.129150,-0.732422,-8.483887
6.324084,0.180225,-0.006586,10.092612,0.250773,-0.040232,0.036660,-2.410889,-0.396729,-9.246826
6.334180,0.499362,-0.160466,10.067465,0.569909,-0.194112,0.011513,-1.159668,-0.854492,-8.636475
6.344276,0.086221,0.173639,9.834549,0.156768,0.139993,-0.221403,-0.671387,-0.732422,-7.934570
6.354372,0.282014,0.256267,9.644145,0.352561,0.222622,-0.411807,-0.915527,-0.061035,-3.204346
6.364496,0.311951,-0.126936,10.035132,0.382499,-0.160582,-0.020820,-0.732422,-0.183105,-2.166748
6.374592,0.423918,-0.266446,10.300380,0.494466,-0.300091,0.244428,-0.183105,-0.366211,-3.265381
6.384688,0.014969,0.262255,9.694440,0.085516,0.228609,-0.361512,1.586914,-0.213623,-3.173828
6.394784,0.240699,-0.164059,9.962084,0.311247,-0.197704,-0.093868,1.800537,-0.701904,-0.823975
6.404880,0.543071,-0.555645,10.302177,0.613618,-0.589290,0.246224,0.030518,-2.593994,-3.753662
6.414976,0.364043,-0.398172,10.192604,0.434591,-0.431818,0.136652,0.213623,-1.708984,-4.089355
6.425097,-0.174836,0.470023,10.050101,-0.104289,0.436377,-0.005851,1.220703,0.915527,2.655029
6.435192,0.031135,0.195194,9.850117,0.101683,0.161549,-0.205835,0.549316,1.403809,5.859375
6.445288,0.201780,-0.082628,9.731563,0.272328,-0.116274,-0.324389,-2.929688,0.854492,2.777100
6.455384,0.191602,0.063468,9.957892,0.262149,0.029822,-0.098060,-4.089355,0.579834,1.098633
6.465479,-0.283211,-0.054487,10.063872,-0.212664,-0.088132,0.007920,-3.997803,0.000000,-1.403809
6.475574,-0.155078,-0.189207,10.018367,-0.084530,-0.222852,-0.037585,-0.701904,-1.098633,-3.051758
6.485670,-0.088616,0.079634,10.159074,-0.018068,0.045989,0.103122,0.579834,-2.105713,-1.129150
6.495766,-0.449665,-0.076641,9.987231,-0.379117,-0.110286,-0.068721,1.190186,-0.793457,-0.823975
6.505861,-0.183818,0.201182,9.856104,-0.113270,0.167536,-0.199848,2.075195,0.213623,-0.183105
6.515956,-0.279619,-0.005988,9.904005,-0.209071,-0.039633,-0.151948,1.770020,0.701904,3.997803
6.526084,0.079036,-0.366438,9.857900,0.149583,-0.400084,-0.198052,1.434326,2.777100,6.744385
6.536180,-0.181423,-0.152084,10.153685,-0.110875,-0.185729,0.097733,1.129150,2.349854,7.446289
6.546277,-0.574206,-0.037123,9.878857,-0.503658,-0.070768,-0.177095,1.220703,1.800537,4.638672
6.556375,-0.035327,-0.204774,10.092014,0.035221,-0.238420,0.036062,0.701904,1.678467,5.035400
6.566471,-0.111368,-0.074246,10.258467,-0.040821,-0.107891,0.202515,1.373291,1.708984,8.880615
6.576567,-0.171843,-0.265847,10.097402,-0.101295,-0.299493,0.041450,1.251221,1.464844,8.056641
6.586661,-0.105980,-0.109572,10.066866,-0.035432,-0.143218,0.010914,1.800537,0.518799,8.422852
6.596759,-0.076042,-0.097597,9.970466,-0.005494,-0.131243,-0.085486,1.281738,1.037598,9.979248
6.606856,-0.014370,-0.086819,10.195598,0.056177,-0.120465,0.139646,-0.732422,0.183105,8.636475
6.616954,0.049098,0.031135,10.232122,0.119645,-0.002510,0.176170,0.274658,-0.305176,3.784180
6.627077,-0.188608,0.052690,10.047706,-0.118060,0.019045,-0.008246,-0.366211,-0.579834,5.035400
6.637173,-0.202978,-0.183818,10.122550,-0.132430,-0.217463,0.066598,1.434326,-1.312256,4.425049
6.647271,-0.149090,-0.250878,9.968670,-0.078542,-0.284524,-0.087282,5.249023,-0.854492,4.547119
6.657367,-0.213755,-0.362247,10.006990,-0.143208,-0.395892,-0.048962,6.805420,0.335693,4.333496
6.667464,-0.422122,0.079634,9.959090,-0.351575,0.045989,-0.096862,8.361816,2.746582,5.096436
6.677561,0.017364,-0.667013,10.197993,0.087911,-0.700658,0.142041,3.143311,0.793457,6.988525
6.687657,-0.028740,-0.238304,10.349478,0.041807,-0.271950,0.293526,3.753662,-0.091553,-1.770020
6.697753,-0.416733,0.407752,10.287208,-0.346186,0.374107,0.231256,0.762939,-0.244141,-3.204346
6.707850,-0.201182,-0.154479,10.404564,-0.130634,-0.188124,0.348612,-0.762939,-1.434326,-6.469727
6.717947,-0.319735,0.171843,10.172247,-0.249188,0.138197,0.116295,1.129150,-1.037598,-6.866455
6.728067,-0.990341,0.422122,9.779464,-0.919793,0.388477,-0.276489,-3.204346,-1.831055,-5.371094
6.738164,-0.379012,-0.473615,9.835746,-0.308464,-0.507261,-0.220206,-3.906250,-1.739502,-5.187988
6.748262,-0.455054,0.286804,9.818981,-0.384506,0.253158,-0.236971,-3.967285,-0.335693,-3.326416
6.758359,-1.043031,0.276625,10.308164,-0.972483,0.242979,0.252212,-6.378174,-0.427246,-4.669189
6.768456,-0.326321,0.214953,9.945917,-0.255774,0.181307,-0.110035,-2.929688,0.915527,-2.349854
6.778553,-0.584984,-0.144899,10.135124,-0.514436,-0.178544,0.079172,-2.258301,0.335693,-3.784180
6.788650,-0.565823,0.197589,9.908196,-0.495276,0.163944,-0.147756,-3.143311,0.701904,-2.807617
6.798746,-0.181423,-0.041913,10.124945,-0.110875,-0.075558,0.068993,-2.441406,-0.579834,-3.021240
6.808843,-0.201780,-0.026944,10.102192,-0.131233,-0.060590,0.046240,-0.976562,-1.312256,-2.319336
6.818941,-0.221539,0.032932,9.960287,-0.150992,-0.000714,-0.095665,-1.220703,0.244141,0.030518
6.829062,-0.361648,-0.052690,10.036329,-0.291100,-0.086336,-0.019623,-2.044678,0.366211,-0.122070
6.839159,-0.051493,-0.008981,10.001003,0.019055,-0.042627,-0.054949,-1.525879,0.823975,0.061035
6.849255,0.035327,-0.067061,10.025552,0.105874,-0.100706,-0.030400,-1.220703,-0.396729,-0.610352
6.859351,0.002994,0.222737,9.859098,0.073541,0.189091,-0.196854,2.258301,0.549316,-0.610352
6.869447,-0.292791,-0.139510,9.989028,-0.222244,-0.173155,-0.066924,-1.922607,0.885010,2.441406
6.879544,-0.299976,0.026345,9.962682,-0.229429,-0.007300,-0.093270,-1.403809,1.464844,1.464844
6.889642,0.185614,0.059277,10.002799,0.256162,0.025631,-0.053153,-0.030518,1.068115,3.204346
6.899738,0.472418,-0.232916,10.311757,0.542965,-0.266561,0.255805,-1.190186,1.159668,2.288818
6.909835,0.477208,-0.092807,10.306368,0.547755,-0.126453,0.250416,-0.885010,0.579834,0.244141
6.919931,0.195194,-0.212558,9.803414,0.265742,-0.246204,-0.252538,-1.861572,1.129150,1.007080
6.930057,0.446671,-0.049697,10.407557,0.517219,-0.083342,0.351605,-1.770020,-0.274658,-2.746582
6.940154,0.401166,0.031135,10.162068,0.471713,-0.002510,0.106116,0.335693,-1.037598,-3.295898
6.950251,0.095202,-0.043110,10.197394,0.165750,-0.076756,0.141442,-0.244141,-0.793457,-2.044678
6.960349,-0.062271,-0.017963,9.850715,0.008277,-0.051608,-0.205237,0.671387,0.152588,-0.732422
6.970445,0.026345,-0.051493,9.923763,0.096893,-0.085138,-0.132189,-1.434326,-0.122070,0.305176
6.980542,-0.013173,-0.444875,10.197993,0.057375,-0.478520,0.142041,-1.159668,-0.885010,-3.295898
6.990638,0.151485,-0.212558,10.070458,0.222033,-0.246204,0.014506,-1.220703,-1.068115,-2.929688
7.000735,0.080832,0.076641,9.926757,0.151379,0.042995,-0.129195,-0.152588,-1.525879,-2.838135
7.010832,0.050295,-0.448467,9.943522,0.120843,-0.482113,-0.112430,0.183105,-1.007080,-0.915527
7.020963,0.234113,-0.390987,10.100995,0.304661,-0.424632,0.045043,-0.640869,-1.007080,-0.061035
7.031085,0.248483,-0.131127,10.172845,0.319031,-0.164773,0.116893,1.159668,-0.793457,1.770020
7.041181,0.192799,-0.085622,9.999207,0.263347,-0.119267,-0.056745,1.159668,-0.427246,0.640869
7.051279,0.039518,-0.080233,10.138716,0.110065,-0.113879,0.082764,1.312256,-0.305176,-2.441406
7.061375,-0.006586,0.280217,9.886042,0.063961,0.246572,-0.169910,1.068115,0.000000,-2.838135
7.071473,-0.080832,0.039518,10.017169,-0.010284,0.005872,-0.038783,0.793457,0.000000,-4.333496
7.081570,-0.141905,0.081431,9.838740,-0.071357,0.047785,-0.217212,0.915527,-0.549316,-4.699707
7.091666,-0.182620,-0.025148,10.121353,-0.112073,-0.058793,0.065400,1.342773,-0.396729,-4.486084
7.101763,-0.309556,-0.131127,10.009984,-0.239009,-0.164773,-0.045968,-1.922607,-0.305176,-3.631592
7.111861,0.085622,-0.189207,10.115365,0.156169,-0.222852,0.059413,-1.190186,-0.396729,-3.265381
7.121958,0.152084,-0.236508,10.050699,0.222631,-0.270154,-0.005253,0.000000,-0.701904,-0.244141
7.132079,-0.138312,-0.292192,9.969269,-0.067765,-0.325838,-0.086683,0.915527,-0.366211,0.701904
7.142173,-0.072449,-0.278421,10.025552,-0.001902,-0.312067,-0.030400,0.244141,-0.030518,1.831055
7.152269,0.017963,-0.141306,10.173444,0.088510,-0.174952,0.117492,0.091553,0.396729,2.075195
7.162365,0.223336,-0.245490,10.257270,0.293883,-0.279135,0.201318,-1.342773,0.183105,1.312256
7.172488,0.202379,-0.016765,10.183024,0.272927,-0.050411,0.127072,0.061035,-0.091553,-1.403809
7.182585,0.314945,-0.002994,9.992620,0.385493,-0.036639,-0.063332,0.366211,-0.122070,-2.075195
7.192682,0.216749,-0.077838,10.177037,0.287297,-0.111484,0.121085,0.183105,-0.030518,-2.044678
7.202779,0.064067,-0.011975,10.105186,0.134614,-0.045621,0.049234,-0.213623,-0.274658,-2.777100
7.212876,0.207768,-0.130529,10.020163,0.278315,-0.164174,-0.035789,0.427246,0.213623,-3.509521
7.222973,-0.032932,0.122146,9.803414,0.037616,0.088500,-0.252538,-0.610352,0.488281,-4.302979
7.233094,-0.143701,-0.028141,10.135723,-0.073154,-0.061787,0.079771,-0.549316,0.396729,-3.814697
7.243191,-0.280816,-0.229922,10.268646,-0.210268,-0.263567,0.212694,-0.579834,-0.061035,-1.495361
7.253288,-0.349673,-0.062271,10.024354,-0.279125,-0.095916,-0.031598,-0.335693,1.007080,-1.892090
7.263386,-0.258063,-0.137115,10.150093,-0.187516,-0.170760,0.094141,-1.037598,1.068115,0.244141
7.273483,-0.032932,-0.247885,10.227931,0.037616,-0.281530,0.171979,-0.213623,1.251221,-0.152588
7.283580,-0.416135,0.094603,10.069860,-0.345587,0.060958,0.013908,0.396729,1.068115,2.777100
7.293675,-0.673599,-0.166454,10.038126,-0.603052,-0.200099,-0.017826,-1.220703,0.823975,1.770020
7.303771,-0.613724,0.108973,9.974658,-0.543176,0.075328,-0.081294,-1.953125,0.305176,2.624512
7.313867,-0.499960,-0.231119,10.093810,-0.429413,-0.264765,0.037858,-1.617432,0.732422,5.493164
7.323963,-0.633483,0.139510,9.916578,-0.562935,0.105864,-0.139374,0.640869,0.457764,7.293701
7.334083,-0.667612,-0.155676,10.045311,-0.597064,-0.189322,-0.010641,0.579834,-0.915527,8.880615
7.344179,-0.678389,0.271236,9.992620,-0.607842,0.237590,-0.063332,1.220703,-1.525879,9.094238
7.354275,-0.708926,0.149090,9.937535,-0.638378,0.115444,-0.118417,-0.610352,-1.281738,11.901855
7.364373,-0.367635,-0.427511,10.098001,-0.297088,-0.461157,0.042049,0.274658,-0.488281,11.993408
7.374469,-0.550256,-0.164059,9.835148,-0.479708,-0.197704,-0.220804,2.380371,-0.091553,10.101318
7.384563,-0.586780,0.199984,9.779464,-0.516232,0.166339,-0.276489,5.187988,1.312256,10.437012
7.394659,-0.748444,-0.146096,10.359058,-0.677896,-0.179742,0.303106,2.502441,1.495361,12.237549
7.404755,-0.446072,-0.055684,10.192604,-0.375525,-0.089330,0.136652,0.213623,0.488281,10.253906
7.414851,-0.399968,0.317340,9.789044,-0.329421,0.283695,-0.266908,-0.091553,0.762939,8.666992
7.424946,-0.352068,0.105381,9.730366,-0.281520,0.071735,-0.325586,-1.007080,0.183105,11.505127
7.435066,-0.366438,-0.108375,9.957892,-0.295890,-0.142020,-0.098060,1.159668,-0.427246,10.681152
7.445162,-0.306563,-0.093406,9.987231,-0.236015,-0.127051,-0.068721,1.342773,-0.427246,14.495850
7.455259,-0.068857,-0.010179,10.209370,0.001691,-0.043824,0.153417,1.678467,0.579834,15.625000
7.465355,0.334704,-0.128134,10.086026,0.405252,-0.161779,0.030074,0.396729,0.396729,14.221191
7.475451,0.172441,0.088017,9.978849,0.242989,0.054371,-0.077103,0.915527,0.823975,10.772705
7.485548,0.117356,-0.119152,10.005793,0.187904,-0.152798,-0.050159,1.037598,-0.274658,9.643555
7.495644,0.216749,0.303569,9.707613,0.287297,0.269923,-0.348339,0.915527,-0.427246,9.979248
7.505740,0.244891,0.129331,9.892029,0.315438,0.095686,-0.163923,-0.061035,0.335693,9.185791
7.515836,0.306563,0.065863,10.100995,0.377110,0.032218,0.045043,-1.953125,0.732422,6.744385
7.525936,-0.001198,0.175435,9.988429,0.069350,0.141790,-0.067523,-1.159668,1.007080,3.967285
7.536063,0.047302,0.011975,9.947115,0.117849,-0.021670,-0.108837,-1.220703,1.007080,4.638672
7.546158,0.095202,0.526904,10.174642,0.165750,0.493259,0.118690,-0.946045,0.671387,2.868652
7.556251,0.085622,-0.076042,10.088421,0.156169,-0.109687,0.032469,-2.838135,-0.061035,2.044678
7.566349,0.355660,-0.555046,10.618319,0.426208,-0.588691,0.562367,-5.126953,2.105713,1.403809
7.576446,0.383802,-0.138312,10.305170,0.454349,-0.171958,0.249218,1.403809,2.014160,1.922607
7.586543,0.032333,-0.207169,10.024953,0.102880,-0.240815,-0.030999,0.885010,1.586914,3.662109
7.596639,0.167651,-0.047900,9.975855,0.238199,-0.081546,-0.080097,2.166748,1.403809,2.227783
7.606736,0.201182,-0.328118,10.025552,0.271729,-0.361763,-0.030400,1.983643,0.915527,2.838135
7.616832,-0.141905,-0.051493,9.901011,-0.071357,-0.085138,-0.154941,-0.823975,-0.213623,-0.610352
7.626929,-0.147892,0.011376,9.927356,-0.077345,-0.022269,-0.128596,-0.671387,-1.159668,-1.098633
7.637054,-0.028740,-0.191003,9.929751,0.041807,-0.224648,-0.126201,-0.457764,-1.068115,-0.274658
7.647150,-0.198787,0.165855,9.973460,-0.128239,0.132210,-0.082492,0.183105,-0.396729,-1.922607
7.657247,-0.264051,0.075443,9.750125,-0.193503,0.041798,-0.305828,-0.701904,1.770020,-2.227783
7.667344,-0.034129,-0.111368,9.777667,0.036419,-0.145014,-0.278285,0.091553,1.647949,-2.502441
7.677440,-0.083227,0.280816,9.899214,-0.012679,0.247171,-0.156738,0.091553,0.701904,-3.814697
7.687536,0.255668,0.059875,9.851913,0.326216,0.026230,-0.204039,0.335693,0.396729,-4.241943
7.697632,-0.067659,-0.020358,10.060878,0.002888,-0.054003,0.004926,0.305176,0.244141,-5.432129
7.707728,0.166454,-0.308359,10.090217,0.237001,-0.342004,0.034265,-0.579834,-0.335693,-7.080078
7.717825,0.208367,0.015568,10.170450,0.278914,-0.018078,0.114498,0.000000,-0.305176,-8.392334
7.727921,-0.044308,0.028141,9.866882,0.026240,-0.005504,-0.189070,-1.556396,0.671387,-8.605957
7.738040,-0.034728,-0.222138,10.202184,0.035820,-0.255784,0.146232,-1.647949,1.007080,-6.195068
7.748137,-0.029339,-0.544268,10.135124,0.041209,-0.577914,0.079172,-1.556396,-0.122070,-5.218506
7.758234,0.153281,-0.129331,10.122550,0.223829,-0.162977,0.066598,-0.671387,-0.640869,-4.882812
7.768332,0.010179,-0.143102,10.030941,0.080726,-0.176748,-0.025011,-0.518799,-0.915527,-4.119873
7.778428,-0.037123,0.070653,9.962682,0.033425,0.037008,-0.093270,-0.549316,-0.610352,-2.380371
7.788525,-0.150886,-0.304766,10.190209,-0.080339,-0.338412,0.134257,-0.823975,-0.427246,-0.732422
7.798624,0.119152,-0.411345,10.159673,0.189700,-0.444990,0.103721,3.356934,-0.701904,-1.861572
7.808721,-0.307760,0.196392,9.972861,-0.237212,0.162746,-0.083091,3.906250,-0.274658,-1.037598
7.818818,-0.155078,-0.073647,9.800420,-0.084530,-0.107292,-0.255532,0.030518,-0.671387,2.838135
7.828915,-0.101788,-0.105980,10.055490,-0.031241,-0.139625,-0.000463,-1.953125,-1.129150,3.784180
7.839038,0.192200,0.083826,10.024354,0.262748,0.050180,-0.031598,-3.326416,-0.640869,2.716064
7.849135,-0.162263,-0.217348,10.275233,-0.091715,-0.250994,0.219281,-3.417969,-1.464844,1.007080
7.859232,-0.015568,-0.186213,10.035731,0.054980,-0.219858,-0.020221,-1.922607,-1.098633,0.823975
7.869328,0.023351,-0.355660,10.026749,0.093899,-0.389306,-0.029203,-1.586914,-0.335693,2.593994
7.879426,0.167053,-0.300575,9.999805,0.237600,-0.334220,-0.056147,-1.556396,-0.579834,1.617432
7.889523,0.026944,0.225132,10.086026,0.097492,0.191486,0.030074,0.152588,-0.305176,1.464844
7.899616,-0.088017,0.032932,9.880054,-0.017469,-0.000714,-0.175898,0.946045,-1.373291,1.434326
7.909713,-0.214354,0.041913,10.086625,-0.143807,0.008267,0.030673,0.335693,-0.823975,-0.244141
7.919810,0.241897,-0.206570,9.947115,0.312445,-0.240216,-0.108837,2.197266,0.091553,-0.518799
7.929903,-0.056882,-0.115560,10.142908,0.013666,-0.149205,0.086956,1.953125,-0.305176,-0.366211
7.940024,0.217348,-0.149689,10.069860,0.287896,-0.183334,0.013908,3.204346,0.000000,-2.349854
7.950121,0.340093,-0.056283,9.823173,0.410640,-0.089928,-0.232779,2.929688,-0.122070,-2.563477
7.960217,-0.191602,0.080233,9.805210,-0.121054,0.046588,-0.250742,1.281738,0.701904,-3.540039
7.970330,-0.085023,0.014370,10.041718,-0.014476,-0.019275,-0.014234,0.457764,1.464844,-3.570557
7.980426,-0.146096,0.247286,9.953701,-0.075549,0.213640,-0.102251,0.030518,0.915527,-2.624512
7.990523,0.034728,-0.180225,10.137519,0.105275,-0.213871,0.081567,-1.251221,0.640869,-4.730225
8.000621,-0.205373,0.094603,9.942325,-0.134825,0.060958,-0.113627,-0.183105,-0.244141,-6.195068
8.010718,-0.094005,-0.072449,10.156080,-0.023457,-0.106095,0.100128,0.488281,-0.579834,-4.730225
8.020814,0.043110,-0.143102,9.848320,0.113658,-0.176748,-0.207632,1.129150,-0.823975,-3.906250
8.030911,0.069456,-0.081431,10.045311,0.140003,-0.115076,-0.010641,1.007080,-1.739502,-6.072998
8.041109,-0.056882,-0.145497,10.159673,0.013666,-0.179143,0.103721,0.976562,-1.739502,-6.744385
8.051200,-0.279619,-0.000599,9.956096,-0.209071,-0.034244,-0.099856,0.396729,-1.861572,-7.141113
8.061290,-0.071252,0.299976,10.331516,-0.000704,0.266331,0.275563,0.244141,-1.800537,-6.835938
8.071380,0.061073,-0.173639,10.038724,0.131621,-0.207284,-0.017228,0.366211,-0.854492,-5.096436
8.081470,-0.022154,-0.097597,10.030941,0.048394,-0.131243,-0.025011,0.671387,-0.885010,-5.920410
8.091560,-0.144300,-0.203577,10.151290,-0.073752,-0.237222,0.095338,0.000000,-1.068115,-5.828857
8.101649,-0.069456,-0.186812,10.112970,0.001092,-0.220457,0.057018,-0.122070,-0.396729,-2.960205
8.111739,-0.080233,-0.331111,10.168055,-0.009686,-0.364757,0.112103,-0.274658,-0.366211,-1.770020
8.121829,-0.109572,0.131726,10.086026,-0.039025,0.098081,0.030074,-1.281738,0.030518,-0.732422
8.131918,0.226329,-0.093406,10.087822,0.296877,-0.127051,0.031870,-1.495361,0.518799,-0.762939
8.142073,0.130529,-0.367037,10.116563,0.201076,-0.400682,0.060610,-1.434326,0.793457,-1.068115
8.152167,0.218546,0.006586,9.942325,0.289093,-0.027059,-0.113627,0.305176,0.457764,-2.868652
8.162264,0.308958,-0.008383,10.093211,0.379505,-0.042028,0.037259,-0.762939,0.610352,-4.425049
8.172361,0.295186,-0.158071,9.936337,0.365734,-0.191717,-0.119615,0.030518,0.152588,-8.056641
8.182457,0.112566,0.079634,9.953701,0.183113,0.045989,-0.102251,0.762939,0.457764,-8.422852
8.192553,-0.119152,-0.185015,10.185419,-0.048605,-0.218661,0.129467,1.678467,-0.335693,-7.232666
8.202649,-0.079634,-0.086819,10.403965,-0.009087,-0.120465,0.348013,2.136230,-1.312256,-7.171631
8.212745,0.038919,-0.176034,10.175839,0.109467,-0.209679,0.119887,3.417969,-2.288818,-5.889893
8.222843,-0.286804,0.037123,10.031539,-0.216256,0.003477,-0.024413,3.509521,-2.227783,-5.767822
8.232941,-0.053888,-0.161664,10.095606,0.016660,-0.195309,0.039654,3.784180,-2.136230,-5.584717
8.243063,-0.358654,0.355062,9.918973,-0.288107,0.321416,-0.136979,2.044678,-1.739502,-5.432129
8.253160,-0.023351,-0.109572,10.084230,0.047196,-0.143218,0.028278,0.640869,-1.190186,-5.493164
8.263257,-0.343685,0.038320,10.089020,-0.273138,0.004675,0.033068,-0.305176,-0.457764,-4.547119
8.273354,-0.162861,0.060474,10.086625,-0.092314,0.026829,0.030673,-0.701904,-0.732422,-4.150391
8.283450,-0.040117,-0.014370,10.076446,0.030431,-0.048016,0.020494,1.129150,-1.464844,-0.854492
8.293546,0.148491,0.043110,9.945917,0.219039,0.009465,-0.110035,0.061035,-1.190186,-0.488281
8.303643,0.341889,0.000599,10.190209,0.412437,-0.033047,0.134257,-0.762939,-0.457764,0.457764
8.313735,0.674797,-0.108375,10.154883,0.745344,-0.142020,0.098931,-1.434326,0.335693,-0.091553
8.323832,0.537682,-0.038320,10.121353,0.608229,-0.071966,0.065400,-1.220703,0.732422,-0.549316
8.333927,0.510738,-0.019160,10.123748,0.581285,-0.052806,0.067796,-1.739502,1.220703,-2.624512
8.344047,0.477806,-0.071252,10.145303,0.548354,-0.104897,0.089351,-1.464844,1.098633,-2.166748
8.354143,0.518522,-0.065863,9.883647,0.589069,-0.099509,-0.172305,-1.281738,0.976562,-1.129150
8.364239,0.531096,-0.168849,10.081236,0.601643,-0.202494,0.025284,-0.823975,0.518799,-2.075195
8.374335,0.359253,-0.075443,9.948312,0.429800,-0.109089,-0.107640,-0.457764,0.488281,-2.502441
8.384430,0.445474,-0.129930,10.072255,0.516021,-0.163575,0.016303,0.518799,0.122070,-1.800537
8.394525,0.344284,-0.105381,10.102192,0.414832,-0.139026,0.046240,1.129150,-0.518799,-2.136230
8.404622,0.441282,0.104782,9.923165,0.511830,0.071137,-0.132787,1.037598,-0.549316,-1.556396
8.414718,0.350870,0.035327,9.956695,0.421418,0.001681,-0.099257,0.946045,-0.396729,-1.556396
8.424813,0.434097,0.067061,10.076446,0.504645,0.033415,0.020494,1.312256,-0.396729,-1.861572
8.434909,0.493973,0.113763,10.012379,0.564520,0.080118,-0.043573,1.464844,-0.091553,-1.983643
8.445120,0.479603,-0.095801,10.055490,0.550150,-0.129446,-0.000463,0.732422,-0.305176,-2.563477
8.455216,0.543071,-0.129930,10.035132,0.613618,-0.163575,-0.020820,0.396729,-0.427246,-3.601074
8.465312,0.510738,-0.135319,10.067465,0.581285,-0.168964,0.011513,0.305176,-0.885010,-4.943848
8.475409,0.618514,-0.187410,10.159673,0.689061,-0.221056,0.103721,-1.312256,-1.770020,-5.187988
8.485506,0.383802,0.015568,10.218950,0.454349,-0.018078,0.162998,-1.312256,-2.105713,-5.950928
8.495602,0.589175,-0.079036,10.132130,0.659722,-0.112681,0.076178,0.061035,-2.014160,-6.988525
8.505695,0.501757,-0.110171,10.008787,0.572304,-0.143816,-0.047165,1.129150,-1.922607,-9.460449
8.515788,0.495769,-0.103585,10.007589,0.566317,-0.137230,-0.048363,0.549316,-1.708984,-11.047363
8.525886,0.420925,0.026345,10.007589,0.491472,-0.007300,-0.048363,0.701904,-1.342773,-11.352539
8.535984,0.368833,-0.031734,10.029743,0.439381,-0.065380,-0.026209,0.061035,-1.220703,-10.986328
8.546182,0.325723,0.046104,10.084230,0.396270,0.012459,0.028278,-0.732422,-1.159668,-11.779785
8.556270,0.404758,0.031135,9.996213,0.475306,-0.002510,-0.059739,-0.549316,-1.037598,-11.749268
8.566359,0.270038,-0.029938,10.016570,0.340586,-0.063583,-0.039382,-0.671387,-1.403809,-12.939453
8.576448,0.326920,0.055684,10.034533,0.397468,0.022039,-0.021419,-0.518799,-1.159668,-12.695312
8.586538,0.326920,-0.104782,10.048304,0.397468,-0.138428,-0.007648,-0.518799,-1.434326,-12.054443
8.596627,0.372426,-0.115560,10.159074,0.442973,-0.149205,0.103122,-0.518799,-1.617432,-12.420654
8.606717,0.251477,-0.105381,10.129136,0.322025,-0.139026,0.073184,-0.244141,-1.800537,-12.268066
8.616807,0.224533,-0.022154,10.099797,0.295081,-0.055799,0.043845,0.061035,-2.075195,-11.260986
8.626896,0.388592,-0.052092,10.087224,0.459139,-0.085737,0.031271,0.671387,-1.922607,-10.711670
8.636985,0.363444,-0.043110,10.052496,0.433992,-0.076756,-0.003456,0.976562,-2.105713,-9.246826
8.647144,0.283810,0.041913,10.018367,0.354357,0.008267,-0.037585,-0.122070,-2.441406,-8.544922
8.657243,0.558040,0.050894,10.058483,0.628587,0.017249,0.002531,-0.701904,-2.014160,-8.392334
8.667340,0.425116,0.076641,10.014774,0.495664,0.042995,-0.041178,-0.579834,-1.892090,-8.605957
8.677437,0.347278,0.050295,10.021360,0.417825,0.016650,-0.034592,-1.007080,-1.403809,-7.293701
8.687532,0.464035,-0.048499,10.083032,0.534583,-0.082145,0.027080,-0.762939,-1.281738,-6.713867
8.697629,0.515528,0.049098,10.087822,0.586075,0.015452,0.031870,-0.579834,-1.129150,-5.981445
8.707725,0.562231,0.037123,10.060280,0.632778,0.003477,0.004328,-0.640869,-1.068115,-5.767822
8.717832,0.385598,0.001198,10.062076,0.456146,-0.032448,0.006124,-0.915527,-1.037598,-5.798340
8.727929,0.553848,0.009580,10.054891,0.624396,-0.024065,-0.001061,-0.854492,-0.885010,-4.882812
8.738025,0.467628,-0.050894,10.062076,0.538175,-0.084540,0.006124,-0.885010,-0.793457,-5.004883
8.748199,0.498763,-0.074246,10.075847,0.569310,-0.107891,0.019895,-0.854492,-0.579834,-3.692627
8.758289,0.467029,-0.063468,10.057885,0.537576,-0.097114,0.001932,-0.854492,-0.457764,-3.021240
8.768378,0.510738,-0.085023,10.044712,0.581285,-0.118669,-0.011240,-0.854492,-0.396729,-2.471924
8.778467,0.298180,-0.098795,10.048903,0.368727,-0.132440,-0.007049,-0.640869,-0.244141,-1.312256
8.788556,0.329914,-0.101788,10.053094,0.400461,-0.135434,-0.002858,-0.549316,-0.152588,-0.335693
8.798645,0.278421,-0.090412,10.065070,0.348969,-0.124058,0.009118,-0.518799,-0.091553,1.281738
8.808735,0.234712,-0.070653,10.062076,0.305259,-0.104299,0.006124,-0.396729,-0.061035,1.800537
8.818824,0.157473,-0.091609,10.058483,0.228020,-0.125255,0.002531,-0.366211,-0.030518,2.258301
8.828914,0.020358,-0.044308,10.054891,0.090905,-0.077953,-0.001061,-0.396729,0.030518,2.471924
8.839003,0.013771,-0.030536,10.063273,0.084319,-0.064182,0.007321,-0.457764,0.061035,2.593994
8.849158,-0.162263,-0.048499,10.076446,-0.091715,-0.082145,0.020494,-0.305176,0.030518,2.227783
8.859251,-0.244891,-0.045505,10.077643,-0.174343,-0.079151,0.021691,-0.213623,0.000000,2.349854
8.869348,-0.440684,-0.121547,10.066866,-0.370136,-0.155193,0.010914,-0.213623,-0.122070,4.058838
8.879444,-0.377814,-0.130529,10.057885,-0.307267,-0.164174,0.001932,-0.366211,-0.091553,5.828857
8.889540,-0.396376,-0.147294,10.059082,-0.325828,-0.180939,0.003130,-0.518799,-0.091553,8.666992
8.899637,-0.240699,-0.112566,10.103989,-0.170152,-0.146211,0.048037,-0.610352,-0.213623,9.521484
8.909733,-0.248483,-0.022753,10.044113,-0.177936,-0.056398,-0.011839,-0.640869,-0.274658,10.467529
8.919828,-0.296982,-0.079036,10.027947,-0.226435,-0.112681,-0.028005,-0.366211,-0.488281,11.413574
8.929924,-0.047900,-0.148491,10.079440,0.022647,-0.182137,0.023488,-0.427246,-0.671387,12.603760
8.940020,0.068258,-0.044907,10.056687,0.138806,-0.078552,0.000735,-0.183105,-0.488281,14.465332
8.950141,0.252076,-0.028141,10.041119,0.322623,-0.061787,-0.014833,0.030518,-0.396729,14.587402
8.960237,0.490979,0.009580,10.050699,0.561527,-0.024065,-0.005253,0.183105,-0.244141,12.268066
8.970348,0.664019,-0.029938,10.051298,0.734567,-0.063583,-0.004654,0.183105,-0.183105,10.620117
8.980445,0.561033,-0.016166,10.047706,0.631581,-0.049812,-0.008246,0.061035,-0.213623,7.354736
8.990541,0.497565,-0.068258,10.055490,0.568113,-0.101904,-0.000463,0.000000,-0.183105,6.164551
9.000637,0.467029,-0.071252,10.054891,0.537576,-0.104897,-0.001061,-0.030518,-0.152588,5.035400
9.010733,0.309556,-0.076042,10.057286,0.380104,-0.109687,0.001334,-0.030518,-0.061035,3.143311
9.020828,0.237706,-0.078437,10.054292,0.308253,-0.112082,-0.001660,-0.061035,-0.061035,2.441406
9.030932,0.141905,-0.079036,10.059681,0.212452,-0.112681,0.003729,-0.061035,0.000000,1.525879
9.041029,0.104183,-0.080832,10.059681,0.174731,-0.114477,0.003729,-0.061035,0.000000,1.190186
9.051214,0.074246,-0.074246,10.058483,0.144793,-0.107891,0.002531,-0.061035,-0.030518,0.701904
9.061305,0.035327,-0.076042,10.060280,0.105874,-0.109687,0.004328,-0.030518,0.000000,0.518799
9.071395,0.022154,-0.077838,10.058483,0.092701,-0.111484,0.002531,-0.030518,0.030518,0.396729
9.081486,0.000000,-0.075443,10.056088,0.070548,-0.109089,0.000136,0.000000,0.061035,0.213623
9.091574,0.001198,-0.079036,10.055490,0.071745,-0.112681,-0.000463,0.000000,0.030518,0.152588
9.101661,0.005389,-0.084424,10.057286,0.075936,-0.118070,0.001334,-0.030518,0.000000,0.122070
9.111749,0.001198,-0.082628,10.053094,0.071745,-0.116274,-0.002858,-0.030518,0.030518,0.122070
9.121839,0.002395,-0.082628,10.053693,0.072943,-0.116274,-0.002259,-0.030518,-0.030518,0.030518
9.131929,-0.002994,-0.083826,10.065668,0.067554,-0.117471,0.009716,-0.030518,0.000000,0.061035
9.142019,-0.008383,-0.079634,10.068662,0.062165,-0.113280,0.012710,-0.030518,-0.030518,0.030518
9.152181,-0.003593,-0.073647,10.062675,0.066955,-0.107292,0.006723,-0.030518,0.000000,0.030518
9.162278,-0.006586,-0.075443,10.062076,0.063961,-0.109089,0.006124,-0.030518,0.000000,0.061035
9.172375,0.037722,-0.058079,10.063872,0.108269,-0.091725,0.007920,0.030518,-0.030518,0.366211
9.182472,0.136516,0.065264,10.052496,0.207064,0.031619,-0.003456,0.122070,0.000000,1.312256
9.192569,0.084424,-0.029339,10.057885,0.154972,-0.062985,0.001932,0.366211,0.122070,3.997803
9.202665,0.048499,-0.064067,10.059681,0.119047,-0.097712,0.003729,0.396729,0.122070,4.211426
9.212761,0.047900,-0.040117,10.056687,0.118448,-0.073762,0.000735,0.427246,0.152588,5.004883
9.222859,-0.118553,0.059277,10.057885,-0.048006,0.025631,0.001932,0.549316,0.183105,6.042480
9.232957,-0.137115,-0.007185,10.047107,-0.066567,-0.040831,-0.008845,0.610352,0.183105,6.713867
9.243055,-0.055684,-0.137714,10.062675,0.014863,-0.171359,0.006723,0.579834,0.244141,6.958008
9.253178,-0.034728,-0.151485,10.062076,0.035820,-0.185131,0.006124,0.457764,0.183105,6.256104
9.263274,-0.016765,-0.135917,10.053094,0.053782,-0.169563,-0.002858,0.335693,0.152588,5.035400
9.273371,-0.001198,-0.148491,10.050699,0.069350,-0.182137,-0.005253,0.274658,0.152588,4.425049
9.283468,0.007784,-0.161065,10.057286,0.078331,-0.194711,0.001334,0.152588,0.122070,3.051758
9.293564,0.003593,-0.144899,10.067465,0.074140,-0.178544,0.011513,0.122070,0.091553,2.441406
9.303660,0.001796,-0.126936,10.063273,0.072344,-0.160582,0.007321,0.061035,0.030518,1.556396
9.313757,-0.007185,-0.111368,10.060280,0.063362,-0.145014,0.004328,0.061035,0.061035,1.251221
9.323854,-0.008383,-0.096400,10.055490,0.062165,-0.130045,-0.000463,0.091553,0.061035,1.068115
9.333950,-0.013173,-0.077239,10.059082,0.057375,-0.110885,0.003130,0.091553,0.061035,0.762939
9.344047,-0.020358,-0.067659,10.063872,0.050190,-0.101305,0.007920,0.091553,0.030518,0.762939
9.354302,-0.025148,-0.043709,10.054292,0.045400,-0.077355,-0.001660,0.152588,0.030518,1.037598
9.364399,-0.013173,-0.077239,10.048903,0.057375,-0.110885,-0.007049,0.152588,0.061035,1.251221
9.376383,-0.009580,-0.095801,10.051897,0.060967,-0.129446,-0.004055,0.152588,0.061035,1.037598
9.386493,-0.009580,-0.089813,10.059681,0.060967,-0.123459,0.003729,0.152588,0.061035,0.915527
9.396607,-0.011975,-0.069456,10.057286,0.058572,-0.103101,0.001334,0.183105,0.091553,0.793457
9.406717,-0.020358,-0.015568,10.042317,0.050190,-0.049213,-0.013635,0.213623,0.091553,0.976562
9.416826,-0.044308,0.032932,10.045909,0.026240,-0.000714,-0.010043,0.244141,0.122070,2.563477
9.426925,-0.023950,-0.033530,10.046508,0.046597,-0.067176,-0.009444,0.213623,0.122070,3.173828
9.437069,-0.030536,-0.020358,10.048903,0.040011,-0.054003,-0.007049,0.183105,0.122070,3.479004
9.447200,-0.027543,-0.022154,10.051298,0.043005,-0.055799,-0.004654,0.671387,0.366211,5.065918
9.457329,0.010179,-0.110770,10.046508,0.080726,-0.144415,-0.009444,0.579834,0.335693,5.187988
9.467424,0.017963,-0.169448,10.052496,0.088510,-0.203093,-0.003456,0.305176,0.244141,3.601074
9.477541,0.018561,-0.147294,10.059681,0.089109,-0.180939,0.003729,0.244141,0.183105,2.807617
9.487645,0.016166,-0.126337,10.067465,0.086714,-0.159983,0.011513,0.091553,0.091553,1.647949
9.497751,0.004191,-0.098795,10.068063,0.074739,-0.132440,0.012111,0.061035,0.091553,1.281738
9.507864,0.005389,-0.089214,10.066866,0.075936,-0.122860,0.010914,0.000000,0.091553,1.007080
9.517974,0.001198,-0.083826,10.059681,0.071745,-0.117471,0.003729,-0.030518,0.030518,0.610352
9.528061,0.001198,-0.082029,10.053693,0.071745,-0.115675,-0.002259,-0.030518,0.030518,0.488281
9.538144,-0.010179,-0.077239,10.059082,0.060369,-0.110885,0.003130,-0.061035,0.000000,0.305176
9.548223,-0.016166,-0.076042,10.056687,0.054381,-0.109687,0.000735,-0.061035,-0.030518,0.274658
9.558300,-0.016166,-0.068857,10.056088,0.054381,-0.102502,0.000136,-0.091553,-0.061035,0.274658
9.568367,-0.008383,-0.068258,10.062076,0.062165,-0.101904,0.006124,-0.061035,-0.061035,0.335693
9.578435,-0.001198,-0.065863,10.059082,0.069350,-0.099509,0.003130,-0.030518,-0.030518,0.366211
9.588502,-0.026944,0.003593,10.063872,0.043604,-0.030053,0.007920,0.061035,0.000000,0.793457
9.598570,-0.041314,0.044308,10.051298,0.029233,0.010662,-0.004654,0.183105,0.030518,1.647949
9.608637,-0.028740,-0.000599,10.048304,0.041807,-0.034244,-0.007648,1.495361,0.518799,4.455566
9.618704,0.022154,-0.153281,10.049502,0.092701,-0.186927,-0.006450,1.129150,0.396729,4.119873
9.628769,0.008383,-0.129331,10.051298,0.078930,-0.162977,-0.004654,0.732422,0.274658,2.441406
9.638835,0.002395,-0.107177,10.064471,0.072943,-0.140823,0.008519,0.579834,0.244141,1.831055
9.648901,0.002395,-0.098196,10.060878,0.072943,-0.131841,0.004926,0.457764,0.152588,1.403809
9.658967,-0.002395,-0.085622,10.056687,0.068153,-0.119267,0.000735,0.274658,0.091553,0.793457
9.669033,-0.007185,-0.080832,10.056088,0.063362,-0.114477,0.000136,0.213623,0.091553,0.610352
9.679105,-0.002395,-0.071851,10.058483,0.068153,-0.105496,0.002531,0.152588,0.030518,0.366211
9.689170,-0.008981,-0.070054,10.059681,0.061566,-0.103700,0.003729,0.122070,0.030518,0.274658
9.699235,-0.006586,-0.070054,10.062076,0.063961,-0.103700,0.006124,0.091553,0.030518,0.152588
9.709301,-0.017364,-0.069456,10.057885,0.053184,-0.103101,0.001932,0.061035,0.000000,0.122070
9.719374,-0.016765,-0.066462,10.054292,0.053782,-0.100107,-0.001660,0.030518,0.000000,0.061035
9.729440,-0.017963,-0.065863,10.059082,0.052585,-0.099509,0.003130,0.030518,-0.030518,0.030518
9.739505,-0.012574,-0.067061,10.063273,0.057974,-0.100706,0.007321,0.000000,-0.030518,0.030518
9.749570,-0.016765,-0.050295,10.055490,0.053782,-0.083941,-0.000463,0.000000,0.030518,0.000000
9.759635,-0.021555,-0.056882,10.053693,0.048992,-0.090527,-0.002259,0.030518,0.030518,-0.030518
9.769700,-0.013771,-0.057480,10.050101,0.056776,-0.091126,-0.005851,0.061035,0.061035,-0.030518
9.779775,-0.010778,-0.054487,10.053693,0.059770,-0.088132,-0.002259,0.061035,0.061035,-0.030518
9.789850,-0.014370,-0.053888,10.057885,0.056177,-0.087533,0.001932,0.030518,0.061035,-0.030518
9.799917,-0.013173,-0.058079,10.052496,0.057375,-0.091725,-0.003456,0.061035,0.030518,0.000000
9.809984,-0.007185,-0.060474,10.046508,0.063362,-0.094120,-0.009444,0.030518,0.030518,-0.030518
9.820074,-0.007185,-0.061073,10.047107,0.063362,-0.094719,-0.008845,0.000000,0.030518,-0.030518
9.830145,-0.007784,-0.057480,10.056088,0.062764,-0.091126,0.000136,-0.061035,0.000000,-0.030518
9.840219,0.000000,-0.055684,10.062675,0.070548,-0.089330,0.006723,-0.030518,0.030518,0.000000
9.850286,-0.002994,-0.058678,10.054891,0.067554,-0.092324,-0.001061,-0.030518,0.000000,0.000000
9.860351,-0.011376,-0.049098,10.056088,0.059171,-0.082743,0.000136,-0.061035,0.000000,-0.030518
9.870416,-0.011376,-0.044308,10.049502,0.059171,-0.077953,-0.006450,0.000000,0.000000,-0.061035
9.880478,-0.013173,-0.051493,10.052496,0.057375,-0.085138,-0.003456,-0.030518,-0.030518,-0.030518
9.890544,-0.016166,-0.056283,10.047107,0.054381,-0.089928,-0.008845,-0.061035,0.000000,0.000000
9.900609,-0.016765,-0.061073,10.044113,0.053782,-0.094719,-0.011839,-0.061035,0.000000,0.000000
9.910685,-0.014370,-0.061073,10.049502,0.056177,-0.094719,-0.006450,-0.061035,-0.030518,0.030518
9.920753,-0.011975,-0.053888,10.046508,0.058572,-0.087533,-0.009444,-0.091553,-0.030518,0.030518
9.930818,-0.018561,-0.055085,10.045909,0.051986,-0.088731,-0.010043,-0.061035,-0.030518,0.000000
9.940883,-0.019160,-0.053888,10.042317,0.051387,-0.087533,-0.013635,-0.091553,0.000000,0.030518
9.950949,-0.016166,-0.059277,10.044113,0.054381,-0.092922,-0.011839,-0.061035,-0.030518,0.000000
9.961015,-0.007185,-0.059875,10.044712,0.063362,-0.093521,-0.011240,-0.061035,-0.030518,0.000000
9.971089,-0.017364,-0.055085,10.047107,0.053184,-0.088731,-0.008845,-0.030518,-0.061035,-0.030518
9.981157,-0.019160,-0.058079,10.046508,0.051387,-0.091725,-0.009444,0.000000,-0.030518,0.000000
9.991222,-0.017364,-0.056283,10.049502,0.053184,-0.089928,-0.006450,-0.030518,0.000000,0.000000
10.001288,-0.015568,-0.055684,10.053094,0.054980,-0.089330,-0.002858,-0.061035,-0.030518,0.030518
10.011355,-0.011376,-0.051493,10.050101,0.059171,-0.085138,-0.005851,-0.030518,-0.030518,0.000000
10.021421,-0.001796,-0.058678,10.047706,0.068751,-0.092324,-0.008246,-0.030518,0.000000,0.000000
10.031496,-0.006586,-0.059875,10.053094,0.063961,-0.093521,-0.002858,-0.061035,0.000000,-0.030518
10.041563,-0.008383,-0.053888,10.049502,0.062165,-0.087533,-0.006450,-0.091553,0.000000,-0.030518
10.051627,-0.011975,-0.061672,10.051298,0.058572,-0.095317,-0.004654,-0.030518,0.000000,-0.030518
10.061693,-0.007784,-0.059277,10.046508,0.062764,-0.092922,-0.009444,-0.030518,-0.030518,-0.030518
10.071759,-0.007784,-0.053888,10.044712,0.062764,-0.087533,-0.011240,-0.030518,-0.030518,-0.030518
10.081825,0.000599,-0.058678,10.051298,0.071146,-0.092324,-0.004654,-0.030518,0.000000,0.000000
10.091896,-0.004790,-0.061073,10.047706,0.065758,-0.094719,-0.008246,-0.030518,0.000000,0.000000
10.101962,-0.007185,-0.062271,10.046508,0.063362,-0.095916,-0.009444,-0.030518,-0.061035,0.000000
10.112026,-0.010179,-0.058678,10.042317,0.060369,-0.092324,-0.013635,-0.030518,-0.061035,-0.030518
10.122103,-0.007784,-0.050894,10.043514,0.062764,-0.084540,-0.012438,-0.030518,0.000000,0.030518
10.132168,-0.011376,-0.055085,10.052496,0.059171,-0.088731,-0.003456,-0.061035,-0.030518,0.000000
10.142233,-0.011975,-0.046703,10.053693,0.058572,-0.080348,-0.002259,-0.061035,0.000000,0.030518
10.152308,-0.014370,-0.054487,10.051298,0.056177,-0.088132,-0.004654,-0.061035,0.000000,0.000000
10.162381,-0.013771,-0.056882,10.053094,0.056776,-0.090527,-0.002858,-0.061035,-0.030518,0.000000
10.172446,-0.001796,-0.061672,10.052496,0.068751,-0.095317,-0.003456,-0.061035,-0.030518,-0.030518
10.182512,0.001796,-0.064067,10.057286,0.072344,-0.097712,0.001334,0.000000,-0.030518,-0.030518
10.192577,-0.004191,-0.065863,10.056687,0.066356,-0.099509,0.000735,0.000000,0.000000,-0.030518
10.202643,0.004790,-0.064067,10.050101,0.075338,-0.097712,-0.005851,0.000000,0.000000,-0.061035
10.212715,0.000599,-0.060474,10.050101,0.071146,-0.094120,-0.005851,0.000000,0.030518,-0.061035
10.222787,-0.008981,-0.056283,10.044113,0.061566,-0.089928,-0.011839,0.030518,0.030518,-0.030518
10.232853,-0.009580,-0.056283,10.050101,0.060967,-0.089928,-0.005851,0.000000,0.030518,0.030518
10.242919,-0.000599,-0.061073,10.039323,0.069949,-0.094719,-0.016629,0.000000,0.030518,0.000000
10.252985,0.000000,-0.060474,10.038126,0.070548,-0.094120,-0.017826,-0.030518,0.000000,-0.030518
10.263050,-0.004790,-0.058079,10.034533,0.065758,-0.091725,-0.021419,0.000000,0.000000,-0.061035
10.273125,-0.009580,-0.060474,10.038126,0.060967,-0.094120,-0.017826,-0.030518,0.000000,-0.061035
10.283191,-0.009580,-0.049098,10.045909,0.060967,-0.082743,-0.010043,-0.061035,-0.030518,-0.061035
10.293257,-0.002994,-0.048499,10.049502,0.067554,-0.082145,-0.006450,-0.061035,0.000000,-0.061035
10.303323,-0.011376,-0.049697,10.044712,0.059171,-0.083342,-0.011240,-0.030518,-0.030518,-0.061035
10.313389,-0.014969,-0.057480,10.047107,0.055579,-0.091126,-0.008845,-0.030518,-0.030518,-0.061035
10.323455,-0.016166,-0.056882,10.045311,0.054381,-0.090527,-0.010641,-0.030518,0.000000,-0.061035
10.333528,-0.015568,-0.055085,10.052496,0.054980,-0.088731,-0.003456,0.030518,0.000000,-0.061035
10.343595,-0.006586,-0.051493,10.045909,0.063961,-0.085138,-0.010043,0.000000,0.000000,-0.030518
10.353662,-0.005988,-0.052092,10.039922,0.064560,-0.085737,-0.016030,0.000000,0.000000,0.000000
10.363727,-0.004191,-0.055085,10.038724,0.066356,-0.088731,-0.017228,0.000000,0.000000,0.000000
10.373793,-0.002395,-0.054487,10.036928,0.068153,-0.088132,-0.019024,0.000000,0.000000,0.000000
10.383860,-0.003593,-0.049697,10.051897,0.066955,-0.083342,-0.004055,-0.030518,-0.030518,0.030518
10.393927,-0.001198,-0.049098,10.044113,0.069350,-0.082743,-0.011839,-0.061035,0.000000,0.030518
10.404002,-0.001198,-0.042512,10.045311,0.069350,-0.076157,-0.010641,-0.030518,0.000000,0.030518
10.414069,-0.000599,-0.044308,10.045909,0.069949,-0.077953,-0.010043,0.000000,0.000000,0.000000
10.424135,0.005988,-0.051493,10.039922,0.076535,-0.085138,-0.016030,0.000000,0.030518,-0.030518
10.434201,0.007784,-0.053289,10.041119,0.078331,-0.086935,-0.014833,0.000000,0.061035,-0.030518
10.444267,0.012574,-0.056283,10.047107,0.083121,-0.089928,-0.008845,0.000000,0.030518,-0.030518
10.454334,0.001796,-0.058079,10.044712,0.072344,-0.091725,-0.011240,-0.030518,0.030518,-0.030518
10.464406,0.001796,-0.059875,10.043514,0.072344,-0.093521,-0.012438,0.000000,0.030518,-0.030518
10.474477,0.001796,-0.056882,10.051897,0.072344,-0.090527,-0.004055,0.000000,0.030518,-0.061035
10.484544,-0.000599,-0.056283,10.050699,0.069949,-0.089928,-0.005253,-0.030518,0.030518,-0.030518
10.494610,-0.000599,-0.059277,10.048304,0.069949,-0.092922,-0.007648,-0.061035,0.000000,-0.091553
10.504676,-0.012574,-0.055085,10.047706,0.057974,-0.088731,-0.008246,-0.030518,0.030518,-0.061035
10.514742,-0.004191,-0.050894,10.050699,0.066356,-0.084540,-0.005253,-0.030518,0.000000,-0.091553
10.524823,0.001796,-0.047302,10.050699,0.072344,-0.080947,-0.005253,-0.030518,0.000000,-0.061035
10.534890,0.000000,-0.044308,10.050101,0.070548,-0.077953,-0.005851,-0.030518,0.030518,-0.030518
10.544956,-0.005988,-0.040715,10.051897,0.064560,-0.074361,-0.004055,-0.030518,0.030518,0.000000
10.555023,-0.006586,-0.045505,10.052496,0.063961,-0.079151,-0.003456,-0.061035,0.000000,-0.030518
10.565089,-0.007185,-0.055684,10.049502,0.063362,-0.089330,-0.006450,-0.061035,0.000000,-0.030518
10.575155,-0.013771,-0.053888,10.054292,0.056776,-0.087533,-0.001660,-0.030518,0.000000,-0.030518
10.585228,-0.010778,-0.055684,10.057885,0.059770,-0.089330,0.001932,-0.030518,0.000000,-0.030518
10.595294,-0.010179,-0.059875,10.056088,0.060369,-0.093521,0.000136,0.000000,-0.030518,-0.061035
10.605361,-0.009580,-0.061672,10.050101,0.060967,-0.095317,-0.005851,0.030518,0.000000,-0.061035
10.615427,-0.012574,-0.056882,10.041119,0.057974,-0.090527,-0.014833,-0.030518,-0.030518,-0.030518
10.625494,-0.010778,-0.053289,10.044712,0.059770,-0.086935,-0.011240,-0.061035,0.030518,0.000000
10.635560,-0.011376,-0.056283,10.049502,0.059171,-0.089928,-0.006450,-0.030518,0.000000,-0.030518
10.645627,-0.013771,-0.056283,10.051298,0.056776,-0.089928,-0.004654,-0.030518,-0.030518,0.000000
10.655693,-0.011975,-0.062271,10.051298,0.058572,-0.095916,-0.004654,-0.030518,-0.030518,0.030518
10.665768,-0.008981,-0.053888,10.042317,0.061566,-0.087533,-0.013635,-0.030518,0.000000,-0.030518
