time,ax_raw,ay_raw,az_raw,ax,ay,az,gx,gy,gz
0.001312,-0.068857,0.026345,10.059082,-0.005193,-0.006826,-0.000506,0.061035,-0.030518,0.030518
0.011412,-0.064666,0.031734,10.067465,-0.001001,-0.001437,0.007877,0.030518,-0.030518,0.000000
0.021506,-0.070653,0.029938,10.068662,-0.006989,-0.003233,0.009074,0.091553,-0.030518,0.000000
0.031602,-0.057480,0.034129,10.066866,0.006184,0.000958,0.007278,0.091553,-0.030518,0.000000
0.041699,-0.056283,0.040117,10.064471,0.007381,0.006946,0.004883,0.061035,-0.030518,0.000000
0.051792,-0.062271,0.038320,10.069860,0.001394,0.005149,0.010272,0.061035,-0.030518,0.030518
0.061985,-0.061073,0.043110,10.061477,0.002591,0.009939,0.001889,0.061035,-0.061035,0.061035
0.072075,-0.058678,0.041913,10.060878,0.004986,0.008742,0.001290,0.061035,-0.030518,0.091553
0.082165,-0.060474,0.043110,10.060878,0.003190,0.009939,0.001290,0.030518,-0.030518,0.091553
0.092253,-0.060474,0.041314,10.060280,0.003190,0.008143,0.000692,0.030518,-0.030518,0.061035
0.102342,-0.063468,0.038919,10.068662,0.000196,0.005748,0.009074,0.091553,0.030518,0.030518
0.112431,-0.059875,0.037123,10.068063,0.003789,0.003952,0.008475,0.061035,0.000000,0.030518
0.122521,-0.058678,0.031734,10.062076,0.004986,-0.001437,0.002488,0.030518,0.000000,0.030518
0.132610,-0.056882,0.029938,10.066866,0.006782,-0.003233,0.007278,0.030518,-0.030518,0.030518
0.142699,-0.065264,0.029938,10.069261,-0.001600,-0.003233,0.009673,0.000000,-0.030518,0.030518
0.152788,-0.062271,0.031734,10.071057,0.001394,-0.001437,0.011469,0.030518,-0.030518,0.030518
0.162937,-0.059875,0.034728,10.077045,0.003789,0.001557,0.017457,0.000000,-0.030518,0.000000
0.173033,-0.064067,0.029938,10.074650,-0.000403,-0.003233,0.015062,0.030518,-0.030518,0.000000
0.183129,-0.064067,0.031135,10.072255,-0.000403,-0.002036,0.012667,0.030518,-0.030518,0.000000
0.193223,-0.061672,0.028141,10.075847,0.001992,-0.005030,0.016259,0.030518,-0.030518,0.000000
0.203315,-0.062869,0.032333,10.074650,0.000795,-0.000838,0.015062,0.030518,0.000000,0.000000
0.213410,-0.067061,0.030536,10.064471,-0.003396,-0.002635,0.004883,0.061035,0.030518,0.000000
0.223505,-0.062869,0.026345,10.067465,0.000795,-0.006826,0.007877,0.061035,0.061035,-0.030518
0.233601,-0.064666,0.019759,10.059681,-0.001001,-0.013412,0.000093,0.030518,0.061035,0.030518
0.243697,-0.058678,0.025148,10.059681,0.004986,-0.008023,0.000093,0.030518,0.061035,0.000000
0.253792,-0.060474,0.023351,10.064471,0.003190,-0.009820,0.004883,0.030518,0.030518,0.030518
0.263973,-0.065264,0.020956,10.061477,-0.001600,-0.012215,0.001889,0.030518,0.030518,0.030518
0.274063,-0.059277,0.023351,10.059082,0.004387,-0.009820,-0.000506,0.030518,0.030518,0.030518
0.284152,-0.059277,0.028740,10.058483,0.004387,-0.004431,-0.001105,0.030518,0.000000,0.000000
0.294240,-0.056283,0.027543,10.058483,0.007381,-0.005628,-0.001105,0.030518,0.000000,0.000000
0.304329,-0.061672,0.025746,10.064471,0.001992,-0.007425,0.004883,0.091553,-0.030518,0.030518
0.314418,-0.074844,0.028141,10.071656,-0.011180,-0.005030,0.012068,0.091553,-0.061035,0.000000
0.324548,-0.067061,0.028141,10.069261,-0.003396,-0.005030,0.009673,0.122070,-0.030518,0.030518
0.334637,-0.052690,0.035327,10.060280,0.010974,0.002156,0.000692,0.122070,0.000000,0.000000
0.344727,-0.056882,0.038919,10.062076,0.006782,0.005748,0.002488,0.091553,-0.030518,0.030518
0.354816,-0.058678,0.034728,10.065070,0.004986,0.001557,0.005482,0.061035,0.000000,0.030518
0.364963,-0.064666,0.031734,10.061477,-0.001001,-0.001437,0.001889,0.061035,0.000000,0.030518
0.375058,-0.065264,0.038320,10.056088,-0.001600,0.005149,-0.003500,0.061035,-0.030518,0.030518
0.385153,-0.068857,0.034129,10.054292,-0.005193,0.000958,-0.005296,0.061035,0.000000,0.000000
0.395249,-0.076641,0.033530,10.060878,-0.012977,0.000359,0.001290,0.091553,0.030518,-0.030518
0.405344,-0.063468,0.041314,10.065668,0.000196,0.008143,0.006080,0.061035,0.000000,0.000000
0.415439,-0.060474,0.043110,10.062675,0.003190,0.009939,0.003087,0.061035,0.000000,0.000000
0.425536,-0.061073,0.043709,10.058483,0.002591,0.010538,-0.001105,0.091553,0.000000,0.000000
0.435631,-0.064666,0.043709,10.058483,-0.001001,0.010538,-0.001105,0.091553,-0.030518,0.030518
0.445727,-0.070653,0.037123,10.058483,-0.006989,0.003952,-0.001105,0.122070,0.000000,0.000000
0.455823,-0.074844,0.041314,10.059681,-0.011180,0.008143,0.000093,0.122070,0.000000,0.000000
0.465986,-0.074246,0.043110,10.062076,-0.010581,0.009939,0.002488,0.091553,0.030518,0.000000
0.476075,-0.065863,0.041913,10.054292,-0.002199,0.008742,-0.005296,0.091553,0.000000,0.030518
0.486164,-0.055684,0.034728,10.054292,0.007980,0.001557,-0.005296,0.091553,0.000000,0.030518
0.496253,-0.061672,0.040117,10.060280,0.001992,0.006946,0.000692,0.030518,0.000000,0.030518
0.506342,-0.067659,0.046104,10.061477,-0.003995,0.012933,0.001889,0.061035,-0.030518,0.030518
0.516432,-0.068258,0.046104,10.057885,-0.004594,0.012933,-0.001703,0.030518,0.000000,0.000000
0.526521,-0.070653,0.043110,10.056088,-0.006989,0.009939,-0.003500,0.061035,-0.030518,0.000000
0.536610,-0.070653,0.041913,10.050101,-0.006989,0.008742,-0.009487,0.061035,0.000000,0.000000
0.546700,-0.067061,0.032932,10.053094,-0.003396,-0.000240,-0.006493,0.091553,0.030518,0.030518
0.556789,-0.065264,0.028740,10.061477,-0.001600,-0.004431,0.001889,0.122070,0.061035,0.030518
0.566935,-0.071252,0.031135,10.050101,-0.007588,-0.002036,-0.009487,0.122070,0.030518,0.061035
0.577031,-0.073048,0.031734,10.047706,-0.009384,-0.001437,-0.011882,0.122070,0.030518,0.030518
0.587126,-0.074844,0.021555,10.047706,-0.011180,-0.011616,-0.011882,0.061035,0.000000,0.030518
0.597222,-0.070054,0.029339,10.049502,-0.006390,-0.003832,-0.010086,0.061035,0.030518,0.030518
0.607318,-0.068857,0.031734,10.053094,-0.005193,-0.001437,-0.006493,0.061035,0.061035,0.061035
0.617415,-0.073647,0.032333,10.056088,-0.009983,-0.000838,-0.003500,0.091553,0.061035,0.030518
0.627509,-0.077838,0.031135,10.053094,-0.014174,-0.002036,-0.006493,0.091553,0.061035,0.000000
0.637605,-0.076641,0.028141,10.044712,-0.012977,-0.005030,-0.014876,0.091553,0.030518,0.000000
0.647701,-0.074246,0.024549,10.047706,-0.010581,-0.008622,-0.011882,0.061035,0.000000,-0.030518
0.657812,-0.076042,0.025746,10.046508,-0.012378,-0.007425,-0.013080,0.061035,0.030518,0.000000
0.667999,-0.074246,0.033530,10.044113,-0.010581,0.000359,-0.015475,0.030518,0.030518,0.000000
0.678089,-0.078437,0.029938,10.045311,-0.014773,-0.003233,-0.014277,0.030518,0.061035,-0.030518
0.688179,-0.079634,0.029339,10.042916,-0.015970,-0.003832,-0.016672,-0.030518,0.030518,-0.030518
0.698266,-0.077838,0.028740,10.049502,-0.014174,-0.004431,-0.010086,0.030518,0.061035,0.030518
0.708355,-0.071252,0.024549,10.044712,-0.007588,-0.008622,-0.014876,0.000000,0.061035,0.061035
0.718444,-0.068258,0.025148,10.042916,-0.004594,-0.008023,-0.016672,0.000000,0.061035,0.061035
0.728533,-0.065863,0.026345,10.042916,-0.002199,-0.006826,-0.016672,0.061035,0.030518,0.030518
0.738622,-0.069456,0.020956,10.044113,-0.005791,-0.012215,-0.015475,0.061035,0.030518,0.061035
0.748711,-0.063468,0.022753,10.050699,0.000196,-0.010418,-0.008889,0.091553,0.000000,0.000000
0.758800,-0.065863,0.025148,10.049502,-0.002199,-0.008023,-0.010086,0.091553,0.000000,0.000000
0.768950,-0.058678,0.019759,10.047706,0.004986,-0.013412,-0.011882,0.091553,0.000000,-0.030518
0.779047,-0.053289,0.024549,10.047107,0.010375,-0.008622,-0.012481,0.091553,0.000000,0.000000
0.789143,-0.055085,0.025746,10.042916,0.008579,-0.007425,-0.016672,0.091553,0.000000,-0.030518
0.799238,-0.061672,0.032932,10.051298,0.001992,-0.000240,-0.008290,0.061035,0.000000,0.000000
0.809334,-0.056882,0.029938,10.056687,0.006782,-0.003233,-0.002901,0.091553,0.000000,0.000000
0.819429,-0.055085,0.031135,10.044113,0.008579,-0.002036,-0.015475,0.061035,-0.030518,0.000000
0.829525,-0.060474,0.031135,10.038724,0.003190,-0.002036,-0.020864,0.091553,-0.030518,-0.030518
0.839621,-0.055085,0.029339,10.038126,0.008579,-0.003832,-0.021462,0.061035,0.000000,-0.030518
0.849716,-0.058678,0.032333,10.048903,0.004986,-0.000838,-0.010685,0.061035,0.030518,0.030518
0.859812,-0.058079,0.028141,10.048903,0.005585,-0.005030,-0.010685,0.091553,0.030518,0.061035
0.869985,-0.067659,0.028740,10.050101,-0.003995,-0.004431,-0.009487,0.122070,-0.030518,0.061035
0.880075,-0.070054,0.031135,10.054891,-0.006390,-0.002036,-0.004697,0.061035,0.000000,0.061035
0.890164,-0.066462,0.026944,10.054292,-0.002798,-0.006227,-0.005296,0.091553,0.061035,0.061035
0.900254,-0.061073,0.033530,10.063872,0.002591,0.000359,0.004284,0.091553,0.030518,0.030518
0.910342,-0.067659,0.031135,10.059681,-0.003995,-0.002036,0.000093,0.061035,0.030518,0.061035
0.920431,-0.067659,0.027543,10.057286,-0.003995,-0.005628,-0.002302,0.061035,0.030518,0.091553
0.930521,-0.066462,0.023950,10.054891,-0.002798,-0.009221,-0.004697,0.030518,0.030518,0.030518
0.940611,-0.070054,0.031135,10.053693,-0.006390,-0.002036,-0.005895,0.061035,0.030518,0.000000
0.950699,-0.065863,0.034728,10.066267,-0.002199,0.001557,0.006679,0.061035,0.000000,0.000000
0.960788,-0.061073,0.031135,10.072255,0.002591,-0.002036,0.012667,0.061035,0.000000,0.000000
0.970934,-0.066462,0.034129,10.064471,-0.002798,0.000958,0.004883,0.091553,0.000000,0.000000
0.981030,-0.065264,0.027543,10.056088,-0.001600,-0.005628,-0.003500,0.030518,-0.030518,0.000000
0.991125,-0.068258,0.032932,10.053094,-0.004594,-0.000240,-0.006493,0.030518,0.000000,0.000000
1.001221,-0.068857,0.030536,10.058483,-0.005193,-0.002635,-0.001105,0.061035,0.030518,0.030518
1.011315,-0.061073,0.033530,10.058483,0.002591,0.000359,-0.001105,0.091553,0.000000,0.030518
1.021411,-0.059875,0.039518,10.055490,0.003789,0.006347,-0.004098,0.061035,0.030518,0.030518
1.031508,-0.064666,0.045505,10.050101,-0.001001,0.012334,-0.009487,0.030518,0.030518,0.091553
1.041602,-0.066462,0.047302,10.048304,-0.002798,0.014131,-0.011284,0.061035,0.030518,0.061035
1.051698,-0.062271,0.038320,10.056687,0.001394,0.005149,-0.002901,0.091553,0.030518,0.091553
1.061793,-0.059875,0.043709,10.051298,0.003789,0.010538,-0.008290,0.091553,0.000000,0.061035
1.071913,-0.058079,0.037123,10.048903,0.005585,0.003952,-0.010685,0.091553,0.030518,0.061035
1.082008,-0.063468,0.038919,10.054891,0.000196,0.005748,-0.004697,0.061035,0.000000,0.030518
1.092103,-0.064067,0.038320,10.057286,-0.000403,0.005149,-0.002302,0.030518,0.000000,0.030518
1.102199,-0.056283,0.042512,10.059681,0.007381,0.009341,0.000093,0.030518,0.030518,0.000000
1.112292,-0.058079,0.043110,10.060280,0.005585,0.009939,0.000692,0.030518,0.000000,0.030518
1.122388,-0.056882,0.040117,10.053094,0.006782,0.006946,-0.006493,0.030518,0.000000,0.000000
1.132483,-0.062271,0.046703,10.055490,0.001394,0.013532,-0.004098,0.030518,0.000000,0.030518
1.142578,-0.067659,0.037722,10.056088,-0.003995,0.004551,-0.003500,0.030518,0.000000,0.061035
1.152673,-0.067061,0.041314,10.053094,-0.003396,0.008143,-0.006493,0.000000,0.000000,0.061035
1.162768,-0.065863,0.041314,10.042317,-0.002199,0.008143,-0.017271,0.030518,-0.030518,0.061035
1.172888,-0.062869,0.041314,10.041119,0.000795,0.008143,-0.018469,0.061035,-0.030518,0.030518
1.182984,-0.062271,0.036524,10.041718,0.001394,0.003353,-0.017870,0.091553,-0.030518,0.061035
1.193079,-0.060474,0.031135,10.051897,0.003190,-0.002036,-0.007691,0.061035,-0.030518,0.000000
1.203174,-0.063468,0.032333,10.050699,0.000196,-0.000838,-0.008889,0.061035,-0.030518,0.000000
1.213269,-0.062271,0.028740,10.045909,0.001394,-0.004431,-0.013679,0.091553,-0.030518,0.030518
1.223363,-0.069456,0.028740,10.044113,-0.005791,-0.004431,-0.015475,0.061035,-0.030518,0.061035
1.233459,-0.071252,0.035925,10.037527,-0.007588,0.002754,-0.022061,0.061035,0.000000,0.061035
1.243554,-0.062271,0.033530,10.053094,0.001394,0.000359,-0.006493,0.030518,0.000000,0.061035
1.253649,-0.061073,0.032932,10.057286,0.002591,-0.000240,-0.002302,0.061035,-0.030518,0.061035
1.263745,-0.064666,0.035327,10.056687,-0.001001,0.002156,-0.002901,0.030518,-0.030518,0.030518
1.273861,-0.068857,0.031135,10.055490,-0.005193,-0.002036,-0.004098,0.030518,-0.030518,0.030518
1.283958,-0.064666,0.037722,10.054891,-0.001001,0.004551,-0.004697,0.061035,-0.061035,0.000000
1.294053,-0.070054,0.037722,10.060878,-0.006390,0.004551,0.001290,0.091553,-0.030518,0.000000
1.304149,-0.066462,0.036524,10.060878,-0.002798,0.003353,0.001290,0.061035,0.000000,0.000000
1.314242,-0.067061,0.023950,10.059681,-0.003396,-0.009221,0.000093,0.091553,0.000000,0.030518
1.324337,-0.062869,0.025746,10.059681,0.000795,-0.007425,0.000093,0.122070,0.000000,0.061035
1.334432,-0.061073,0.023351,10.057885,0.002591,-0.009820,-0.001703,0.091553,0.030518,0.030518
1.344528,-0.062271,0.029938,10.057885,0.001394,-0.003233,-0.001703,0.122070,0.030518,0.030518
1.354623,-0.061073,0.031734,10.062675,0.002591,-0.001437,0.003087,0.122070,0.061035,0.030518
1.364719,-0.067061,0.034728,10.062076,-0.003396,0.001557,0.002488,0.091553,0.030518,0.000000
1.374839,-0.065863,0.034129,10.051298,-0.002199,0.000958,-0.008290,0.122070,0.000000,0.030518
1.384935,-0.062869,0.031135,10.051897,0.000795,-0.002036,-0.007691,0.122070,0.000000,0.030518
1.395030,-0.064666,0.029938,10.057286,-0.001001,-0.003233,-0.002302,0.152588,0.000000,0.000000
1.405127,-0.062869,0.032932,10.065070,0.000795,-0.000240,0.005482,0.122070,0.000000,0.030518
1.415222,-0.065863,0.026944,10.066267,-0.002199,-0.006227,0.006679,0.122070,0.000000,0.000000
1.425317,-0.070054,0.032932,10.057885,-0.006390,-0.000240,-0.001703,0.091553,0.000000,0.030518
1.435413,-0.065264,0.034728,10.052496,-0.001600,0.001557,-0.007092,0.091553,0.030518,0.030518
1.445508,-0.068857,0.038320,10.052496,-0.005193,0.005149,-0.007092,0.122070,0.000000,0.030518
1.455603,-0.070653,0.032333,10.057286,-0.006989,-0.000838,-0.002302,0.122070,-0.030518,0.030518
1.465691,-0.071851,0.033530,10.053693,-0.008186,0.000359,-0.005895,0.091553,0.000000,0.000000
1.475780,-0.064666,0.037722,10.053094,-0.001001,0.004551,-0.006493,0.122070,0.000000,-0.030518
1.485875,-0.066462,0.038320,10.054891,-0.002798,0.005149,-0.004697,0.091553,0.000000,0.000000
1.495970,-0.060474,0.032333,10.054891,0.003190,-0.000838,-0.004697,0.091553,0.030518,0.030518
1.506065,-0.062271,0.031135,10.054891,0.001394,-0.002036,-0.004697,0.091553,0.000000,0.030518
1.516160,-0.060474,0.032932,10.045909,0.003190,-0.000240,-0.013679,0.030518,-0.030518,0.000000
1.526254,-0.057480,0.032932,10.047107,0.006184,-0.000240,-0.012481,0.030518,0.000000,0.000000
1.536350,-0.058079,0.032333,10.048903,0.005585,-0.000838,-0.010685,0.000000,-0.030518,0.000000
1.546444,-0.062869,0.040117,10.053693,0.000795,0.006946,-0.005895,-0.030518,-0.030518,0.030518
1.556538,-0.059875,0.034728,10.051298,0.003789,0.001557,-0.008290,0.000000,-0.030518,0.030518
1.566633,-0.062869,0.031734,10.053693,0.000795,-0.001437,-0.005895,0.000000,-0.061035,0.000000
1.576753,-0.062869,0.029339,10.052496,0.000795,-0.003832,-0.007092,0.000000,-0.061035,0.000000
1.586848,-0.062271,0.029339,10.043514,0.001394,-0.003832,-0.016074,-0.030518,0.000000,0.000000
1.596944,-0.066462,0.028141,10.045909,-0.002798,-0.005030,-0.013679,0.000000,0.030518,0.030518
1.607039,-0.069456,0.020956,10.046508,-0.005791,-0.012215,-0.013080,0.000000,0.030518,0.030518
1.617134,-0.071252,0.024549,10.047706,-0.007588,-0.008622,-0.011882,0.000000,0.030518,0.030518
1.627227,-0.071851,0.018561,10.044113,-0.008186,-0.014610,-0.015475,0.030518,-0.030518,0.000000
1.637319,-0.070653,0.020358,10.049502,-0.006989,-0.012813,-0.010086,0.030518,-0.030518,0.000000
1.647413,-0.071252,0.020956,10.049502,-0.007588,-0.012215,-0.010086,0.091553,0.000000,0.000000
1.657519,-0.067061,0.028141,10.050101,-0.003396,-0.005030,-0.009487,0.122070,0.000000,0.030518
1.667614,-0.065264,0.034728,10.050101,-0.001600,0.001557,-0.009487,0.091553,0.030518,0.000000
1.677801,-0.064067,0.030536,10.044712,-0.000403,-0.002635,-0.014876,0.122070,0.061035,0.000000
1.687891,-0.067659,0.029938,10.043514,-0.003995,-0.003233,-0.016074,0.091553,0.061035,0.000000
1.697979,-0.067061,0.029339,10.048304,-0.003396,-0.003832,-0.011284,0.122070,0.030518,0.000000
1.708068,-0.061672,0.023351,10.046508,0.001992,-0.009820,-0.013080,0.122070,0.030518,0.000000
1.718156,-0.058079,0.029938,10.041718,0.005585,-0.003233,-0.017870,0.061035,0.030518,0.030518
1.728244,-0.053888,0.038919,10.036928,0.009776,0.005748,-0.022660,0.091553,0.000000,0.030518
1.738333,-0.053888,0.037722,10.047107,0.009776,0.004551,-0.012481,0.061035,-0.030518,0.061035
1.748424,-0.054487,0.029339,10.051298,0.009177,-0.003832,-0.008290,0.061035,-0.030518,0.091553
1.758512,-0.056283,0.031734,10.046508,0.007381,-0.001437,-0.013080,0.061035,0.000000,0.061035
1.768601,-0.055684,0.024549,10.047107,0.007980,-0.008622,-0.012481,0.091553,0.000000,0.030518
1.778759,-0.066462,0.016765,10.047706,-0.002798,-0.016406,-0.011882,0.061035,0.000000,0.000000
1.788854,-0.068857,0.011376,10.046508,-0.005193,-0.021795,-0.013080,0.061035,0.000000,0.000000
1.798950,0.004790,-0.416135,10.051298,0.068454,-0.449306,-0.008290,-0.122070,-0.091553,-2.471924
1.809045,0.027543,-0.650847,10.072853,0.091207,-0.684018,0.013265,-0.457764,-0.213623,-6.561279
1.819140,-0.037722,-0.143102,10.041718,0.025943,-0.176273,-0.017870,0.122070,-0.488281,-14.739990
1.829235,-0.083227,0.207768,10.029743,-0.019563,0.174597,-0.029845,0.549316,-0.427246,-15.014648
1.839329,-0.114362,0.374821,10.053693,-0.050698,0.341650,-0.005895,1.007080,-0.244141,-10.528564
1.849424,-0.097597,0.266446,10.071656,-0.033933,0.233275,0.012068,1.342773,-0.305176,-8.209229
1.859519,-0.090412,0.199385,10.080038,-0.026748,0.166214,0.020450,2.655029,-0.396729,-5.065918
1.869614,-0.085023,0.173639,10.036329,-0.021359,0.140468,-0.023259,3.479004,-0.457764,-4.028320
1.879734,-0.083227,0.201780,9.996812,-0.019563,0.168609,-0.062776,2.899170,-0.335693,-3.143311
1.889829,-0.459245,0.317939,10.030941,-0.395581,0.284768,-0.028647,1.770020,-0.122070,-2.502441
1.899925,-0.757425,0.499960,9.990225,-0.693761,0.466789,-0.069363,0.579834,-0.152588,-6.134033
1.910020,-0.649649,0.171244,10.102192,-0.585985,0.138073,0.042604,-3.082275,-0.122070,-16.418457
1.920115,-0.575403,0.085023,10.061477,-0.511739,0.051852,0.001889,-2.807617,-0.213623,-19.653320
1.930210,-0.444276,0.143701,10.045909,-0.380612,0.110530,-0.013679,-2.502441,-0.610352,-22.338867
1.940304,-0.258063,0.090412,10.078242,-0.194399,0.057241,0.018654,-1.953125,-0.579834,-21.423340
1.950399,-0.123942,0.029339,10.076446,-0.060278,-0.003832,0.016858,-1.495361,-0.488281,-19.195557
1.960497,-0.290396,-0.040117,10.076446,-0.226732,-0.073288,0.016858,-0.793457,-0.335693,-14.831543
1.970592,-0.316741,-0.054487,10.061477,-0.253077,-0.087658,0.001889,-0.366211,-0.305176,-13.427734
1.981018,-0.328716,-0.019759,10.062076,-0.265052,-0.052930,0.002488,0.335693,-0.183105,-10.223389
1.991111,-0.331710,0.040715,10.066267,-0.268046,0.007544,0.006679,0.274658,-0.122070,-9.033203
2.001201,-0.231119,0.080832,10.032138,-0.167455,0.047661,-0.027450,0.274658,-0.244141,-7.232666
2.011290,-0.514929,0.162263,10.062076,-0.451265,0.129092,0.002488,0.579834,-0.152588,-7.019043
2.021379,-0.484991,0.205373,10.064471,-0.421327,0.172202,0.004883,0.183105,-0.183105,-6.896973
2.031469,-0.347877,0.176034,10.036329,-0.284212,0.142863,-0.023259,0.183105,0.030518,-5.126953
2.041555,-0.286804,0.198188,10.000404,-0.223139,0.165017,-0.059184,-0.427246,-0.122070,-5.004883
2.051644,-0.539478,0.020358,10.088421,-0.475814,-0.012813,0.028833,-0.305176,0.000000,-3.509521
2.061733,-0.465831,0.008383,10.190209,-0.402167,-0.024788,0.130621,-1.159668,-0.427246,-3.570557
2.071822,-0.661025,0.306563,10.035132,-0.597361,0.273391,-0.024456,-1.068115,-0.244141,-0.885010
2.081988,-0.573008,0.005389,10.090217,-0.509344,-0.027782,0.030629,-1.739502,-0.061035,2.105713
2.092085,-0.388592,-0.090412,10.092612,-0.324928,-0.123583,0.033024,-1.342773,0.274658,2.624512
2.102180,-0.352667,-0.304766,10.072853,-0.289003,-0.337937,0.013265,-0.915527,0.396729,2.563477
2.112276,-0.343087,-0.189805,10.024953,-0.279422,-0.222976,-0.034635,0.061035,0.427246,2.258301
2.122371,-0.557441,-0.151485,10.069261,-0.493777,-0.184656,0.009673,-0.823975,0.122070,0.701904
2.132466,-0.668809,-0.089813,10.121353,-0.605145,-0.122984,0.061765,-0.823975,0.213623,0.457764
2.142561,-0.470023,-0.002395,10.166259,-0.406358,-0.035566,0.106671,-0.579834,0.549316,2.105713
2.152656,-0.435894,0.040117,9.975256,-0.372229,0.006946,-0.084332,1.556396,1.159668,3.967285
2.162754,-0.211360,0.135319,9.964479,-0.147696,0.102148,-0.095109,0.427246,1.007080,5.981445
2.172849,-0.089813,0.097597,10.114167,-0.026149,0.064426,0.054580,0.823975,0.640869,5.493164
2.182972,-0.089214,0.134121,10.123748,-0.025550,0.100950,0.064160,1.586914,0.701904,5.065918
2.193061,-0.505948,0.319136,9.963880,-0.442284,0.285965,-0.095708,-0.091553,0.000000,2.624512
2.203154,-0.453856,0.280816,10.017768,-0.390192,0.247645,-0.041820,-0.457764,-0.213623,2.899170
2.213249,-0.187410,-0.056283,10.039323,-0.123746,-0.089454,-0.020265,0.518799,-0.457764,4.974365
2.223345,-0.195194,-0.047302,10.056088,-0.131530,-0.080473,-0.003500,-0.152588,-0.549316,5.462646
2.233439,-0.210762,-0.091011,10.093211,-0.147098,-0.124182,0.033623,-0.793457,-0.701904,5.493164
2.243535,-0.123344,-0.098196,10.077045,-0.059679,-0.131367,0.017457,-0.579834,-0.762939,5.767822
2.253632,-0.202978,-0.165256,10.151290,-0.139314,-0.198427,0.091702,-0.854492,-0.885010,5.157471
2.263721,-0.067061,-0.225132,10.192604,-0.003396,-0.258303,0.133016,-1.007080,-0.976562,4.882812
2.273816,0.144899,-0.191003,10.070458,0.208563,-0.224174,0.010870,0.274658,-0.518799,4.455566
2.284050,-0.023950,-0.086819,10.010583,0.039714,-0.119990,-0.049005,0.762939,-0.549316,4.394531
2.294142,-0.143701,0.010778,10.050101,-0.080037,-0.022393,-0.009487,2.349854,-0.396729,3.967285
2.304231,-0.149689,-0.062271,10.006392,-0.086025,-0.095442,-0.053196,1.556396,-0.549316,4.730225
2.314320,-0.006586,-0.094005,9.998009,0.057078,-0.127176,-0.061579,1.495361,-0.366211,4.302979
2.324409,-0.047900,-0.159269,10.018965,0.015764,-0.192440,-0.040623,1.251221,0.030518,3.570557
2.334498,-0.101788,-0.001198,10.045311,-0.038124,-0.034369,-0.014277,0.671387,0.000000,3.234863
2.344587,-0.167651,-0.031734,10.083631,-0.103987,-0.064905,0.024043,0.518799,0.152588,3.479004
2.354677,-0.007185,-0.135917,10.070458,0.056479,-0.169088,0.010870,-0.793457,0.427246,4.547119
2.364764,-0.212558,-0.211360,10.157877,-0.148894,-0.244531,0.098289,-1.220703,0.579834,4.486084
2.374854,-0.228126,0.001198,9.944720,-0.164462,-0.031974,-0.114868,-0.976562,1.068115,5.737305
2.385004,-0.279619,0.035925,9.957892,-0.215954,0.002754,-0.101696,-1.556396,0.946045,5.798340
2.395113,-0.134121,-0.032333,10.048903,-0.070457,-0.065504,-0.010685,-3.173828,0.518799,4.699707
2.405209,0.119751,0.006586,10.072853,0.183415,-0.026585,0.013265,-1.861572,0.396729,4.547119
2.415305,0.040117,-0.001198,10.107581,0.103781,-0.034369,0.047993,-2.014160,0.091553,4.669189
2.425400,-0.081431,0.045505,10.095606,-0.017767,0.012334,0.036018,-1.312256,-0.732422,2.929688
2.435495,-0.002395,-0.022753,10.153685,0.061269,-0.055924,0.094097,-0.244141,-1.129150,2.105713
2.445590,0.168250,0.002994,10.071656,0.231914,-0.030177,0.012068,1.464844,-1.342773,3.082275
2.455685,0.107177,-0.022154,10.044712,0.170841,-0.055325,-0.014876,1.647949,-1.251221,3.173828
2.465780,-0.118553,0.035327,10.077045,-0.054889,0.002156,0.017457,1.586914,-0.854492,3.204346
2.475875,-0.162263,-0.168250,10.092612,-0.098598,-0.201421,0.033024,1.281738,-0.457764,3.265381
2.486092,-0.191003,-0.166454,10.076446,-0.127339,-0.199625,0.016858,0.976562,0.061035,1.373291
2.496179,-0.255668,-0.061073,9.961485,-0.192004,-0.094244,-0.098103,0.793457,0.274658,0.000000
2.506268,-0.210163,-0.046104,10.038724,-0.146499,-0.079275,-0.020864,0.335693,0.396729,-1.312256
2.516358,-0.046703,0.014370,10.056687,0.016961,-0.018801,-0.002901,0.213623,0.366211,-4.882812
2.526447,-0.160466,0.053888,10.053094,-0.096802,0.020717,-0.006493,0.488281,0.427246,-6.652832
2.536536,-0.111967,0.298779,10.041119,-0.048303,0.265608,-0.018469,0.579834,0.457764,-7.354736
2.546645,-0.302371,0.169448,10.027947,-0.238707,0.136277,-0.031641,0.335693,0.488281,-6.866455
2.556778,-0.471220,0.049098,10.070458,-0.407556,0.015927,0.010870,-0.244141,0.396729,-8.178711
2.566896,-0.308958,-0.137115,10.124945,-0.245293,-0.170286,0.065357,-1.373291,0.213623,-8.361816
2.576993,-0.234712,0.034728,10.017768,-0.171048,0.001557,-0.041820,-0.793457,0.762939,-7.476807
2.587108,-0.355660,0.028141,10.166259,-0.291996,-0.005030,0.106671,-1.708984,0.854492,-4.760742
2.597209,-0.377216,0.052690,10.137519,-0.313551,0.019519,0.077931,-1.556396,1.220703,-3.662109
2.607354,-0.265847,0.109572,10.152488,-0.202183,0.076401,0.092900,-0.549316,0.976562,-2.471924
2.617457,-0.271835,-0.065264,9.986034,-0.208171,-0.098435,-0.073554,-0.671387,1.068115,-1.708984
2.627548,-0.259860,0.205373,10.071656,-0.196196,0.172202,0.012068,-1.220703,0.732422,0.396729
2.637671,-0.340093,0.001198,10.068662,-0.276429,-0.031974,0.009074,-0.976562,0.488281,0.732422
2.647779,-0.336500,-0.089813,10.096205,-0.272836,-0.122984,0.036617,0.000000,0.335693,0.915527
2.657902,-0.428110,-0.062869,10.014175,-0.364446,-0.096040,-0.045413,1.007080,0.213623,1.373291
2.668010,-0.395178,-0.046703,9.993818,-0.331514,-0.079874,-0.065770,1.373291,0.488281,2.105713
2.678118,-0.451461,-0.063468,10.183024,-0.387797,-0.096639,0.123436,1.342773,0.549316,4.028320
2.688254,-0.367037,-0.037123,10.173444,-0.303373,-0.070294,0.113856,0.640869,0.366211,4.699707
2.698344,-0.286804,-0.255070,10.034533,-0.223139,-0.288241,-0.025055,-0.793457,-0.152588,2.502441
2.708410,-0.541873,-0.132325,9.963880,-0.478209,-0.165496,-0.095708,-1.220703,-0.366211,1.159668
2.718482,-0.400567,-0.271236,10.109377,-0.336903,-0.304407,0.049789,-0.976562,-0.488281,-0.640869
2.728549,-0.344883,0.121547,10.103989,-0.281219,0.088376,0.044401,-0.793457,-0.244141,-2.166748
2.738615,-0.501757,0.298779,10.211166,-0.438092,0.265608,0.151578,0.152588,-0.030518,-1.464844
2.748680,-0.392783,0.127535,10.137519,-0.329119,0.094364,0.077931,1.220703,-0.061035,1.556396
2.758751,-0.295186,0.068857,9.852512,-0.231522,0.035686,-0.207076,2.075195,0.183105,1.922607
2.768818,-0.519719,0.168849,10.045909,-0.456055,0.135678,-0.013679,3.540039,0.396729,2.319336
2.778883,-0.244292,0.038919,10.130933,-0.180628,0.005748,0.071345,0.732422,-0.030518,3.387451
2.788949,-0.218546,0.052092,10.145303,-0.154881,0.018921,0.085715,0.061035,0.305176,3.204346
2.799016,-0.270038,-0.174836,9.956096,-0.206374,-0.208007,-0.103492,1.342773,1.190186,3.051758
2.809081,-0.217947,-0.252076,10.046508,-0.154283,-0.285247,-0.013080,1.190186,1.770020,2.838135
2.819145,-0.101190,-0.052092,10.234517,-0.037525,-0.085263,0.174929,-0.244141,1.586914,1.220703
2.829221,-0.213755,0.061073,10.115365,-0.150091,0.027902,0.055777,-1.068115,1.251221,-0.213623
2.839293,-0.204774,0.273032,10.116563,-0.141110,0.239861,0.056975,-2.288818,0.396729,-2.685547
2.849359,-0.284409,0.165855,10.170450,-0.220744,0.132684,0.110862,-2.746582,-0.427246,-3.875732
2.859425,-0.356259,0.185015,10.100995,-0.292595,0.151844,0.041407,-1.403809,-1.373291,-5.004883
2.869491,-0.293390,0.122146,10.095007,-0.229726,0.088975,0.035419,-0.701904,-2.014160,-6.378174
2.879555,-0.390987,0.238304,10.156679,-0.327323,0.205133,0.097091,1.129150,-2.105713,-7.781982
2.889627,-0.147294,0.343087,10.085427,-0.083630,0.309916,0.025839,0.335693,-1.464844,-5.920410
2.899693,-0.292192,0.214953,10.077045,-0.228528,0.181782,0.017457,-0.335693,-1.281738,-6.469727
2.909758,-0.217348,0.201780,9.962084,-0.153684,0.168609,-0.097504,0.152588,0.152588,-7.049561
2.919823,-0.098196,0.201780,9.780661,-0.034532,0.168609,-0.278927,0.427246,0.701904,-6.805420
2.929888,-0.376617,0.113165,10.063872,-0.312953,0.079994,0.004284,-1.586914,0.213623,-7.202148
2.939953,-0.249082,0.141306,9.874067,-0.185418,0.108135,-0.185521,0.061035,0.305176,-9.582520
2.950026,-0.302371,0.220342,9.865085,-0.238707,0.187171,-0.194503,1.159668,0.152588,-8.941650
2.960092,-0.303569,0.070653,9.942924,-0.239905,0.037482,-0.116664,-0.610352,-0.091553,-7.812500
2.970157,0.011376,-0.023950,9.983639,0.075040,-0.057121,-0.075949,-0.549316,-0.122070,-6.866455
2.980232,-0.055684,0.033530,10.072255,0.007980,0.000359,0.012667,-2.929688,-1.129150,-6.500244
2.990300,0.155676,0.059277,10.211765,0.219340,0.026106,0.152177,-3.417969,-1.373291,-7.537842
3.000378,0.091609,0.128732,10.232122,0.155274,0.095561,0.172534,-1.831055,-0.976562,-8.453369
3.010444,0.084424,0.170046,10.059681,0.148089,0.136875,0.000093,0.213623,-1.281738,-4.455566
3.020510,-0.085622,0.084424,10.009984,-0.021958,0.051253,-0.049604,0.305176,-1.190186,-2.288818
3.030575,0.168849,-0.188009,10.194999,0.232513,-0.221180,0.135411,0.518799,-0.732422,-1.678467
3.040640,-0.122146,-0.034129,10.190808,-0.058482,-0.067300,0.131220,1.586914,0.030518,-1.373291
3.050705,0.125739,-0.047900,9.893826,0.189403,-0.081071,-0.165762,-1.373291,0.183105,-0.335693
3.060771,0.108375,0.060474,10.214758,0.172039,0.027303,0.155170,-2.319336,0.122070,-1.007080
3.070835,0.175435,-0.095801,10.039922,0.239099,-0.128972,-0.019666,-1.556396,0.976562,-1.556396
3.080911,0.008383,0.065264,10.005194,0.072047,0.032093,-0.054394,-0.823975,0.976562,-3.265381
3.090977,-0.092807,0.227527,10.101594,-0.029143,0.194356,0.042006,-0.823975,0.823975,-5.187988
3.101042,-0.026944,0.114362,10.445279,0.036720,0.081191,0.385691,-2.258301,-0.213623,-5.859375
3.111108,-0.133522,0.178429,10.142908,-0.069858,0.145258,0.083320,-3.326416,-0.457764,-7.263184
3.121173,-0.191003,0.337099,9.898017,-0.127339,0.303928,-0.161571,-0.610352,-0.244141,-7.965088
3.131238,-0.119751,0.331710,9.833950,-0.056087,0.298539,-0.225638,-1.647949,0.305176,-7.598877
3.141311,-0.328716,0.166454,10.311158,-0.265052,0.133283,0.251570,-0.183105,0.305176,-8.819580
3.151377,-0.214354,-0.026944,10.045311,-0.150690,-0.060115,-0.014277,0.823975,-0.030518,-8.666992
3.161442,-0.176034,0.031135,10.045909,-0.112370,-0.002036,-0.013679,2.227783,-0.457764,-8.392334
3.171509,-0.402962,-0.079634,10.121353,-0.339298,-0.112805,0.061765,2.319336,-0.885010,-6.164551
3.181574,-0.416135,0.004790,10.136920,-0.352471,-0.028381,0.077332,3.326416,-0.610352,-5.645752
3.191640,-0.265248,-0.079634,10.097402,-0.201584,-0.112805,0.037814,1.434326,-0.885010,-5.737305
3.201713,-0.172441,-0.132325,10.082433,-0.108777,-0.165496,0.022845,1.007080,-0.885010,-6.195068
3.211779,-0.205373,-0.168250,10.032138,-0.141709,-0.201421,-0.027450,-1.373291,-1.098633,-5.706787
3.221844,0.219144,-0.652643,10.103390,0.282808,-0.685814,0.043802,-2.563477,-1.434326,-5.767822
3.231910,-0.200583,-0.273032,10.190808,-0.136919,-0.306203,0.131220,-0.274658,-0.427246,-6.256104
3.241976,-0.407153,-0.383203,10.257270,-0.343489,-0.416374,0.197682,-1.098633,-0.427246,-4.028320
3.252041,-0.341889,-0.383203,10.027947,-0.278225,-0.416374,-0.031641,0.762939,0.030518,-4.089355
3.262108,-0.036524,-0.318538,10.124346,0.027140,-0.351709,0.064758,0.885010,0.122070,-3.814697
3.272174,-0.258662,-0.143102,10.062675,-0.194998,-0.176273,0.003087,1.068115,0.457764,-3.479004
3.282239,-0.261057,-0.060474,10.092612,-0.197393,-0.093645,0.033024,0.579834,0.091553,-1.159668
3.292304,-0.037722,-0.083227,10.226733,0.025943,-0.116398,0.167145,0.732422,-0.305176,-0.305176
3.302370,-0.143102,-0.083826,10.081236,-0.079438,-0.116997,0.021648,0.274658,-0.366211,0.732422
3.312441,0.017963,-0.276026,9.998009,0.081627,-0.309197,-0.061579,-0.152588,-0.091553,0.122070
3.322512,-0.045505,-0.102387,9.921967,0.018159,-0.135558,-0.137621,-0.732422,-0.244141,-1.220703
3.332578,0.066462,-0.049697,10.268646,0.130126,-0.082868,0.209058,0.152588,0.213623,0.122070
3.342643,0.344284,0.234113,9.876462,0.407948,0.200942,-0.183126,-0.091553,0.762939,0.732422
3.352709,-0.210163,0.050894,10.341096,-0.146499,0.017723,0.281508,0.305176,0.671387,1.342773
3.362773,-0.192200,-0.046104,10.233918,-0.128536,-0.079275,0.174330,0.640869,0.518799,1.495361
3.372838,-0.135917,0.085023,9.921368,-0.072253,0.051852,-0.138220,0.579834,1.312256,1.342773
3.382905,-0.011376,0.296384,10.114766,0.052288,0.263213,0.055178,0.671387,0.640869,3.082275
3.392970,0.030536,0.267045,9.885443,0.094201,0.233874,-0.174145,0.213623,0.854492,4.882812
3.403035,0.216749,-0.037123,9.902807,0.280413,-0.070294,-0.156781,1.495361,0.762939,4.577637
3.413100,0.073647,0.067659,10.105785,0.137311,0.034488,0.046197,0.274658,0.488281,4.974365
3.423166,-0.243693,0.095801,9.974059,-0.180029,0.062630,-0.085529,0.518799,1.495361,4.669189
3.433231,-0.085622,-0.034728,10.174642,-0.021958,-0.067899,0.115054,0.640869,1.678467,3.997803
3.443298,-0.099393,-0.086221,10.017768,-0.035729,-0.119392,-0.041820,0.091553,1.251221,3.845215
3.453363,0.038320,-0.074246,10.099797,0.101984,-0.107417,0.040209,0.549316,0.305176,2.471924
3.463428,0.064666,-0.112566,10.192006,0.128330,-0.145737,0.132418,-0.091553,0.152588,2.716064
3.473495,0.162861,-0.063468,10.173444,0.226525,-0.096639,0.113856,-0.915527,0.091553,1.953125
3.483562,0.007185,-0.004790,10.139315,0.070849,-0.037961,0.079727,0.091553,-0.061035,1.922607
3.493627,-0.008981,-0.059277,10.021360,0.054683,-0.092448,-0.038228,0.518799,-0.762939,0.946045
3.503693,-0.010778,-0.144300,10.207573,0.052887,-0.177471,0.147985,0.885010,-0.823975,1.159668
3.513758,0.011376,-0.007185,9.971065,0.075040,-0.040356,-0.088523,0.396729,-0.396729,1.708984
3.523824,-0.064067,-0.165256,9.893227,-0.000403,-0.198427,-0.166361,0.366211,0.396729,2.136230
3.533887,-0.066462,-0.234712,10.095007,-0.002798,-0.267883,0.035419,0.396729,0.000000,1.312256
3.543953,0.149689,0.113763,10.093211,0.213353,0.080592,0.033623,0.183105,0.061035,3.631592
3.554018,-0.055684,0.097597,10.054292,0.007980,0.064426,-0.005296,0.488281,0.091553,5.096436
3.564086,-0.164059,-0.031135,10.005793,-0.100395,-0.064306,-0.053795,0.335693,0.030518,6.164551
3.574152,-0.162263,-0.117356,9.932146,-0.098598,-0.150527,-0.127442,-0.244141,0.335693,7.080078
3.584216,-0.095801,-0.098795,9.802216,-0.032137,-0.131966,-0.257372,-0.244141,0.457764,7.690430
3.594289,-0.134720,-0.197589,10.329719,-0.071056,-0.230760,0.270131,-1.770020,-0.244141,5.340576
3.604352,-0.086221,-0.176034,10.107581,-0.022557,-0.209205,0.047993,-1.129150,-0.396729,3.356934
3.614416,-0.133522,-0.153880,9.944720,-0.069858,-0.187051,-0.114868,1.251221,-0.152588,-0.640869
3.624575,0.149689,-0.145497,10.047706,0.213353,-0.178668,-0.011882,-0.305176,-0.366211,-1.434326
3.634639,-0.054487,0.243094,10.192604,0.009177,0.209923,0.133016,-0.427246,0.091553,-0.183105
3.644702,-0.031135,-0.062869,10.166259,0.032529,-0.096040,0.106671,0.152588,0.549316,0.732422
3.654767,-0.144899,0.070653,10.126143,-0.081235,0.037482,0.066555,0.244141,0.579834,1.556396
3.664831,-0.229323,0.044308,9.929751,-0.165659,0.011137,-0.129837,1.037598,1.373291,6.286621
3.674895,-0.022753,0.077838,9.871672,0.040911,0.044667,-0.187916,1.037598,1.007080,6.988525
3.684969,-0.016166,-0.010778,10.083032,0.047498,-0.043949,0.023444,-1.007080,-0.122070,5.096436
3.695034,0.018561,-0.095202,10.211765,0.082226,-0.128373,0.152177,-1.556396,-0.213623,3.814697
3.705098,-0.004191,-0.018561,10.181827,0.059473,-0.051732,0.122239,-0.213623,-0.885010,2.563477
3.715162,0.012574,0.096400,10.252480,0.076238,0.063229,0.192892,-0.396729,-0.976562,2.716064
3.725227,0.104782,0.035925,10.069261,0.168446,0.002754,0.009673,-0.305176,-1.129150,2.899170
3.735291,0.031135,0.178429,10.038724,0.094799,0.145258,-0.020864,-1.861572,-0.457764,3.479004
3.745356,0.089214,0.046104,10.152488,0.152879,0.012933,0.092900,-1.831055,-0.579834,5.523682
3.755420,0.025148,-0.246687,10.092612,0.088812,-0.279858,0.033024,-0.762939,-0.701904,5.187988
3.765484,0.004191,-0.202978,10.196796,0.067855,-0.236149,0.137208,0.762939,-0.946045,5.401611
3.775549,-0.058678,-0.055684,10.029743,0.004986,-0.088855,-0.029845,0.854492,-1.037598,7.049561
3.785613,-0.118553,-0.034728,9.872869,-0.054889,-0.067899,-0.186719,1.464844,-0.732422,7.232666
3.795677,-0.192200,-0.061073,10.034533,-0.128536,-0.094244,-0.025055,0.823975,-0.671387,8.148193
3.805741,-0.014370,-0.174836,10.023755,0.049294,-0.208007,-0.035832,-0.213623,-0.366211,5.187988
3.815806,-0.135917,-0.255070,10.093810,-0.072253,-0.288241,0.034222,-0.335693,-0.274658,3.662109
3.825878,-0.116757,0.120350,10.108180,-0.053093,0.087179,0.048592,-0.152588,-0.122070,3.265381
3.835943,0.161065,0.110171,9.994417,0.224729,0.077000,-0.065171,-0.488281,0.396729,3.875732
3.846007,-0.109572,0.217947,10.053693,-0.045908,0.184776,-0.005895,1.647949,1.861572,4.455566
3.856072,-0.195793,0.258662,9.857302,-0.132129,0.225491,-0.202286,3.021240,2.197266,4.760742
3.866135,-0.308958,0.370031,9.856703,-0.245293,0.336859,-0.202885,3.936768,2.105713,6.103516
3.876200,-0.336500,0.039518,10.192604,-0.272836,0.006347,0.133016,1.220703,1.373291,10.131836
3.886264,-0.261656,-0.099992,10.078242,-0.197992,-0.133163,0.018654,1.312256,1.190186,10.131836
3.896328,-0.249082,0.211959,9.906400,-0.185418,0.178788,-0.153188,1.922607,0.457764,9.399414
3.906393,-0.112566,0.302970,9.963281,-0.048902,0.269799,-0.096307,0.701904,0.183105,9.613037
3.916457,-0.161664,0.082029,10.033934,-0.098000,0.048858,-0.025654,-1.556396,-0.427246,7.202148
3.926521,-0.173040,0.231119,10.025552,-0.109376,0.197948,-0.034036,-2.502441,-0.305176,6.042480
3.936586,-0.204175,0.091609,10.104587,-0.140511,0.058438,0.044999,-1.922607,-0.061035,5.401611
3.946657,-0.119152,0.431104,10.154883,-0.055488,0.397932,0.095295,-2.227783,0.030518,6.164551
3.956723,-0.207169,0.380808,10.091415,-0.143505,0.347637,0.031827,-2.655029,0.213623,5.920410
3.966788,-0.058079,-0.062869,10.225536,0.005585,-0.096040,0.165948,-3.570557,0.732422,4.119873
3.976852,0.000000,0.114362,10.030941,0.063664,0.081191,-0.028647,-2.532959,0.518799,2.258301
3.986916,-0.085622,0.209564,10.015373,-0.021958,0.176393,-0.044215,-2.075195,-0.274658,-0.335693
3.996982,0.047900,0.149689,10.232721,0.111565,0.116518,0.173133,-1.190186,-0.762939,-0.732422
4.007047,-0.076042,0.181423,10.270443,-0.012378,0.148252,0.210855,-0.793457,-0.793457,-2.014160
4.017112,-0.155078,-0.091609,10.224937,-0.091413,-0.124781,0.165349,-1.220703,-0.427246,-3.814697
4.027177,-0.198188,-0.065264,10.096804,-0.134524,-0.098435,0.037216,-0.793457,0.518799,-3.692627
4.037242,-0.452659,-0.031135,9.907597,-0.388995,-0.064306,-0.151991,0.549316,0.396729,-4.577637
4.047305,-0.480800,-0.077838,10.030342,-0.417136,-0.111009,-0.029246,1.373291,0.823975,-4.364014
4.057370,-0.361049,-0.038320,10.153685,-0.297385,-0.071491,0.094097,1.556396,0.610352,-2.624512
4.067442,-0.353265,0.186213,10.068662,-0.289601,0.153042,0.009074,1.586914,0.274658,-1.007080
4.077507,-0.141306,0.079036,10.012978,-0.077642,0.045865,-0.046610,1.098633,-0.274658,0.488281
4.087571,-0.155078,0.082628,9.677675,-0.091413,0.049457,-0.381913,0.366211,-0.335693,2.777100
4.097635,-0.370629,-0.241897,10.224937,-0.306965,-0.275068,0.165349,0.915527,-0.274658,1.800537
4.107700,-0.355062,-0.114362,9.656120,-0.291398,-0.147533,-0.403468,1.037598,0.244141,2.838135
4.117766,-0.490979,-0.401166,9.924362,-0.427315,-0.434337,-0.135226,0.549316,0.366211,3.906250
4.127832,0.039518,-0.515528,10.236912,0.103182,-0.548699,0.177324,-0.183105,0.366211,1.434326
4.137897,-0.380209,-0.032932,10.251282,-0.316545,-0.066103,0.191694,0.030518,0.000000,1.586914
4.147962,-0.103585,0.155078,10.041718,-0.039920,0.121906,-0.017870,0.946045,0.030518,3.448486
4.158027,0.100591,0.264650,9.890233,0.164255,0.231479,-0.169355,1.159668,-0.457764,6.927490
4.168092,0.176034,0.115560,9.984836,0.239698,0.082389,-0.074752,-0.366211,-1.678467,6.225586
4.178157,0.172441,0.250280,10.093211,0.236106,0.217109,0.033623,1.312256,-2.197266,3.570557
4.188232,0.355660,0.231718,10.048903,0.419325,0.198547,-0.010685,0.396729,-1.464844,5.584717
4.198298,0.120350,-0.061073,10.414742,0.184014,-0.094244,0.355154,-1.312256,-0.488281,7.049561
4.208364,-0.094005,0.119152,10.131531,-0.030340,0.085981,0.071943,-2.838135,0.030518,7.354736
4.218431,0.050894,0.197589,9.793235,0.114558,0.164418,-0.266353,-1.800537,0.122070,7.354736
4.228497,0.083227,-0.363444,10.152488,0.146891,-0.396615,0.092900,-1.525879,0.732422,9.826660
4.238563,0.247885,-0.449665,10.193802,0.311549,-0.482836,0.134214,-0.793457,0.885010,10.101318
4.248628,0.173639,-0.395777,10.281819,0.237303,-0.428948,0.222231,-0.305176,-0.549316,8.361816
4.258693,-0.148491,0.061073,10.127340,-0.084827,0.027902,0.067752,1.403809,-1.190186,6.713867
4.268761,-0.038320,0.265847,10.027348,0.025344,0.232676,-0.032240,2.014160,-0.640869,9.521484
4.278826,0.141306,-0.078437,9.974059,0.204970,-0.111608,-0.085529,0.915527,0.213623,9.124756
4.288890,0.353864,-0.108973,9.953102,0.417528,-0.142144,-0.106486,0.457764,0.946045,6.744385
4.298955,0.005389,-0.147892,9.967473,0.069053,-0.181063,-0.092115,1.861572,1.922607,6.317139
4.309021,0.007784,-0.597557,10.507549,0.071448,-0.630728,0.447961,0.396729,1.770020,5.432129
4.319094,-0.196990,-0.296982,10.033934,-0.133326,-0.330153,-0.025654,1.495361,1.586914,-0.091553
4.329160,-0.170645,-0.395178,10.408156,-0.106981,-0.428349,0.348568,0.427246,0.701904,-0.671387
4.339228,-0.217348,-0.397573,10.208172,-0.153684,-0.430744,0.148584,1.190186,0.946045,0.366211
4.349294,-0.281415,-0.371228,9.851314,-0.217751,-0.404399,-0.208274,1.312256,0.366211,1.647949
4.359360,-0.246687,-0.417332,10.162068,-0.183023,-0.450503,0.102480,0.366211,-0.122070,3.967285
4.369425,-0.063468,-0.368234,10.032737,0.000196,-0.401405,-0.026851,-0.915527,-0.396729,4.486084
4.379492,0.137115,0.067659,9.550739,0.200779,0.034488,-0.508849,2.136230,0.183105,4.302979
4.389557,0.025746,-0.145497,10.119556,0.089411,-0.178668,0.059968,-1.281738,0.213623,3.723145
4.399622,-0.017963,0.390388,9.967473,0.045701,0.357217,-0.092115,0.885010,1.129150,1.953125
4.409687,0.177830,0.241897,10.029743,0.241494,0.208726,-0.029845,-0.946045,0.335693,-0.061035
4.419752,0.126936,0.407153,10.247690,0.190600,0.373982,0.188102,-1.464844,0.091553,-1.647949
4.429817,-0.053888,0.285007,10.065070,0.009776,0.251836,0.005482,-1.556396,0.152588,-3.326416
4.439890,0.292192,-0.143701,9.913585,0.355856,-0.176872,-0.146003,-2.014160,1.037598,-3.204346
4.449956,0.004191,-0.110171,10.060878,0.067855,-0.143342,0.001290,-0.762939,0.823975,-3.112793
4.460021,0.059875,-0.111368,9.997410,0.123540,-0.144539,-0.062178,0.183105,1.281738,-2.380371
4.470086,0.168250,-0.302371,9.933942,0.231914,-0.335542,-0.125646,0.244141,1.556396,-2.319336
4.480150,0.031135,-0.060474,9.949510,0.094799,-0.093645,-0.110078,2.471924,0.915527,0.244141
4.490216,-0.123942,0.041913,9.960287,-0.060278,0.008742,-0.099301,1.739502,0.549316,2.746582
4.500281,-0.159269,0.062271,10.071656,-0.095605,0.029099,0.012068,0.640869,0.183105,3.997803
4.510348,-0.220941,-0.108375,9.865085,-0.157276,-0.141546,-0.194503,0.335693,-0.213623,3.326416
4.520414,-0.001198,-0.125739,10.009984,0.062467,-0.158910,-0.049604,-1.129150,-0.213623,1.892090
4.530479,-0.025148,0.096998,9.826765,0.038516,0.063827,-0.232823,0.579834,-1.342773,2.197266
4.540544,0.124541,-0.062271,10.051897,0.188205,-0.095442,-0.007691,-1.556396,-0.854492,1.983643
4.550609,-0.035327,0.103585,10.122550,0.028338,0.070414,0.062962,-1.312256,-0.671387,-1.434326
4.560682,-0.176633,0.243094,10.158475,-0.112969,0.209923,0.098887,0.122070,-0.427246,-1.647949
4.570748,-0.137714,0.101788,9.993219,-0.074050,0.068617,-0.066369,1.403809,-0.274658,1.464844
4.580812,-0.146695,0.262853,10.104587,-0.083031,0.229682,0.044999,0.762939,-0.335693,3.387451
4.590878,-0.210163,-0.049697,10.200388,-0.146499,-0.082868,0.140800,-0.366211,-0.213623,6.072998
4.600945,-0.322729,0.007185,10.224338,-0.259065,-0.025986,0.164750,-1.586914,-0.762939,8.300781
4.611010,-0.242496,-0.186213,10.016570,-0.178832,-0.219384,-0.043018,-1.281738,-0.854492,9.918213
4.621075,-0.062271,-0.097597,9.798025,0.001394,-0.130768,-0.261563,1.007080,-0.854492,9.918213
4.631142,-0.107177,0.035327,9.989028,-0.043513,0.002156,-0.070560,0.122070,-1.037598,8.789062
4.641207,0.010778,-0.189207,10.078242,0.074442,-0.222378,0.018654,0.305176,-0.915527,5.493164
4.651273,-0.098196,-0.026944,10.147698,-0.034532,-0.060115,0.088110,0.518799,-0.823975,7.019043
4.661337,-0.122745,-0.103585,10.068063,-0.059081,-0.136756,0.008475,1.129150,-0.823975,6.011963
4.671402,-0.086819,0.138312,10.144105,-0.023155,0.105141,0.084517,0.946045,-0.946045,2.777100
4.681467,0.019759,0.116158,9.943522,0.083423,0.082987,-0.116066,1.403809,-0.061035,3.723145
4.691533,-0.124541,0.140707,10.157877,-0.060877,0.107536,0.098289,1.831055,-0.244141,5.279541
4.701606,0.040715,0.117356,10.096205,0.104379,0.084185,0.036617,0.274658,0.213623,4.577637
4.711672,0.015568,-0.616718,10.099199,0.079232,-0.649889,0.039611,3.723145,1.586914,3.265381
4.721737,0.205972,-0.075443,10.308763,0.269636,-0.108614,0.249175,0.335693,1.647949,5.065918
4.731803,0.123942,-0.096400,9.977053,0.187606,-0.129571,-0.082535,2.410889,2.136230,2.380371
4.741868,0.156874,0.013173,9.932745,0.220538,-0.019998,-0.126843,-0.915527,1.739502,-0.305176
4.751933,-0.219743,0.047900,10.247690,-0.156079,0.014729,0.188102,0.701904,2.075195,-3.173828
4.761999,0.028141,-0.128732,10.014774,0.091806,-0.161903,-0.044814,0.976562,0.976562,-0.488281
4.772064,0.050295,-0.163460,10.071057,0.113960,-0.196631,0.011469,0.762939,-0.213623,1.739502
4.782129,0.088616,0.052690,10.144704,0.152280,0.019519,0.085116,1.586914,0.061035,2.685547
4.792196,-0.264051,0.191003,10.145901,-0.200387,0.157832,0.086314,0.671387,-1.770020,4.425049
4.802262,-0.140707,0.420925,9.957294,-0.077043,0.387754,-0.102294,0.366211,-2.044678,7.263184
4.812328,0.067061,0.256267,10.078242,0.130725,0.223096,0.018654,0.488281,-1.800537,11.413574
4.822396,-0.026345,0.575403,10.033934,0.037319,0.542232,-0.025654,0.549316,-0.701904,14.129639
4.832462,0.147294,0.240101,10.056088,0.210958,0.206930,-0.003500,-0.946045,0.427246,15.716553
4.842526,0.038919,0.107776,10.141111,0.102583,0.074605,0.081523,-1.281738,0.579834,15.289307
4.852591,0.050894,0.241897,9.898616,0.114558,0.208726,-0.160972,-1.708984,1.037598,11.627197
4.862657,-0.020358,0.111368,10.059082,0.043306,0.078197,-0.000506,-2.655029,1.129150,11.901855
4.872725,-0.219743,0.183818,9.847123,-0.156079,0.150647,-0.212465,-1.983643,1.495361,12.023926
4.882791,-0.072449,0.038919,10.038724,-0.008785,0.005748,-0.020864,-2.655029,1.373291,13.763428
4.892856,0.132924,0.155078,10.024953,0.196588,0.121906,-0.034635,-1.159668,0.793457,14.556885
4.902922,0.247286,0.014969,10.054891,0.310950,-0.018202,-0.004697,0.122070,1.525879,12.908936
4.912988,0.158670,0.008981,10.098600,0.222334,-0.024190,0.039012,0.366211,1.831055,12.023926
4.923053,0.182620,0.115560,10.042916,0.246284,0.082389,-0.016672,-0.396729,1.831055,13.458252
4.933119,0.076042,-0.135319,9.984836,0.139706,-0.168490,-0.074752,0.244141,1.770020,13.427734
4.943184,0.114362,-0.463436,10.188413,0.178026,-0.496607,0.128825,0.091553,1.434326,13.336182
4.953249,0.205972,-0.432900,10.135723,0.269636,-0.466071,0.076135,-0.091553,0.823975,10.559082
4.963314,0.089214,-0.396974,10.202184,0.152879,-0.430146,0.142596,-0.061035,0.579834,9.277344
4.973380,0.181423,-0.241298,10.151889,0.245087,-0.274469,0.092301,-0.335693,0.183105,8.666992
4.983464,0.095202,-0.194595,10.263856,0.158866,-0.227766,0.204268,-0.061035,0.122070,7.202148
4.993529,0.140109,-0.128134,9.948312,0.203773,-0.161305,-0.111276,0.579834,-0.457764,3.356934
5.003595,0.116158,0.017364,10.014774,0.179823,-0.015807,-0.044814,0.305176,-0.274658,2.868652
5.013659,0.133522,-0.027543,10.123748,0.197186,-0.060714,0.064160,-0.183105,-0.396729,2.838135
5.023725,0.071851,-0.165855,10.142309,0.135515,-0.199026,0.082721,-0.488281,0.030518,2.014160
5.033791,-0.075443,-0.086819,10.096804,-0.011779,-0.119990,0.037216,-0.488281,0.183105,1.464844
5.043855,-0.232317,-0.123942,10.037527,-0.168653,-0.157113,-0.022061,-0.854492,0.732422,1.312256
5.053920,-0.198188,-0.095202,10.219548,-0.134524,-0.128373,0.159960,-1.037598,0.549316,0.518799
5.063985,-0.149090,-0.009580,10.170450,-0.085426,-0.042751,0.110862,-1.190186,0.244141,0.152588
5.074051,-0.143701,0.128134,10.040521,-0.080037,0.094963,-0.019067,1.068115,0.732422,0.396729
5.084117,0.077239,0.078437,9.905202,0.140903,0.045266,-0.154386,2.807617,0.976562,0.915527
5.094182,-0.067659,0.151485,10.172247,-0.003995,0.118314,0.112659,1.129150,-0.335693,0.091553
5.104248,-0.318538,0.170046,10.006392,-0.254873,0.136875,-0.053196,2.227783,-0.152588,-2.014160
5.114311,-0.096998,0.116757,10.085427,-0.033334,0.083586,0.025839,1.220703,-0.335693,-3.234863
5.124376,0.020956,0.019160,10.138716,0.084621,-0.014011,0.079128,0.671387,-0.305176,-3.417969
5.134440,0.132924,-0.083227,10.010583,0.196588,-0.116398,-0.049005,0.335693,-0.213623,-3.753662
5.144504,-0.150287,-0.011975,10.036928,-0.086623,-0.045146,-0.022660,0.762939,-0.305176,-4.547119
5.154568,-0.005988,-0.013173,10.036329,0.057677,-0.046344,-0.023259,-1.159668,-0.854492,-4.547119
5.164633,-0.370031,0.019759,10.043514,-0.306366,-0.013412,-0.016074,-0.457764,-0.213623,-6.286621
5.174697,-0.187410,-0.125140,9.758507,-0.123746,-0.158311,-0.301081,-1.220703,-0.396729,-5.340576
5.184768,0.102986,0.060474,9.804012,0.166650,0.027303,-0.255576,-1.251221,-0.671387,-1.800537
5.194833,-0.241897,0.037722,10.039323,-0.178233,0.004551,-0.020265,-2.319336,0.213623,-2.075195
5.204898,-0.323926,-0.134720,9.980046,-0.260262,-0.167891,-0.079542,-1.892090,-0.335693,-1.678467
5.214961,-0.055684,-0.253273,9.881252,0.007980,-0.286444,-0.178336,-1.159668,-0.518799,-1.342773
5.225026,-0.241897,-0.143102,10.071057,-0.178233,-0.176273,0.011469,-1.251221,0.091553,-2.288818
5.235090,-0.074844,-0.304167,10.124945,-0.011180,-0.337339,0.065357,0.091553,0.335693,-2.899170
5.245153,-0.279020,-0.239502,10.056687,-0.215356,-0.272673,-0.002901,0.915527,0.610352,-2.532959
5.255218,-0.306563,0.466430,10.383607,-0.242898,0.433259,0.324019,3.723145,1.739502,-2.014160
5.265282,-0.313748,-0.003593,10.347682,-0.250083,-0.036764,0.288094,0.091553,-0.305176,0.305176
5.275346,-0.474214,0.176633,10.044113,-0.410550,0.143462,-0.015475,-0.213623,0.518799,-2.777100
5.285409,-0.225132,0.019160,9.841135,-0.161468,-0.014011,-0.218453,-0.030518,0.244141,-4.180908
5.295475,-0.309556,-0.071252,10.280621,-0.245892,-0.104423,0.221033,-0.366211,0.091553,-4.455566
5.305538,-0.200583,0.134121,10.071057,-0.136919,0.100950,0.011469,-1.190186,-0.457764,-3.753662
5.315611,0.050295,-0.353864,10.137519,0.113960,-0.387035,0.077931,-1.251221,-0.488281,-5.279541
5.325675,-0.505948,0.022753,10.136920,-0.442284,-0.010418,0.077332,1.220703,-0.396729,-6.835938
5.335740,-0.325124,-0.184417,10.227931,-0.261460,-0.217588,0.168343,1.007080,-0.915527,-6.958008
5.345805,-0.240699,-0.204774,10.190808,-0.177035,-0.237945,0.131220,3.570557,-0.030518,-6.500244
5.355870,-0.394579,-0.025148,10.134525,-0.330915,-0.058319,0.074937,0.823975,-0.671387,-5.554199
5.365935,-0.316741,0.311951,10.178234,-0.253077,0.278780,0.118646,0.885010,-0.671387,-5.859375
5.375999,-0.437690,0.083227,10.119556,-0.374026,0.050056,0.059968,-0.396729,-0.762939,-5.462646
5.386064,-0.246088,-0.211959,9.983040,-0.182424,-0.245130,-0.076548,-1.922607,-0.640869,-5.096436
5.396128,-0.500559,0.196990,9.871073,-0.436895,0.163819,-0.188515,-1.556396,-1.129150,-5.828857
5.406197,-0.350870,-0.165855,10.243499,-0.287206,-0.199026,0.183911,-3.387451,-0.793457,-2.441406
5.416262,-0.060474,-0.234712,9.861493,0.003190,-0.267883,-0.198095,-1.831055,-0.488281,-3.082275
5.426326,-0.167651,-0.310155,10.075248,-0.103987,-0.343326,0.015660,-0.762939,-0.610352,-3.967285
5.436399,-0.350272,-0.263452,10.295590,-0.286607,-0.296623,0.236002,-0.854492,-0.122070,-5.432129
5.446464,-0.185614,-0.114961,10.265054,-0.121950,-0.148132,0.205466,0.000000,-0.061035,-7.019043
5.456528,-0.102986,-0.126337,9.753717,-0.039322,-0.159508,-0.305871,0.640869,0.030518,-6.805420
5.466592,-0.234113,-0.205972,9.906400,-0.170449,-0.239143,-0.153188,-0.335693,-0.061035,-9.674072
5.476657,-0.243094,-0.165256,10.114167,-0.179430,-0.198427,0.054580,0.305176,0.091553,-10.559082
5.486720,-0.402363,-0.136516,10.051298,-0.338699,-0.169687,-0.008290,-0.396729,-0.305176,-11.108398
5.496785,-0.350870,-0.329914,9.811796,-0.287206,-0.363085,-0.247792,0.915527,0.244141,-13.732910
5.506850,-0.566422,-0.421523,10.117161,-0.502758,-0.454694,0.057573,0.579834,0.122070,-14.129639
5.516914,-0.615520,-0.338297,10.203382,-0.551856,-0.371468,0.143794,1.373291,-0.213623,-14.526367
5.526978,-0.574805,-0.362845,10.000404,-0.511141,-0.396016,-0.059184,2.380371,-0.091553,-13.153076
5.537042,-0.399968,-0.176034,10.103390,-0.336304,-0.209205,0.043802,0.427246,-0.579834,-9.429932
5.547107,-0.335901,0.168250,9.921967,-0.272237,0.135079,-0.137621,-0.122070,-0.610352,-8.148193
5.557171,-0.328118,-0.019759,10.124945,-0.264454,-0.052930,0.065357,-1.617432,-0.427246,-6.713867
5.567236,-0.523911,0.002994,10.209968,-0.460246,-0.030177,0.150380,-1.251221,-0.030518,-7.232666
5.577348,-0.276625,-0.034129,10.010583,-0.212961,-0.067300,-0.049005,-1.434326,0.152588,-6.347656
5.587412,-0.397573,-0.023950,9.453741,-0.333909,-0.057121,-0.605847,-1.098633,0.427246,-5.981445
5.597478,-0.603545,0.128134,10.078841,-0.539881,0.094963,0.019253,-1.617432,1.220703,-3.540039
5.607544,-0.058079,-0.092807,9.703422,0.005585,-0.125978,-0.356166,-0.793457,-0.396729,-3.723145
5.617610,-0.264051,-0.192799,10.178833,-0.200387,-0.225970,0.119245,-0.762939,-0.793457,-4.669189
5.627681,-0.210163,0.123344,10.220746,-0.146499,0.090172,0.161158,0.244141,-1.129150,-5.432129
5.637745,0.081431,0.004790,10.132729,0.145095,-0.028381,0.073141,0.671387,-1.220703,-7.202148
5.647810,-0.061073,0.338895,10.218351,0.002591,0.305724,0.158763,-0.885010,-1.373291,-6.164551
5.657876,0.047302,0.066462,10.077643,0.110966,0.033291,0.018055,-1.586914,-1.922607,-6.439209
5.667941,-0.132924,0.387394,10.078242,-0.069259,0.354223,0.018654,-1.586914,-2.136230,-6.988525
5.678007,0.094603,0.146695,10.117161,0.158267,0.113524,0.057573,0.183105,-1.556396,-4.180908
5.688072,-0.244292,0.135917,10.124945,-0.180628,0.102746,0.065357,-0.061035,-0.946045,-3.295898
5.698147,-0.205972,-0.076042,10.174043,-0.142308,-0.109213,0.114455,0.366211,0.061035,-3.051758
5.708213,-0.511935,0.032333,9.977651,-0.448271,-0.000838,-0.081937,0.976562,0.885010,-1.129150
5.718279,-0.564626,0.000599,10.100396,-0.500962,-0.032572,0.040808,-1.403809,2.258301,1.190186
5.728345,-0.317340,-0.038320,10.069860,-0.253676,-0.071491,0.010272,-1.892090,1.922607,2.716064
5.738410,-0.350870,-0.071252,10.064471,-0.287206,-0.104423,0.004883,-1.525879,0.976562,1.678467
5.748476,-0.410147,-0.280217,9.941127,-0.346483,-0.313388,-0.118461,-1.159668,0.701904,-0.823975
5.758542,-0.234113,-0.474214,9.918973,-0.170449,-0.507385,-0.140615,-0.976562,0.030518,-1.586914
5.768608,-0.276026,-0.224533,10.050101,-0.212362,-0.257704,-0.009487,-0.122070,-0.610352,1.403809
5.778674,-0.322130,-0.096400,10.069261,-0.258466,-0.129571,0.009673,-0.427246,-0.671387,3.204346
5.788739,-0.359852,-0.095801,9.847722,-0.296188,-0.128972,-0.211866,1.373291,-1.068115,4.516602
5.798805,-0.324525,0.164658,9.899214,-0.260861,0.131487,-0.160374,0.579834,-2.166748,6.225586
5.808871,-0.283810,0.148491,10.006990,-0.220146,0.115320,-0.052598,-1.159668,-2.532959,8.941650
5.818974,-0.178429,0.244292,9.966874,-0.114765,0.211121,-0.092714,0.640869,-1.159668,10.101318
5.829067,-0.126936,0.343685,9.984238,-0.063272,0.310514,-0.075350,-0.061035,-0.518799,9.674072
5.839133,0.281415,0.434097,10.117161,0.345079,0.400926,0.057573,0.823975,0.213623,8.636475
5.849205,0.450862,0.593366,10.150692,0.514527,0.560195,0.091104,-0.274658,0.122070,6.744385
5.859276,0.172441,0.304766,10.050699,0.236106,0.271595,-0.008889,1.708984,0.854492,1.190186
5.869341,0.128134,0.430505,9.987830,0.191798,0.397334,-0.071758,0.274658,0.335693,1.922607
5.879415,-0.000599,0.261656,9.928553,0.063065,0.228485,-0.131035,-0.335693,0.274658,0.427246
5.889487,0.202978,0.222138,9.999207,0.266642,0.188967,-0.060381,-0.091553,-0.366211,-3.356934
5.899552,0.189805,0.304766,10.009385,0.253469,0.271595,-0.050203,-0.701904,0.091553,-2.777100
5.909624,-0.132325,0.450862,9.941726,-0.068661,0.417691,-0.117862,0.030518,1.190186,-4.150391
5.919695,-0.117356,0.513133,10.052496,-0.053692,0.479962,-0.007092,1.525879,1.892090,-3.845215
5.929762,0.257465,0.149689,9.815988,0.321129,0.116518,-0.243600,-1.800537,0.885010,-9.582520
5.939839,-0.074844,-0.019160,9.987830,-0.011180,-0.052331,-0.071758,-1.922607,0.793457,-13.580322
5.949911,-0.275427,0.249082,10.023755,-0.211763,0.215911,-0.035832,-2.960205,1.068115,-14.312744
5.959976,0.091011,0.234113,9.884246,0.154675,0.200942,-0.175342,-2.685547,0.915527,-13.366699
5.970048,-0.113763,0.274828,10.232721,-0.050099,0.241657,0.173133,-1.586914,1.739502,-13.732910
5.980119,-0.068258,0.473615,10.032737,-0.004594,0.440444,-0.026851,3.997803,0.335693,-9.979248
5.990184,0.090412,0.252675,9.953102,0.154076,0.219504,-0.106486,0.946045,-0.396729,-7.232666
6.000258,-0.176633,0.231119,10.073452,-0.112969,0.197948,0.013864,2.288818,-0.366211,-5.920410
6.010332,0.226329,0.150287,10.060878,0.289993,0.117116,0.001290,0.152588,-0.091553,-3.967285
6.020398,0.165855,-0.138312,10.287208,0.229519,-0.171483,0.227620,0.549316,0.427246,-2.929688
6.030468,0.167053,-0.043709,9.965676,0.230717,-0.076880,-0.093912,2.716064,0.061035,-1.892090
6.040540,0.186812,0.120350,9.981244,0.250476,0.087179,-0.078344,2.593994,0.152588,-0.762939
6.050605,0.323926,0.143701,10.024354,0.387591,0.110530,-0.035234,-1.220703,0.305176,-2.349854
6.060677,0.104782,0.146096,10.121353,0.168446,0.112925,0.061765,-1.464844,0.305176,-3.082275
6.070750,0.098795,0.418530,9.609417,0.162459,0.385359,-0.450171,-0.335693,0.976562,-2.227783
6.080818,0.192200,0.023950,9.815988,0.255864,-0.009221,-0.243600,0.793457,1.159668,-3.448486
6.090902,-0.020358,-0.097597,10.139315,0.043306,-0.130768,0.079727,-0.030518,1.129150,-3.570557
6.101027,0.293989,0.037123,10.478809,0.357653,0.003952,0.419221,-2.136230,2.044678,-1.892090
6.111092,0.028740,-0.220941,10.513537,0.092404,-0.254112,0.453949,0.335693,0.640869,-4.974365
6.121164,-0.538281,0.312550,9.693842,-0.474617,0.279379,-0.365746,2.838135,-0.885010,-9.887695
6.131238,-0.308958,0.141905,10.009984,-0.245293,0.108734,-0.049604,1.525879,-1.068115,-8.453369
6.141304,0.018561,-0.162263,9.941726,0.082226,-0.195434,-0.117862,0.488281,-1.434326,-6.195068
6.151375,-0.013173,-0.149090,10.147099,0.050492,-0.182261,0.087511,-0.579834,-1.525879,-5.493164
6.161446,-0.187410,-0.206570,10.135124,-0.123746,-0.239741,0.075536,-0.427246,-1.312256,-5.126953
6.171511,-0.231119,-0.308958,9.987231,-0.167455,-0.342129,-0.072357,-0.549316,0.610352,-3.875732
6.181581,-0.278421,-0.415536,10.042916,-0.214757,-0.448707,-0.016672,-2.166748,0.762939,-1.831055
6.191659,0.176034,-0.223934,9.871073,0.239698,-0.257105,-0.188515,-2.655029,1.129150,-1.342773
6.201724,-0.082029,-0.088616,10.263257,-0.018365,-0.121787,0.203669,-1.037598,0.549316,0.671387
6.211791,-0.448467,-0.024549,10.110575,-0.384803,-0.057720,0.050987,-1.068115,0.122070,5.157471
6.221863,0.014370,-0.099992,10.012978,0.078034,-0.133163,-0.046610,0.366211,0.000000,7.202148
6.231928,-0.159269,-0.300575,10.088421,-0.095605,-0.333746,0.028833,0.915527,-0.213623,8.239746
6.241995,-0.301174,-0.012574,9.879456,-0.237510,-0.045745,-0.180132,0.793457,0.762939,8.972168
6.252070,-0.356858,-0.224533,10.184222,-0.293194,-0.257704,0.124634,0.061035,1.220703,8.941650
6.262135,-0.288001,0.186213,9.811198,-0.224337,0.153042,-0.248390,-2.349854,1.739502,9.124756
6.272202,-0.316741,0.022753,9.832753,-0.253077,-0.010418,-0.226835,-1.190186,1.373291,8.789062
6.282267,-0.296384,-0.031734,9.953701,-0.232720,-0.064905,-0.105887,-0.701904,0.061035,9.826660
6.292332,-0.327519,-0.037722,10.026749,-0.263855,-0.070893,-0.032839,-1.831055,0.640869,10.314941
6.302398,0.086819,-0.374821,10.160272,0.150484,-0.407992,0.100684,-2.441406,0.396729,9.704590
6.312464,-0.007185,-0.417931,10.380015,0.056479,-0.451102,0.320427,-0.671387,-0.030518,6.988525
6.322530,-0.140707,-0.309556,10.291399,-0.077043,-0.342727,0.231811,1.495361,-0.823975,5.279541
6.332595,-0.025746,-0.044907,10.047706,0.037918,-0.078078,-0.011882,-0.030518,-0.915527,5.950928
6.342661,-0.177231,0.004191,10.114167,-0.113567,-0.028980,0.054580,-0.183105,-0.701904,5.615234
6.352726,0.098196,-0.071851,9.933344,0.161860,-0.105022,-0.126244,-0.610352,-0.762939,2.593994
6.362792,-0.152682,0.080832,9.967473,-0.089018,0.047661,-0.092115,-0.915527,-0.427246,2.136230
6.372857,-0.301174,-0.062271,9.966874,-0.237510,-0.095442,-0.092714,-1.129150,0.030518,2.532959
6.382922,-0.548459,-0.077239,10.114167,-0.484795,-0.110410,0.054580,-1.281738,0.732422,0.640869
6.392987,-0.229323,-0.314346,10.022558,-0.165659,-0.347517,-0.037030,-1.312256,1.434326,0.976562
6.403052,-0.150886,-0.029339,10.407557,-0.087222,-0.062510,0.347969,-1.922607,0.946045,2.105713
6.413117,-0.118553,-0.224533,10.548864,-0.054889,-0.257704,0.489276,-2.044678,0.671387,2.227783
6.423183,0.217348,-0.081431,10.080038,0.281012,-0.114602,0.020450,-3.997803,1.312256,0.030518
6.433248,-0.017963,-0.326920,10.490186,0.045701,-0.360091,0.430598,-1.983643,1.098633,-0.671387
6.443313,0.396974,-0.134720,10.211166,0.460639,-0.167891,0.151578,-2.685547,0.183105,-1.892090
6.453379,0.495769,-0.104183,9.908795,0.559433,-0.137354,-0.150793,0.701904,0.122070,-0.671387
6.463444,0.432301,-0.185614,9.567504,0.495965,-0.218785,-0.492084,2.746582,-0.885010,-3.387451
6.473510,-0.131726,0.458047,9.882449,-0.068062,0.424876,-0.177139,5.523682,-1.251221,-1.098633
6.483576,-0.181423,0.114961,9.961485,-0.117759,0.081790,-0.098103,5.187988,-1.281738,2.136230
6.493641,-0.207169,0.379611,10.017768,-0.143505,0.346440,-0.041820,0.427246,-1.220703,2.471924
6.503706,-0.101190,-0.031135,10.077045,-0.037525,-0.064306,0.017457,-1.617432,-1.068115,-0.976562
6.513804,-0.113763,0.396974,9.932745,-0.050099,0.363803,-0.126843,-1.251221,0.549316,0.152588
6.523886,-0.068857,0.210762,9.596843,-0.005193,0.177591,-0.462745,-1.037598,0.427246,-1.678467
6.533972,-0.003593,-0.389789,10.069261,0.060072,-0.422960,0.009673,-1.617432,0.244141,-2.532959
6.544038,0.235311,-0.311951,10.166858,0.298975,-0.345122,0.107270,1.342773,-0.976562,-0.823975
6.554102,0.158670,-0.235311,10.198592,0.222334,-0.268482,0.139004,2.227783,-1.281738,-0.549316
6.564240,0.222138,0.211360,9.942325,0.285802,0.178189,-0.117263,2.990723,-0.762939,1.129150
6.574306,0.200583,0.287402,9.724378,0.264247,0.254231,-0.335210,4.669189,-0.366211,2.075195
6.584369,0.123942,-0.125140,9.997410,0.187606,-0.158311,-0.062178,4.669189,-0.396729,3.295898
6.594440,0.408950,0.535886,9.929751,0.472614,0.502715,-0.129837,2.685547,-0.885010,4.272461
6.604510,-0.094603,-0.101190,9.880054,-0.030939,-0.134361,-0.179534,-2.960205,-2.136230,5.371094
6.614573,0.290396,-0.292192,10.023157,0.354060,-0.325363,-0.036431,-2.410889,-2.532959,-5.340576
6.624643,0.431104,-0.065264,10.045311,0.494768,-0.098435,-0.014277,-2.807617,-2.258301,-3.234863
6.634757,-0.005389,-0.309556,10.118958,0.058275,-0.342727,0.059370,-2.868652,-0.823975,-3.051758
6.644820,-0.002994,-0.352667,9.946516,0.060670,-0.385838,-0.113072,-1.983643,-0.579834,-4.974365
6.654890,-0.028740,-0.356259,9.984238,0.034924,-0.389430,-0.075350,-1.861572,1.617432,0.488281
6.664959,0.000000,-0.031135,10.129735,0.063664,-0.064306,0.070147,-1.617432,1.495361,2.838135
6.675024,-0.146096,0.243693,10.089020,-0.082432,0.210522,0.029432,-2.136230,2.044678,5.554199
6.685094,0.026345,0.005389,10.136321,0.090009,-0.027782,0.076733,-2.258301,1.495361,5.157471
6.695163,-0.083227,0.114961,10.081236,-0.019563,0.081790,0.021648,0.061035,0.946045,5.584717
6.705228,-0.462239,0.290396,9.802815,-0.398575,0.257225,-0.256773,0.885010,0.305176,6.042480
6.715297,-0.108375,0.153281,10.162667,-0.044711,0.120110,0.103079,0.793457,-0.274658,3.997803
6.725367,-0.150287,0.672402,9.912387,-0.086623,0.639231,-0.147201,0.152588,-1.159668,4.760742
6.735430,-0.071252,0.105980,9.923763,-0.007588,0.072809,-0.135825,3.936768,-0.915527,3.448486
6.745499,-0.282014,0.381407,10.031539,-0.218349,0.348236,-0.028049,4.119873,-0.854492,4.425049
6.755569,0.047900,-0.498164,10.359657,0.111565,-0.531335,0.300069,1.617432,-1.556396,-3.265381
6.765633,-0.241897,-0.308958,10.271640,-0.178233,-0.342129,0.212052,1.678467,-0.732422,-9.307861
6.775702,-0.293390,0.105381,9.945319,-0.229726,0.072210,-0.114269,1.129150,-0.305176,-8.941650
6.785771,-0.459245,0.153281,10.084230,-0.395581,0.120110,0.024642,0.823975,0.457764,-6.286621
6.795839,-0.323328,0.144899,9.966275,-0.259664,0.111728,-0.093313,0.030518,0.946045,-3.997803
6.805908,-0.252076,-0.177231,9.905801,-0.188412,-0.210402,-0.153787,0.946045,0.396729,-3.997803
6.815977,-0.446072,-0.103585,10.003398,-0.382408,-0.136756,-0.056190,0.610352,0.122070,-3.356934
6.826041,-0.227527,-0.065264,10.056687,-0.163863,-0.098435,-0.002901,0.244141,-0.915527,-3.448486
6.836111,-0.291594,-0.201780,10.114167,-0.227930,-0.234951,0.054580,1.342773,-0.976562,1.617432
6.846182,-0.467628,-0.093406,10.159673,-0.403963,-0.126577,0.100085,-2.014160,-0.396729,-1.190186
6.856246,-0.358654,-0.083826,10.105785,-0.294990,-0.116997,0.046197,-1.953125,-0.579834,-1.708984
6.866316,-0.139510,-0.232317,10.236313,-0.075846,-0.265488,0.176725,0.671387,-1.129150,0.915527
6.876386,-0.193398,0.154479,10.033336,-0.129734,0.121308,-0.026252,-0.610352,-0.244141,2.929688
6.886450,-0.050295,0.183219,10.100396,0.013369,0.150048,0.040808,-0.915527,0.091553,3.479004
6.896519,0.062271,0.021555,10.124346,0.125935,-0.011616,0.064758,-1.129150,0.213623,3.723145
6.906587,-0.125140,0.086819,10.124346,-0.061476,0.053648,0.064758,0.335693,-0.274658,1.373291
6.916652,-0.026345,0.085622,10.038724,0.037319,0.052451,-0.020864,0.946045,0.732422,1.678467
6.926722,0.085023,0.056283,10.035731,0.148687,0.023112,-0.023857,0.366211,1.251221,2.105713
6.936792,0.144300,0.008981,9.916578,0.207964,-0.024190,-0.143010,-0.274658,1.495361,0.671387
6.946856,-0.141306,0.085023,10.187814,-0.077642,0.051852,0.128226,-0.091553,1.708984,1.220703
6.956925,-0.088017,0.099393,10.092014,-0.024353,0.066222,0.032426,-0.732422,1.373291,2.136230
6.966995,0.016166,-0.057480,10.149494,0.079830,-0.090651,0.089906,-0.976562,0.732422,2.746582
6.977059,0.061073,0.046104,9.969868,0.124737,0.012933,-0.089720,-1.373291,0.000000,1.342773
6.987128,0.325723,-0.177231,10.180031,0.389387,-0.210402,0.120443,-2.197266,-0.640869,1.617432
6.997198,0.327519,-0.202379,10.166259,0.391183,-0.235550,0.106671,-1.007080,-0.732422,0.915527
7.007261,0.401765,-0.140707,10.047706,0.465429,-0.173878,-0.011882,-0.366211,-0.305176,-1.556396
7.017330,0.219144,-0.407153,10.118958,0.282808,-0.440324,0.059370,-0.640869,0.579834,-1.617432
7.027399,0.412542,-0.373623,10.192006,0.476206,-0.406794,0.132418,0.000000,0.549316,-3.723145
7.037463,0.019160,0.203577,9.991423,0.082824,0.170406,-0.068165,1.281738,1.220703,-4.241943
7.047533,-0.019160,-0.060474,9.982441,0.044504,-0.093645,-0.077147,1.281738,1.708984,-2.288818
7.057603,0.094005,-0.018561,9.877659,0.157669,-0.051732,-0.181929,0.518799,1.495361,-1.586914
7.067667,-0.208965,0.263452,10.068662,-0.145301,0.230281,0.009074,-0.274658,2.166748,0.274658
7.077737,-0.317340,0.263452,10.142309,-0.253676,0.230281,0.082721,-2.410889,1.464844,4.882812
7.087806,-0.049697,0.294587,9.827963,0.013967,0.261416,-0.231625,-2.410889,1.220703,8.514404
7.097871,-0.108973,0.008383,10.157877,-0.045309,-0.024788,0.098289,-3.326416,0.152588,9.063721
7.107941,-0.145497,0.340093,10.159074,-0.081833,0.306922,0.099486,-1.495361,-0.061035,9.460449
7.118010,-0.083227,0.219743,9.998608,-0.019563,0.186572,-0.060980,-1.190186,0.122070,11.016846
7.128075,-0.108375,0.327519,9.960287,-0.044711,0.294348,-0.099301,0.946045,0.488281,13.580322
7.138146,0.264051,-0.067659,9.923763,0.327715,-0.100830,-0.135825,-0.427246,0.396729,14.495850
7.148216,0.252076,-0.084424,9.984836,0.315740,-0.117595,-0.074752,1.220703,0.701904,8.056641
7.158280,0.092807,0.259261,10.176438,0.156471,0.226090,0.116850,1.464844,1.373291,8.453369
7.168350,0.192799,0.032333,10.082433,0.256463,-0.000838,0.022845,-0.274658,1.007080,8.941650
7.178420,0.081431,0.046703,10.198592,0.145095,0.013532,0.139004,0.244141,0.305176,8.026123
7.188485,0.050894,-0.101190,10.053094,0.114558,-0.134361,-0.006493,0.122070,-0.122070,8.453369
7.198554,-0.029339,-0.378413,10.141710,0.034325,-0.411584,0.082122,-0.549316,-0.030518,6.896973
7.208625,0.035327,-0.319136,10.090816,0.098991,-0.352307,0.031228,-0.274658,-0.335693,5.554199
7.218689,0.029938,-0.276026,9.999805,0.093602,-0.309197,-0.059783,-0.274658,0.152588,4.333496
7.228758,-0.062271,-0.487985,10.054891,0.001394,-0.521156,-0.004697,-0.793457,0.274658,3.692627
7.238828,-0.052690,-0.662223,10.171049,0.010974,-0.695394,0.111461,0.244141,0.335693,3.906250
7.248893,-0.344883,-0.287402,10.453063,-0.281219,-0.320573,0.393475,0.671387,-0.305176,4.943848
7.258964,-0.134121,-0.535287,10.174642,-0.070457,-0.568458,0.115054,0.579834,0.305176,7.202148
7.269034,0.068258,-0.208965,10.319540,0.131922,-0.242136,0.259952,1.251221,-0.640869,7.232666
7.279099,-0.014969,-0.096400,10.093211,0.048695,-0.129571,0.033623,2.075195,-0.549316,6.896973
7.289169,-0.137115,-0.192200,9.947115,-0.073451,-0.225371,-0.112473,0.457764,-1.220703,4.699707
7.299238,-0.193398,0.008981,9.910591,-0.129734,-0.024190,-0.148997,0.579834,-1.220703,3.845215
7.309303,-0.049098,0.092208,10.121951,0.014566,0.059037,0.062363,-0.671387,-1.892090,4.364014
7.319376,0.032333,0.076042,10.000404,0.095997,0.042871,-0.059184,-0.030518,-0.396729,3.662109
7.329446,0.133522,0.126936,10.086625,0.197186,0.093765,0.027037,-0.610352,0.152588,3.662109
7.339511,0.197589,-0.036524,10.045909,0.261253,-0.069695,-0.013679,-0.488281,0.915527,3.143311
7.349580,0.023950,-0.242496,10.066866,0.087614,-0.275667,0.007278,0.366211,1.037598,1.953125
7.359649,-0.008981,-0.153281,10.102791,0.054683,-0.186452,0.043203,0.427246,1.068115,2.838135
7.369713,0.158670,-0.179626,10.384206,0.222334,-0.212797,0.324618,-0.366211,0.854492,1.647949
7.379783,0.204175,-0.063468,10.162068,0.267840,-0.096639,0.102480,-1.434326,0.213623,0.427246
7.389852,0.157473,-0.028740,10.127939,0.221137,-0.061911,0.068351,-0.061035,0.000000,0.549316
7.399918,0.287402,-0.056882,10.074650,0.351066,-0.090053,0.015062,0.152588,-0.457764,-0.091553
7.409987,0.276026,-0.058079,10.189012,0.339690,-0.091250,0.129424,-0.091553,-0.793457,-2.685547
7.420057,0.332908,0.044907,9.977651,0.396572,0.011736,-0.081937,-0.122070,-0.274658,-2.624512
7.430121,-0.106578,-0.165855,10.070458,-0.042914,-0.199026,0.010870,-0.762939,0.305176,-3.723145
7.440191,-0.031734,-0.163460,10.002799,0.031930,-0.196631,-0.056789,-0.488281,0.122070,-5.493164
7.450260,-0.052690,-0.344284,9.971664,0.010974,-0.377455,-0.087924,-0.457764,0.457764,-6.347656
7.460330,-0.267045,0.063468,10.211166,-0.203381,0.030297,0.151578,-0.061035,0.579834,-5.432129
7.470395,-0.220342,0.005389,10.146500,-0.156678,-0.027782,0.086912,0.854492,0.488281,-5.126953
7.480465,-0.146695,-0.001796,9.923165,-0.083031,-0.034967,-0.136423,0.671387,1.159668,-4.272461
7.490535,-0.286804,-0.062271,10.184821,-0.223139,-0.095442,0.125233,-0.610352,0.793457,-4.028320
7.500600,-0.404758,-0.321531,9.829759,-0.341094,-0.354702,-0.229829,0.122070,0.976562,-6.072998
7.510669,-0.422122,0.068258,9.902807,-0.358458,0.035087,-0.156781,0.823975,0.885010,-5.096436
7.520739,-0.311951,-0.169448,9.714199,-0.248287,-0.202619,-0.345389,-0.549316,0.488281,-4.547119
7.530869,0.053888,-0.226928,9.997410,0.117552,-0.260099,-0.062178,-1.068115,0.793457,-6.774902
7.540940,0.128134,-0.134121,10.029743,0.191798,-0.167292,-0.029845,0.549316,-0.183105,-9.613037
7.551010,-0.478405,0.076641,9.995015,-0.414741,0.043470,-0.064573,1.098633,-0.213623,-8.789062
7.561075,-0.470621,0.192799,9.808802,-0.406957,0.159628,-0.250785,0.976562,-0.610352,-7.476807
7.571146,-0.278421,-0.172441,10.129735,-0.214757,-0.205612,0.070147,-0.366211,-0.762939,-6.195068
7.581217,-0.104782,-0.286804,10.200987,-0.041118,-0.319975,0.141399,-1.098633,-0.976562,-6.286621
7.591284,-0.257465,-0.317939,10.259066,-0.193800,-0.351110,0.199478,-0.244141,-0.610352,-7.232666
7.601357,-0.361648,-0.156874,9.813593,-0.297984,-0.190045,-0.245995,-0.610352,-0.915527,-6.561279
7.611426,-0.201182,-0.291594,10.006990,-0.137518,-0.324765,-0.052598,-0.122070,-1.007080,-5.615234
7.621491,-0.168849,0.053289,10.041119,-0.105185,0.020118,-0.018469,0.579834,-1.159668,-3.143311
7.631562,0.101788,-0.253872,9.961485,0.165452,-0.287043,-0.098103,1.068115,-1.373291,-2.441406
7.641632,-0.034129,-0.125739,9.995614,0.029535,-0.158910,-0.063974,0.579834,-1.373291,-5.157471
7.651702,0.001198,0.034728,9.970466,0.064862,0.001557,-0.089122,0.946045,-0.885010,-3.326416
7.661771,-0.106578,-0.032333,10.070458,-0.042914,-0.065504,0.010870,2.838135,0.549316,0.274658
7.671843,-0.249681,-0.089214,9.998009,-0.186017,-0.122385,-0.061579,3.540039,1.434326,-0.366211
7.681909,-0.340093,0.059875,9.927356,-0.276429,0.026704,-0.132232,3.387451,1.647949,-1.037598
7.692028,-0.174836,-0.205972,10.048304,-0.111172,-0.239143,-0.011284,1.678467,0.671387,-3.234863
7.702125,-0.334105,0.027543,10.030941,-0.270441,-0.005628,-0.028647,3.753662,0.915527,-3.112793
7.712221,-0.501757,0.288001,10.063273,-0.438092,0.254830,0.003685,1.617432,0.579834,-5.706787
7.722317,-0.552052,0.691562,9.795031,-0.488388,0.658391,-0.264557,-0.396729,0.152588,-6.225586
7.732414,-0.628693,0.043709,9.800420,-0.565029,0.010538,-0.259168,-2.746582,0.579834,-5.615234
7.742510,-0.222737,-0.055085,9.418414,-0.159073,-0.088256,-0.641174,-5.096436,1.159668,-7.293701
7.752606,-0.762215,0.332309,9.732761,-0.698551,0.299138,-0.326827,-2.136230,-1.312256,-10.986328
7.762702,-0.226928,-0.068857,10.088421,-0.163264,-0.102028,0.028833,-1.190186,-1.403809,-10.498047
7.772798,-0.470621,-0.007784,9.753717,-0.406957,-0.040955,-0.305871,0.152588,-1.861572,-11.566162
7.782894,-0.198787,0.176034,10.035731,-0.135123,0.142863,-0.023857,-0.457764,-1.739502,-15.045166
7.793086,-0.159868,0.052690,9.927955,-0.096203,0.019519,-0.131633,-0.549316,-1.098633,-14.953613
7.803176,-0.205972,-0.047900,10.009984,-0.142308,-0.081071,-0.049604,-0.305176,-0.244141,-17.730713
7.813267,-0.284409,0.298779,10.108779,-0.220744,0.265608,0.049191,-0.854492,-0.366211,-16.540527
7.823357,-0.301174,0.183818,10.181228,-0.237510,0.150647,0.121640,0.762939,0.610352,-13.977051
7.833446,-0.085622,-0.044308,10.045909,-0.021958,-0.077479,-0.013679,-0.091553,0.152588,-12.420654
7.843536,-0.055085,-0.105381,10.173444,0.008579,-0.138552,0.113856,-0.457764,-0.213623,-12.695312
7.853626,0.067659,-0.309556,10.249486,0.131323,-0.342727,0.189898,0.396729,0.244141,-13.702393
7.863709,0.099393,0.168250,10.378218,0.163057,0.135079,0.318630,1.434326,0.457764,-12.359619
7.873793,0.421523,-0.652044,10.172845,0.485188,-0.685215,0.113257,-3.173828,-0.244141,-10.986328
7.883879,0.070653,-0.125739,10.047706,0.134317,-0.158910,-0.011882,-1.190186,-0.518799,-15.655518
7.893993,-0.646655,0.184417,9.985435,-0.582991,0.151245,-0.074153,2.746582,-0.885010,-15.228271
7.904083,0.032932,0.199385,10.142309,0.096596,0.166214,0.082721,1.708984,-0.427246,-8.087158
7.914171,-0.167053,-0.060474,10.083032,-0.103389,-0.093645,0.023444,-0.152588,-0.579834,-4.058838
7.924368,-0.196990,-0.323926,9.936936,-0.133326,-0.357097,-0.122652,-2.410889,-0.793457,-7.263184
7.934458,-0.174836,-0.560435,10.205777,-0.111172,-0.593606,0.146189,-2.502441,-0.488281,-8.483887
7.944544,-0.013173,-0.283810,10.079440,0.050492,-0.316981,0.019852,0.213623,-0.183105,-6.530762
7.954643,-0.202978,0.180824,10.120754,-0.139314,0.147653,0.061166,0.061035,-0.030518,-4.608154
7.964881,-0.128134,0.038320,10.246492,-0.064469,0.005149,0.186904,-0.396729,-0.183105,-0.366211
7.974967,0.079634,0.105980,10.159074,0.143299,0.072809,0.099486,-0.274658,-0.030518,0.915527
7.985077,0.054487,0.124541,10.080038,0.118151,0.091370,0.020450,-1.190186,0.061035,2.624512
7.995186,-0.072449,0.050295,10.079440,-0.008785,0.017124,0.019852,-0.823975,0.610352,2.532959
8.005277,0.005988,0.270038,10.142309,0.069652,0.236867,0.082721,-0.366211,0.579834,2.777100
8.015379,0.048499,0.349673,10.094409,0.112163,0.316502,0.034821,0.244141,0.457764,2.288818
8.025480,0.091011,0.007185,10.028546,0.154675,-0.025986,-0.031042,-0.518799,0.518799,2.044678
8.035567,-0.058678,0.190404,9.865684,0.004986,0.157233,-0.193904,-1.770020,0.030518,0.061035
8.045666,0.033530,0.050295,9.946516,0.097194,0.017124,-0.113072,-3.173828,0.457764,-1.373291
8.055765,-0.285606,-0.171244,10.156679,-0.221942,-0.204415,0.097091,-1.220703,0.152588,-3.051758
8.065852,0.146096,-0.040117,10.208771,0.209760,-0.073288,0.149183,-1.312256,-0.610352,-3.967285
8.075952,0.005389,0.047302,10.077045,0.069053,0.014131,0.017457,-0.305176,-0.518799,-5.310059
8.086051,-0.098795,0.064067,10.095606,-0.035130,0.030896,0.036018,1.281738,-0.152588,-2.655029
8.096167,-0.053289,0.098795,9.897418,0.010375,0.065624,-0.162170,7.720947,1.312256,-1.678467
8.106266,-0.302371,0.220941,9.932146,-0.238707,0.187770,-0.127442,6.042480,1.556396,1.922607
8.116365,-0.005988,-0.007784,9.750125,0.057677,-0.040955,-0.309463,3.295898,2.593994,4.791260
8.126451,-0.152682,0.080832,10.333911,-0.089018,0.047661,0.274323,-6.988525,0.183105,4.425049
8.136553,-0.291594,-0.096998,10.160870,-0.227930,-0.130169,0.101282,-5.310059,-1.037598,-0.366211
8.146652,-0.108973,-0.108375,10.134525,-0.045309,-0.141546,0.074937,-5.371094,-1.403809,-3.875732
8.156740,0.049697,-0.301772,10.180031,0.113361,-0.334943,0.120443,0.732422,-1.495361,-6.744385
8.166839,0.180225,-0.005389,10.048903,0.243889,-0.038560,-0.010685,0.152588,-2.014160,-4.241943
8.176940,-0.059277,-0.176633,10.065070,0.004387,-0.209804,0.005482,-0.854492,-2.105713,-5.187988
8.187026,0.111368,-0.368234,9.993818,0.175033,-0.401405,-0.065770,-0.305176,-1.831055,-6.042480
8.197155,-0.002395,-0.220941,10.151290,0.061269,-0.254112,0.091702,-1.068115,-1.556396,-6.011963
8.207253,0.044308,-0.262255,10.070458,0.107972,-0.295426,0.010870,-0.610352,-1.281738,-6.134033
8.217342,0.153880,-0.168250,10.020762,0.217544,-0.201421,-0.038826,0.579834,-1.251221,-4.669189
8.227439,0.085023,0.007784,9.793834,0.148687,-0.025387,-0.265754,3.265381,-1.434326,-6.347656
8.237538,0.122745,-0.445474,10.318343,0.186409,-0.478645,0.258755,0.061035,-1.281738,-6.805420
8.247625,-0.202379,-0.141306,9.934541,-0.138715,-0.174477,-0.125047,1.647949,-1.556396,-5.920410
8.257727,-0.256866,-0.340692,9.930350,-0.193202,-0.373863,-0.129238,0.183105,-0.671387,-4.058838
8.267828,-0.052092,-0.237706,10.018367,0.011572,-0.270877,-0.041221,-0.244141,-0.122070,-2.227783
8.277916,0.009580,-0.135917,10.071656,0.073244,-0.169088,0.012068,-0.549316,0.091553,-0.366211
8.288016,-0.094005,-0.177231,10.110575,-0.030340,-0.210402,0.050987,0.213623,0.427246,0.183105
8.298142,-0.211959,-0.296982,10.090816,-0.148295,-0.330153,0.031228,0.213623,0.061035,0.396729
8.308231,0.019759,-0.213157,10.072853,0.083423,-0.246328,0.013265,0.427246,0.030518,1.800537
8.318332,-0.110770,-0.087418,10.063273,-0.047106,-0.120589,0.003685,0.244141,0.091553,2.563477
8.328433,-0.071851,-0.028740,10.051298,-0.008186,-0.061911,-0.008290,0.396729,0.122070,3.570557
8.338521,-0.037722,-0.386197,10.112371,0.025943,-0.419368,0.052783,-1.312256,0.305176,3.265381
8.348623,-0.077838,-0.023950,10.033336,-0.014174,-0.057121,-0.026252,-1.678467,0.183105,1.647949
8.358724,-0.247286,-0.197589,10.158475,-0.183622,-0.230760,0.098887,0.457764,0.000000,1.831055
8.368813,-0.038320,-0.035327,9.980046,0.025344,-0.068498,-0.079542,0.976562,-0.305176,3.234863
8.378914,-0.178429,-0.106578,10.029743,-0.114765,-0.139749,-0.029845,0.885010,-0.030518,3.509521
8.389015,-0.065863,-0.214354,10.081236,-0.002199,-0.247525,0.021648,1.007080,0.244141,3.326416
8.399127,-0.295785,-0.091011,9.968071,-0.232121,-0.124182,-0.091517,1.434326,0.274658,2.044678
8.409221,-0.305964,0.247885,9.974059,-0.242300,0.214714,-0.085529,1.312256,0.457764,4.608154
8.419324,-0.258063,0.059875,9.972861,-0.194399,0.026704,-0.086727,1.220703,0.579834,6.347656
8.429413,-0.210163,-0.055085,10.375225,-0.146499,-0.088256,0.315637,-0.701904,0.122070,4.302979
8.439502,-0.448467,0.052690,10.097402,-0.384803,0.019519,0.037814,-0.427246,0.030518,2.990723
8.449605,-0.357457,0.040715,10.134525,-0.293793,0.007544,0.074937,-0.183105,-0.091553,5.279541
8.459693,-0.349074,0.055684,10.159673,-0.285410,0.022513,0.100085,0.091553,-0.061035,5.950928
8.469795,-0.301174,0.025148,10.123748,-0.237510,-0.008023,0.064160,-0.030518,-0.061035,5.340576
8.479896,-0.293989,-0.017364,10.201586,-0.230325,-0.050535,0.141998,0.671387,0.122070,7.141113
8.489985,-0.096998,-0.092208,10.139315,-0.033334,-0.125379,0.079727,1.403809,0.152588,6.225586
8.500100,-0.168849,0.173040,10.032138,-0.105185,0.139869,-0.027450,0.671387,0.396729,6.164551
8.510190,-0.328716,0.079634,10.074650,-0.265052,0.046463,0.015062,-0.030518,0.396729,7.354736
8.520280,-0.232916,0.101788,10.045311,-0.169252,0.068617,-0.014277,0.549316,0.793457,7.781982
8.530370,-0.286804,0.141306,9.921967,-0.223139,0.108135,-0.137621,-0.762939,1.312256,7.324219
8.540459,-0.455054,0.159868,9.986633,-0.391390,0.126697,-0.072955,-0.671387,1.129150,6.042480
8.550548,-0.234113,0.062869,10.127939,-0.170449,0.029698,0.068351,-0.549316,0.976562,7.751465
8.560638,-0.201780,0.168250,10.071656,-0.138116,0.135079,0.012068,-0.061035,1.342773,8.270264
8.570728,0.025746,-0.152682,10.087822,0.089411,-0.185854,0.028234,-0.915527,1.098633,5.950928
8.580817,-0.111967,0.150886,10.029144,-0.048303,0.117715,-0.030444,-1.312256,0.946045,4.425049
8.590907,-0.248483,0.154479,9.929751,-0.184819,0.121308,-0.129837,-2.716064,0.915527,4.852295
8.601024,-0.246088,-0.171244,10.340497,-0.182424,-0.204415,0.280909,-1.617432,0.854492,5.279541
8.611113,-0.120350,-0.155078,10.259665,-0.056686,-0.188249,0.200077,-0.885010,0.122070,6.225586
8.621201,-0.165855,0.040117,10.075847,-0.102191,0.006946,0.016259,-1.312256,0.061035,5.157471
8.631290,-0.184417,-0.040715,10.038724,-0.120752,-0.073886,-0.020864,-0.823975,-0.030518,5.126953
8.641379,-0.180225,-0.010778,10.055490,-0.116561,-0.043949,-0.004098,1.281738,-1.037598,7.751465
8.651469,-0.201182,0.014969,9.949510,-0.137518,-0.018202,-0.110078,1.129150,-1.800537,7.507324
8.661560,-0.069456,0.018561,10.100995,-0.005791,-0.014610,0.041407,1.525879,-1.983643,5.523682
8.671649,-0.059875,-0.026944,10.087224,0.003789,-0.060115,0.027636,0.823975,-1.678467,4.577637
8.681739,0.052690,0.037722,10.160272,0.116355,0.004551,0.100684,-0.701904,-1.190186,2.960205
8.691830,0.280816,0.263452,9.969868,0.344480,0.230281,-0.089720,1.678467,-0.183105,0.854492
8.701948,0.111368,0.367635,9.825568,0.175033,0.334464,-0.234020,0.610352,-0.061035,1.129150
8.712038,0.119751,-0.072449,10.142908,0.183415,-0.105620,0.083320,1.495361,0.701904,0.915527
8.722128,0.062869,-0.237706,10.037527,0.126533,-0.270877,-0.022061,1.434326,0.549316,1.220703
8.732217,0.000000,-0.107177,10.132130,0.063664,-0.140348,0.072542,0.671387,0.518799,2.471924
8.742308,0.096400,-0.165256,10.148895,0.160064,-0.198427,0.089307,1.617432,0.488281,2.685547
8.752398,0.222138,-0.187410,10.151290,0.285802,-0.220581,0.091702,-0.213623,0.030518,4.150391
8.762487,0.084424,-0.137714,10.132130,0.148089,-0.170885,0.072542,-0.640869,0.091553,3.723145
8.772578,0.123942,-0.222737,10.209370,0.187606,-0.255908,0.149782,-1.159668,0.091553,3.631592
8.782667,0.197589,0.012574,9.930948,0.261253,-0.020597,-0.128639,-0.183105,0.610352,3.021240
8.792754,0.059875,0.144899,9.960287,0.123540,0.111728,-0.099301,-0.640869,0.396729,2.410889
8.802869,-0.047900,0.147892,9.963880,0.015764,0.114721,-0.095708,-0.946045,0.793457,1.037598
8.812959,0.212558,-0.041314,10.006392,0.276222,-0.074485,-0.053196,-0.579834,0.335693,1.434326
8.823049,0.265847,0.137115,10.091415,0.329511,0.103944,0.031827,-0.244141,-0.427246,-1.892090
8.833138,0.379012,-0.050894,10.147698,0.442676,-0.084065,0.088110,-0.152588,-0.518799,-2.685547
8.843227,0.130529,0.061672,10.141111,0.194193,0.028501,0.081523,-0.396729,-0.274658,-4.058838
8.853315,0.032333,0.030536,9.992021,0.095997,-0.002635,-0.067566,0.091553,0.000000,-3.875732
8.863405,0.117356,-0.254471,10.208771,0.181020,-0.287642,0.149183,-0.305176,-0.091553,-4.425049
8.873494,-0.088616,-0.107776,10.124945,-0.024952,-0.140947,0.065357,0.061035,-0.122070,-2.197266
8.883583,0.049098,-0.298180,10.004595,0.112762,-0.331351,-0.054993,-0.122070,-0.152588,-3.814697
8.893672,-0.271835,-0.110171,9.993219,-0.208171,-0.143342,-0.066369,-0.885010,-0.091553,-3.784180
8.903785,-0.377814,-0.224533,10.032737,-0.314150,-0.257704,-0.026851,-2.105713,-0.488281,-3.540039
8.913874,-0.338895,-0.298779,10.124346,-0.275231,-0.331950,0.064758,-2.288818,-0.762939,-3.021240
8.923964,-0.268841,-0.388592,10.029144,-0.205177,-0.421763,-0.030444,-0.823975,-0.793457,-0.671387
8.934054,-0.264051,-0.117955,10.048304,-0.200387,-0.151126,-0.011284,0.549316,-0.915527,0.152588
8.944143,-0.439486,-0.028740,10.131531,-0.375822,-0.061911,0.071943,0.610352,-0.030518,2.899170
8.954233,-0.361648,-0.093406,10.150093,-0.297984,-0.126577,0.090505,0.518799,0.579834,4.547119
8.964322,-0.354463,-0.158670,10.080038,-0.290799,-0.191841,0.020450,0.610352,1.464844,6.927490
8.974421,-0.328118,-0.202379,10.066267,-0.264454,-0.235550,0.006679,-0.061035,1.525879,7.202148
8.984510,-0.454455,-0.121547,10.126741,-0.390791,-0.154718,0.067153,-0.701904,1.434326,6.500244
8.994597,-0.320334,0.088616,10.044712,-0.256670,0.055445,-0.014876,0.091553,1.800537,9.185791
9.004698,-0.032932,0.064067,9.732761,0.030733,0.030896,-0.326827,-0.610352,2.136230,11.596680
9.014810,0.003593,-0.341290,9.954899,0.067257,-0.374461,-0.104689,0.427246,1.861572,8.941650
9.024897,0.105381,-0.758622,10.032138,0.169045,-0.791793,-0.027450,-1.495361,1.464844,6.103516
9.034996,-0.265847,-0.093406,10.329719,-0.202183,-0.126577,0.270131,-0.305176,0.122070,-1.525879
9.045095,-0.662223,0.010778,10.129136,-0.598559,-0.022393,0.069548,1.922607,0.274658,1.098633
9.055181,-0.508942,0.484393,9.902208,-0.445278,0.451222,-0.157380,1.464844,0.427246,10.864258
9.065280,-0.192799,-0.054487,9.956695,-0.129135,-0.087658,-0.102893,2.349854,0.701904,12.084961
9.075379,-0.234113,-0.073048,10.244097,-0.170449,-0.106219,0.184509,0.366211,0.762939,11.383057
9.085464,-0.461041,-0.100591,10.077643,-0.397377,-0.133762,0.018055,-0.701904,0.335693,7.843018
9.095562,-0.217348,-0.314346,10.014774,-0.153684,-0.347517,-0.044814,-1.159668,-0.152588,8.941650
9.105661,-0.276625,-0.173639,9.884844,-0.212961,-0.206810,-0.174744,-0.183105,-0.793457,10.009766
9.115748,-0.197589,-0.246088,9.893227,-0.133925,-0.279259,-0.166361,-0.122070,-1.037598,9.429932
9.125848,-0.313149,-0.339494,9.976454,-0.249485,-0.372665,-0.083134,0.427246,-1.739502,6.378174
9.135943,-0.120350,-0.090412,10.013577,-0.056686,-0.123583,-0.046011,0.762939,-1.342773,5.310059
9.146029,0.129331,-0.269440,9.880653,0.192995,-0.302611,-0.178935,0.976562,-1.037598,4.364014
9.156128,0.014370,-0.388592,10.124346,0.078034,-0.421763,0.064758,-0.030518,0.549316,2.471924
9.166226,0.022154,-0.202379,10.004595,0.085818,-0.235550,-0.054993,0.152588,0.976562,1.464844
9.176313,0.006586,-0.065863,10.076446,0.070250,-0.099034,0.016858,1.129150,1.251221,1.800537
9.186412,0.026345,-0.182620,9.884844,0.090009,-0.215791,-0.174744,1.586914,1.617432,3.875732
9.196542,-0.001796,-0.056283,10.105186,0.061868,-0.089454,0.045598,1.983643,1.403809,10.192871
9.206651,-0.104782,-0.061672,9.989028,-0.041118,-0.094843,-0.070560,1.556396,-0.030518,10.681152
9.216752,-0.295785,-0.079634,10.099797,-0.232121,-0.112805,0.040209,0.183105,-0.244141,12.725830
9.226850,-0.064067,-0.219743,10.008787,-0.000403,-0.252914,-0.050801,0.274658,-0.335693,18.524170
9.236939,0.155078,-0.236508,10.135723,0.218742,-0.269679,0.076135,-0.030518,-0.305176,17.669678
9.247037,0.058678,-0.231119,10.103989,0.122342,-0.264290,0.044401,0.640869,0.396729,13.153076
9.257137,-0.249082,0.155078,9.945319,-0.185418,0.121906,-0.114269,0.854492,0.793457,15.380859
9.267224,-0.089813,0.151485,9.918375,-0.026149,0.118314,-0.141213,-0.518799,2.380371,23.468018
9.277325,0.370629,-0.058079,10.034533,0.434293,-0.091250,-0.025055,0.335693,2.288818,21.545410
9.287423,0.224533,0.209564,10.086625,0.288197,0.176393,0.027037,-0.793457,1.800537,21.728516
9.297511,0.180225,0.030536,9.983639,0.243889,-0.002635,-0.075949,-1.007080,1.281738,21.484375
9.307638,0.385598,0.004191,10.149494,0.449262,-0.028980,0.089906,-1.861572,1.220703,19.256592
9.317738,0.102986,-0.004790,10.081835,0.166650,-0.037961,0.022247,0.396729,0.335693,15.655518
9.327826,0.325124,-0.176034,10.135124,0.388788,-0.209205,0.075536,0.732422,-0.122070,14.709473
9.337927,0.165855,0.024549,10.118958,0.229519,-0.008622,0.059370,2.014160,-0.183105,14.739990
9.348028,0.392184,-0.149689,10.037527,0.455849,-0.182860,-0.022061,2.197266,-0.152588,15.380859
9.358116,0.372426,-0.202978,10.033934,0.436090,-0.236149,-0.025654,2.288818,0.213623,13.000488
9.368217,0.174238,-0.086221,9.982441,0.237902,-0.119392,-0.077147,1.586914,0.305176,13.061523
9.378315,0.162263,-0.101190,10.032138,0.225927,-0.134361,-0.027450,1.342773,0.274658,12.054443
9.388417,0.120948,-0.114961,10.035132,0.184613,-0.148132,-0.024456,1.007080,0.183105,11.291504
9.398505,0.097597,-0.068258,10.016570,0.161261,-0.101429,-0.043018,0.244141,0.274658,10.559082
9.408636,0.049697,-0.310754,9.977053,0.113361,-0.343925,-0.082535,0.701904,1.007080,11.352539
9.418737,-0.105381,0.022753,10.288405,-0.041717,-0.010418,0.228817,0.793457,0.518799,10.711670
9.428825,-0.113763,-0.023950,10.020163,-0.050099,-0.057121,-0.039425,-0.427246,0.061035,11.627197
9.438926,0.094603,-0.297581,10.000404,0.158267,-0.330752,-0.059184,-0.274658,-0.305176,10.711670
9.449015,0.211959,-0.219743,10.008787,0.275623,-0.252914,-0.050801,-0.457764,0.000000,7.873535
9.459126,-0.144300,0.594564,10.193802,-0.080636,0.561393,0.134214,-0.061035,-0.335693,6.652832
9.469227,0.239502,0.057480,10.180629,0.303166,0.024309,0.121041,0.396729,-0.488281,9.918213
9.479314,0.014370,0.379611,9.889036,0.078034,0.346440,-0.170552,-1.892090,-0.488281,6.988525
9.489407,-0.075443,0.341889,9.906998,-0.011779,0.308718,-0.152590,-3.601074,0.427246,5.462646
9.499509,0.238304,-0.104183,10.150692,0.301969,-0.137354,0.091104,-1.525879,0.091553,1.190186
9.509622,0.099393,0.291594,10.126741,0.163057,0.258423,0.067153,-0.915527,0.152588,0.396729
9.519713,0.089214,0.160466,9.950707,0.152879,0.127295,-0.108881,-2.502441,-0.885010,0.091553
9.529807,0.243094,-0.104782,10.104587,0.306759,-0.137953,0.044999,-1.861572,-1.068115,-1.892090
9.539897,0.102387,-0.196990,10.059082,0.166051,-0.230161,-0.000506,-0.885010,-0.946045,-2.288818
9.549987,0.295186,-0.373024,10.108779,0.358850,-0.406195,0.049191,-0.976562,-0.885010,-4.760742
9.560077,0.073647,-0.409548,10.144704,0.137311,-0.442719,0.085116,-0.915527,-0.915527,-7.507324
9.570168,-0.080832,0.005389,10.131531,-0.017168,-0.027782,0.071943,-0.457764,-1.220703,-9.033203
9.580256,0.037722,-0.074844,10.016570,0.101386,-0.108015,-0.043018,-0.030518,-0.762939,-5.798340
9.590346,0.122745,-0.171843,10.092612,0.186409,-0.205014,0.033024,0.061035,0.091553,-5.187988
9.600451,-0.215552,-0.128134,10.114167,-0.151888,-0.161305,0.054580,0.518799,0.366211,-4.638672
9.610571,-0.216749,-0.162861,10.048304,-0.153085,-0.196032,-0.011284,1.525879,0.396729,-3.143311
9.620661,-0.008383,-0.264051,10.078841,0.055282,-0.297222,0.019253,0.366211,-0.030518,-1.403809
9.630749,0.166454,-0.450862,10.015373,0.230118,-0.484033,-0.044215,0.152588,-0.152588,-4.272461
9.640836,-0.222737,-0.077239,9.945319,-0.159073,-0.110410,-0.114269,0.091553,-0.305176,-5.920410
9.650923,-0.269440,-0.248483,10.149494,-0.205776,-0.281654,0.089906,-0.335693,0.183105,-4.211426
9.661013,-0.160466,-0.153880,9.995015,-0.096802,-0.187051,-0.064573,0.701904,0.091553,-1.525879
9.671104,0.005988,-0.276026,10.233320,0.069652,-0.309197,0.173732,-0.335693,0.183105,-1.922607
9.681194,-0.098196,-0.155078,10.129735,-0.034532,-0.188249,0.070147,0.335693,0.061035,-2.624512
9.691284,-0.146096,-0.173639,10.109377,-0.082432,-0.206810,0.049789,0.854492,-0.030518,-6.225586
9.701373,-0.261057,-0.038320,9.972861,-0.197393,-0.071491,-0.086727,0.518799,-0.152588,-6.134033
9.711498,-0.041913,-0.149090,10.130334,0.021751,-0.182261,0.070746,-0.335693,0.396729,-1.159668
9.721588,0.089813,-0.267643,10.050101,0.153477,-0.300814,-0.009487,0.335693,0.488281,-2.532959
9.731678,0.068258,-0.111368,10.096205,0.131922,-0.144539,0.036617,0.213623,0.549316,-4.302979
9.741767,-0.026944,-0.064666,10.156679,0.036720,-0.097837,0.097091,-0.244141,0.305176,-2.685547
9.751857,-0.058678,0.010778,10.042916,0.004986,-0.022393,-0.016672,0.274658,0.030518,-2.929688
9.761946,0.051493,-0.076641,10.162667,0.115157,-0.109812,0.103079,-0.671387,-0.701904,-0.457764
9.772036,0.143102,-0.115560,10.060878,0.206767,-0.148731,0.001290,-0.091553,-1.007080,-1.190186
9.782125,0.098196,-0.048499,10.080038,0.161860,-0.081670,0.020450,0.640869,-1.068115,-3.234863
9.792217,0.099992,-0.063468,10.048304,0.163656,-0.096639,-0.011284,0.701904,-1.068115,-3.845215
9.802306,0.132924,-0.049098,10.003398,0.196588,-0.082269,-0.056190,0.610352,-1.098633,-5.554199
9.812423,0.086819,0.041913,9.931547,0.150484,0.008742,-0.128041,0.701904,-0.946045,-5.737305
9.822512,0.077239,-0.101788,10.019564,0.140903,-0.134959,-0.040024,-0.061035,-0.976562,-7.598877
9.832604,0.015568,0.021555,10.017169,0.079232,-0.011616,-0.042419,0.152588,-0.732422,-8.544922
9.842695,-0.039518,-0.020956,10.097402,0.024146,-0.054127,0.037814,0.518799,-0.823975,-7.995605
9.852787,-0.238304,0.065264,10.011780,-0.174640,0.032093,-0.047808,1.159668,-0.885010,-8.361816
9.862876,-0.186812,0.082029,10.097402,-0.123147,0.048858,0.037814,1.007080,-0.976562,-8.636475
9.872966,-0.178429,0.068258,10.060280,-0.114765,0.035087,0.000692,0.579834,-0.732422,-7.354736
9.883056,-0.196392,-0.032932,10.086625,-0.132727,-0.066103,0.027037,0.213623,-0.427246,-8.361816
9.893145,-0.143102,-0.086221,10.077643,-0.079438,-0.119392,0.018055,-0.335693,-0.640869,-11.596680
9.903234,-0.068258,-0.031734,10.101594,-0.004594,-0.064905,0.042006,0.946045,-0.671387,-9.124756
9.913352,-0.120948,0.046104,10.024354,-0.057284,0.012933,-0.035234,0.976562,-0.640869,-8.239746
9.923441,-0.094005,-0.191003,10.044712,-0.030340,-0.224174,-0.014876,0.213623,-0.366211,-6.713867
9.933531,-0.176633,-0.113165,10.047706,-0.112969,-0.146336,-0.011882,-0.976562,0.061035,-5.310059
9.943621,-0.232916,0.002994,10.018965,-0.169252,-0.030177,-0.040623,-1.190186,0.579834,-2.380371
9.953710,-0.077838,0.023351,10.056088,-0.014174,-0.009820,-0.003500,-0.305176,0.366211,0.457764
9.963800,0.121547,-0.129930,10.066866,0.185211,-0.163101,0.007278,0.213623,0.244141,-0.152588
9.973889,0.054487,-0.119152,9.977053,0.118151,-0.152323,-0.082535,-1.708984,0.488281,-2.655029
9.983979,0.213157,-0.058079,10.099797,0.276821,-0.091250,0.040209,-2.227783,0.518799,-5.645752
9.994068,0.157473,-0.086819,10.109377,0.221137,-0.119990,0.049789,-0.274658,0.457764,-5.767822
10.004338,-0.008981,-0.110770,10.003997,0.054683,-0.143941,-0.055591,0.122070,0.274658,-6.072998
10.014456,-0.065264,-0.293390,10.001003,-0.001600,-0.326561,-0.058585,0.091553,-0.061035,-5.706787
10.024541,-0.119751,-0.183219,10.156679,-0.056087,-0.216390,0.097091,-0.854492,-0.091553,-5.310059
10.034645,-0.323926,-0.050894,10.087822,-0.260262,-0.084065,0.028234,-0.762939,-0.091553,-2.593994
10.044734,-0.210163,-0.154479,10.038126,-0.146499,-0.187650,-0.021462,-0.732422,-0.091553,-1.617432
10.054824,-0.083826,-0.252076,10.085427,-0.020162,-0.285247,0.025839,-1.251221,0.335693,-1.647949
10.064926,-0.231718,0.010179,10.031539,-0.168054,-0.022992,-0.028049,-0.427246,0.549316,-0.427246
10.075015,-0.135917,-0.070054,10.103989,-0.072253,-0.103225,0.044401,-0.427246,0.610352,-0.030518
10.085101,-0.039518,0.052092,10.026151,0.024146,0.018921,-0.033437,0.183105,0.488281,-1.831055
10.095201,-0.107177,0.148491,10.112371,-0.043513,0.115320,0.052783,0.335693,0.610352,-2.319336
10.105300,-0.094005,0.086221,10.102791,-0.030340,0.053050,0.043203,0.061035,0.213623,-4.516602
10.115413,-0.138911,-0.065863,10.061477,-0.075247,-0.099034,0.001889,-0.427246,0.030518,-6.591797
10.125510,-0.157473,-0.140109,10.077643,-0.093808,-0.173280,0.018055,0.152588,-0.305176,-11.810303
10.135616,-0.292192,-0.037722,10.066267,-0.228528,-0.070893,0.006679,0.213623,-0.274658,-13.916016
10.145703,-0.353265,0.073048,10.127939,-0.289601,0.039877,0.068351,-0.122070,-0.366211,-14.434814
10.155803,-0.484991,-0.105980,10.147099,-0.421327,-0.139151,0.087511,-0.213623,-0.671387,-14.251709
10.165903,-0.452060,-0.242496,10.077643,-0.388396,-0.275667,0.018055,0.549316,-0.793457,-14.648438
10.175990,-0.534089,-0.340692,9.993818,-0.470425,-0.373863,-0.065770,2.502441,-0.854492,-15.350342
10.186087,-0.666414,-0.302970,10.144105,-0.602750,-0.336141,0.084517,2.868652,-0.671387,-15.106201
10.196189,-0.414338,-0.289797,10.069860,-0.350674,-0.322968,0.010272,3.112793,-0.823975,-12.634277
10.206275,-0.338297,-0.067659,10.168654,-0.274632,-0.100830,0.109066,1.464844,-1.098633,-10.589600
10.216407,-0.323926,-0.001796,10.192604,-0.260262,-0.034967,0.133016,1.251221,-1.129150,-11.474609
10.226506,-0.141905,-0.107177,9.987231,-0.078241,-0.140348,-0.072357,1.037598,-0.946045,-15.045166
10.236595,-0.253273,0.137714,10.135124,-0.189609,0.104543,0.075536,2.075195,-1.373291,-16.326904
10.246693,-0.117356,0.361648,9.978250,-0.053692,0.328477,-0.081338,0.579834,-1.281738,-12.756348
10.256795,-0.104183,0.138312,10.032737,-0.040519,0.105141,-0.026851,0.244141,-1.342773,-12.054443
10.266881,-0.147892,0.049697,10.092612,-0.084228,0.016526,0.033024,-0.335693,-1.007080,-11.749268
10.276983,-0.371827,-0.019160,10.014774,-0.308163,-0.052331,-0.044814,0.122070,-0.976562,-11.169434
10.287082,-0.213755,-0.053289,10.052496,-0.150091,-0.086460,-0.007092,-0.183105,-0.732422,-10.070801
10.297170,-0.127535,0.031135,10.105186,-0.063871,-0.002036,0.045598,0.152588,-0.549316,-6.561279
10.307268,-0.183219,0.183219,10.066267,-0.119555,0.150048,0.006679,0.640869,-0.671387,-5.432129
10.317396,-0.383203,-0.171244,10.134525,-0.319539,-0.204415,0.074937,-0.366211,-0.732422,-5.584717
10.327483,0.034129,-0.170645,10.032138,0.097793,-0.203816,-0.027450,1.068115,-0.457764,-5.737305
10.337585,-0.287402,0.131726,10.041718,-0.223738,0.098555,-0.017870,2.197266,-0.701904,-4.943848
10.347686,-0.500559,0.301174,10.071057,-0.436895,0.268003,0.011469,1.525879,-0.854492,-4.211426
10.357774,-0.287402,0.208367,9.927955,-0.223738,0.175196,-0.131633,0.793457,-1.068115,-2.166748
10.367875,-0.277822,0.255070,9.986633,-0.214158,0.221899,-0.072955,0.457764,-0.885010,-1.770020
10.377978,-0.437091,0.207169,10.152488,-0.373427,0.173998,0.092900,-0.366211,-1.068115,-2.380371
10.388067,-0.301174,0.297581,9.784254,-0.237510,0.264410,-0.275334,-0.183105,0.030518,-2.502441
10.398168,-0.301772,0.292791,9.912387,-0.238108,0.259620,-0.147201,0.152588,0.183105,-1.586914
10.408268,-0.122745,-0.019160,10.017768,-0.059081,-0.052331,-0.041820,-1.190186,0.183105,0.976562
10.418384,0.015568,-0.044907,10.006392,0.079232,-0.078078,-0.053196,-1.342773,0.274658,0.885010
10.428483,-0.044907,-0.180225,10.063273,0.018757,-0.213396,0.003685,-1.098633,-0.030518,-0.579834
10.438585,-0.124541,-0.267045,10.135124,-0.060877,-0.300216,0.075536,-1.617432,-0.427246,-1.464844
10.448673,-0.095801,-0.176633,10.160870,-0.032137,-0.209804,0.101282,-1.342773,-0.732422,-2.258301
10.458775,-0.114362,-0.088017,10.062076,-0.050698,-0.121188,0.002488,-0.305176,-0.854492,-0.183105
10.468876,-0.083227,-0.191003,10.074650,-0.019563,-0.224174,0.015062,0.183105,-0.885010,0.640869
10.478963,-0.175435,-0.118553,10.071656,-0.111771,-0.151724,0.012068,-0.518799,-1.586914,1.098633
10.489061,-0.063468,-0.147294,10.123149,0.000196,-0.180465,0.063561,0.671387,-1.770020,1.190186
10.499163,0.037123,-0.171843,9.950109,0.100787,-0.205014,-0.109479,0.610352,-1.525879,4.425049
10.509251,-0.081431,-0.003593,10.154284,-0.017767,-0.036764,0.094696,0.213623,-1.159668,4.425049
10.519368,0.026345,-0.147892,10.085427,0.090009,-0.181063,0.025839,0.488281,-1.220703,3.295898
10.529469,0.158071,-0.225731,10.059082,0.221735,-0.258902,-0.000506,0.946045,-1.495361,-0.823975
10.539557,0.127535,-0.064067,10.038126,0.191199,-0.097238,-0.021462,0.122070,-1.617432,-0.579834
10.549650,0.062869,-0.143102,10.047107,0.126533,-0.176273,-0.012481,-0.885010,-1.495361,0.793457
10.559753,0.185614,-0.198787,9.949510,0.249278,-0.231958,-0.110078,-0.854492,-1.434326,0.671387
10.569842,0.077239,-0.464634,10.036329,0.140903,-0.497805,-0.023259,-1.434326,-1.831055,-0.762939
10.579933,0.070054,-0.301772,10.065668,0.133718,-0.334943,0.006080,-1.953125,-2.441406,-2.014160
10.590024,0.202379,-0.299377,10.226733,0.266043,-0.332548,0.167145,-1.739502,-2.746582,-1.037598
10.600113,0.207768,-0.225731,10.069860,0.271432,-0.258902,0.010272,-1.586914,-2.380371,-1.678467
10.610204,0.193398,-0.192799,10.021959,0.257062,-0.225970,-0.037629,-1.770020,-2.136230,-2.532959
10.620323,0.307161,-0.146096,10.051298,0.370825,-0.179267,-0.008290,-1.861572,-2.685547,-5.310059
10.630413,0.328118,-0.091011,10.035132,0.391782,-0.124182,-0.024456,-2.075195,-2.777100,-5.462646
10.640503,0.165256,-0.014969,9.956695,0.228920,-0.048140,-0.102893,-1.556396,-2.349854,-3.631592
10.650593,0.179626,-0.100591,10.048304,0.243291,-0.133762,-0.011284,-1.647949,-2.136230,-3.082275
10.660683,0.226329,-0.065264,10.072255,0.289993,-0.098435,0.012667,-1.342773,-2.044678,-3.448486
10.670772,0.362247,-0.038919,10.096804,0.425911,-0.072090,0.037216,-1.098633,-2.136230,-3.723145
10.680861,0.308359,0.039518,10.029743,0.372023,0.006347,-0.029845,-0.854492,-1.892090,-3.662109
10.690951,0.249681,0.116757,10.044113,0.313345,0.083586,-0.015475,0.305176,-1.281738,-5.340576
10.701041,0.319136,0.070653,9.995614,0.382800,0.037482,-0.063974,0.091553,-1.281738,-6.591797
10.711130,0.309556,0.131127,10.056088,0.373220,0.097956,-0.003500,1.922607,-0.823975,-7.263184
10.721251,0.226329,0.133522,10.089619,0.289993,0.100351,0.030031,1.159668,-1.129150,-6.500244
10.731341,0.164059,0.107776,10.024953,0.227723,0.074605,-0.034635,1.495361,-0.915527,-5.310059
10.741432,0.264051,0.059875,10.145901,0.327715,0.026704,0.086314,1.556396,-0.976562,-6.347656
10.751522,0.079036,0.087418,10.023755,0.142700,0.054247,-0.035832,1.647949,-0.274658,-4.882812
10.761612,0.104183,-0.022753,10.075248,0.167847,-0.055924,0.015660,1.770020,-0.335693,-3.356934
10.771702,0.050894,-0.030536,10.090816,0.114558,-0.063708,0.031228,1.861572,-0.061035,-1.831055
10.781791,0.289199,-0.234113,10.102192,0.352863,-0.267284,0.042604,1.586914,0.091553,1.007080
10.791883,0.192200,-0.113763,10.103989,0.255864,-0.146934,0.044401,1.983643,0.396729,1.251221
10.801973,0.029938,-0.149689,10.086026,0.093602,-0.182860,0.026438,0.854492,0.488281,2.197266
10.812063,0.172441,-0.157473,10.001003,0.236106,-0.190644,-0.058585,0.793457,0.762939,2.746582
10.822179,0.192799,-0.145497,10.073452,0.256463,-0.178668,0.013864,0.488281,0.793457,2.929688
10.832269,0.223336,-0.096998,9.995614,0.287000,-0.130169,-0.063974,-0.122070,0.305176,1.525879
10.842356,0.358654,-0.080832,10.150692,0.422318,-0.114003,0.091104,0.366211,0.305176,2.593994
10.852446,0.001796,0.028141,10.039323,0.065460,-0.005030,-0.020265,0.885010,0.335693,2.288818
10.862536,0.007185,-0.085023,10.059681,0.070849,-0.118194,0.000093,-0.030518,0.091553,2.746582
10.872624,0.285007,0.033530,10.039323,0.348671,0.000359,-0.020265,-0.274658,-0.396729,-0.091553
10.882714,0.035925,-0.061672,10.113569,0.099589,-0.094843,0.053981,-1.586914,-0.885010,-1.983643
10.892805,-0.113763,-0.124541,10.036329,-0.050099,-0.157712,-0.023259,-1.831055,-1.098633,0.305176
10.902894,0.020956,-0.171244,10.067465,0.084621,-0.204415,0.007877,-1.770020,-1.403809,1.098633
10.912984,0.123344,-0.164059,10.016570,0.187008,-0.197230,-0.043018,-1.739502,-1.739502,0.671387
10.923097,0.288600,-0.126936,10.093211,0.352264,-0.160107,0.033623,-2.258301,-2.410889,-1.342773
10.933187,0.235311,-0.069456,10.100396,0.298975,-0.102627,0.040808,-1.495361,-1.922607,-1.770020
10.943274,0.224533,-0.052690,10.076446,0.288197,-0.085861,0.016858,-1.373291,-1.586914,-0.183105
10.953361,0.259860,-0.107177,10.027348,0.323524,-0.140348,-0.032240,-1.251221,-1.342773,1.037598
10.963480,0.261057,-0.085622,10.020762,0.324721,-0.118793,-0.038826,-0.762939,-1.068115,0.030518
10.973570,0.251477,-0.156275,10.056687,0.315141,-0.189446,-0.002901,-0.305176,-0.915527,-0.518799
10.983659,-0.037722,-0.140109,10.054891,0.025943,-0.173280,-0.004697,-0.091553,-0.823975,-0.732422
10.993748,0.082628,-0.296982,10.102791,0.146292,-0.330153,0.043203,-0.396729,-1.068115,0.244141
11.003837,0.156275,-0.243693,10.049502,0.219939,-0.276864,-0.010086,0.396729,-0.671387,0.823975
11.013927,0.068857,-0.103585,10.047706,0.132521,-0.136756,-0.011882,0.244141,-0.549316,2.014160
11.024041,0.150886,-0.119152,10.044113,0.214550,-0.152323,-0.015475,0.396729,-0.427246,1.434326
11.034131,0.241897,-0.112566,10.038724,0.305561,-0.145737,-0.020864,0.274658,-0.427246,0.396729
11.044220,0.043709,-0.028141,10.002200,0.107373,-0.061312,-0.057388,-0.335693,-0.518799,0.366211
11.054321,0.199385,-0.062869,10.080038,0.263049,-0.096040,0.020450,-0.793457,-0.610352,-0.244141
11.064411,0.261057,-0.080233,10.082433,0.324721,-0.113404,0.022845,-0.762939,-0.762939,-1.068115
11.074498,0.246088,-0.038320,10.083631,0.309752,-0.071491,0.024043,-0.610352,-0.762939,-1.159668
11.084596,0.085622,-0.040715,10.063872,0.149286,-0.073886,0.004284,-0.701904,-0.885010,-0.579834
11.094777,0.119751,-0.126936,10.063872,0.183415,-0.160107,0.004284,-1.312256,-0.976562,0.518799
11.104864,0.207169,-0.138911,10.055490,0.270833,-0.172082,-0.004098,-1.037598,-0.854492,0.793457
11.114964,0.270038,-0.107177,10.063872,0.333703,-0.140348,0.004284,-0.885010,-0.885010,0.640869
11.125063,0.201182,-0.098196,10.055490,0.264846,-0.131367,-0.004098,-0.885010,-0.793457,0.793457
11.135149,0.393981,-0.104782,10.052496,0.457645,-0.137953,-0.007092,-0.671387,-0.671387,0.427246
11.145246,0.565225,-0.113763,10.056687,0.628889,-0.146934,-0.002901,-0.518799,-0.610352,-0.396729
11.155341,0.412542,-0.111967,10.048304,0.476206,-0.145138,-0.011284,-0.701904,-0.579834,-2.410889
11.165427,0.355062,-0.141306,10.051298,0.418726,-0.174477,-0.008290,-0.732422,-0.549316,-2.807617
11.175527,0.484991,-0.177830,10.063273,0.548656,-0.211001,0.003685,-0.579834,-0.427246,-2.685547
11.185624,0.356259,-0.171843,10.066267,0.419923,-0.205014,0.006679,-0.457764,-0.305176,-2.532959
11.195711,0.284409,-0.169448,10.065070,0.348073,-0.202619,0.005482,-0.427246,-0.244141,-1.770020
11.205808,0.271236,-0.165256,10.068662,0.334900,-0.198427,0.009074,-0.396729,-0.213623,-1.373291
11.215908,0.293989,-0.165855,10.066866,0.357653,-0.199026,0.007278,-0.305176,-0.152588,-1.190186
11.225994,0.246687,-0.161664,10.069261,0.310351,-0.194835,0.009673,-0.152588,-0.091553,-0.854492
11.236095,0.205972,-0.155078,10.066267,0.269636,-0.188249,0.006679,-0.122070,-0.061035,-0.640869
11.246195,0.140707,-0.137714,10.063872,0.204372,-0.170885,0.004284,-0.091553,-0.030518,-0.396729
11.256281,0.114362,-0.134720,10.071057,0.178026,-0.167891,0.011469,-0.061035,-0.030518,-0.305176
11.266380,0.094005,-0.131726,10.076446,0.157669,-0.164897,0.016858,-0.030518,-0.030518,-0.152588
11.276481,0.074844,-0.116757,10.066866,0.138508,-0.149928,0.007278,0.000000,0.000000,-0.122070
11.286567,0.068857,-0.114961,10.062675,0.132521,-0.148132,0.003087,0.000000,0.030518,-0.091553
11.296668,0.057480,-0.117356,10.056687,0.121145,-0.150527,-0.002901,0.000000,0.030518,-0.030518
11.306768,0.052690,-0.116757,10.063872,0.116355,-0.149928,0.004284,0.030518,0.030518,0.000000
11.316856,0.047302,-0.122745,10.070458,0.110966,-0.155916,0.010870,0.061035,0.000000,0.000000
11.326981,0.044907,-0.119751,10.065668,0.108571,-0.152922,0.006080,0.030518,0.000000,0.000000
11.337083,0.044907,-0.120948,10.061477,0.108571,-0.154120,0.001889,0.000000,0.000000,0.000000
11.347177,0.041913,-0.119152,10.059082,0.105577,-0.152323,-0.000506,0.030518,-0.030518,0.030518
11.357273,0.040715,-0.123344,10.058483,0.104379,-0.156515,-0.001105,0.030518,-0.030518,0.030518
11.367373,0.038919,-0.131127,10.057286,0.102583,-0.164298,-0.002302,0.061035,0.030518,0.000000
11.377461,0.038320,-0.129930,10.062076,0.101984,-0.163101,0.002488,0.030518,0.000000,0.030518
11.387560,0.041913,-0.128732,10.059082,0.105577,-0.161903,-0.000506,0.030518,0.030518,0.000000
11.397662,0.041314,-0.125739,10.060878,0.104978,-0.158910,0.001290,0.030518,0.000000,0.030518
11.407750,0.038919,-0.128732,10.068662,0.102583,-0.161903,0.009074,0.061035,0.030518,0.061035
11.417849,0.040117,-0.128134,10.065668,0.103781,-0.161305,0.006080,0.061035,0.000000,0.061035
11.427980,0.035925,-0.125140,10.067465,0.099589,-0.158311,0.007877,0.091553,0.030518,0.061035
11.438076,0.041314,-0.128134,10.063273,0.104978,-0.161305,0.003685,0.091553,0.000000,0.061035
11.448165,0.043709,-0.128134,10.061477,0.107373,-0.161305,0.001889,0.091553,-0.030518,0.030518
11.458266,0.046703,-0.122146,10.068063,0.110367,-0.155317,0.008475,0.122070,-0.030518,0.061035
11.468354,0.038320,-0.123942,10.070458,0.101984,-0.157113,0.010870,0.122070,0.030518,0.091553
11.478455,0.035925,-0.127535,10.065070,0.099589,-0.160706,0.005482,0.122070,0.000000,0.061035
11.488555,0.034728,-0.126936,10.063872,0.098392,-0.160107,0.004284,0.091553,0.030518,0.030518
11.498643,0.034129,-0.126337,10.063872,0.097793,-0.159508,0.004284,0.122070,0.000000,0.061035
11.508742,0.033530,-0.128732,10.063872,0.097194,-0.161903,0.004284,0.091553,0.030518,0.061035
11.518844,0.038320,-0.126936,10.063872,0.101984,-0.160107,0.004284,0.091553,0.000000,0.030518
11.528947,0.038320,-0.120948,10.065070,0.101984,-0.154120,0.005482,0.030518,-0.030518,0.061035
11.539033,0.038320,-0.125140,10.067465,0.101984,-0.158311,0.007877,0.030518,0.000000,0.061035
11.549122,0.037722,-0.114362,10.057286,0.101386,-0.147533,-0.002302,0.030518,-0.030518,0.061035
11.559212,0.037123,-0.113763,10.057885,0.100787,-0.146934,-0.001703,0.030518,0.000000,0.061035
11.569302,0.035925,-0.116158,10.057885,0.099589,-0.149329,-0.001703,0.000000,0.000000,0.030518
11.579391,0.043110,-0.112566,10.056088,0.106774,-0.145737,-0.003500,0.030518,-0.030518,0.030518
11.589480,0.041314,-0.114362,10.056088,0.104978,-0.147533,-0.003500,0.030518,-0.061035,0.030518
11.599571,0.047900,-0.119751,10.060280,0.111565,-0.152922,0.000692,0.000000,0.000000,0.000000
11.609661,0.043709,-0.113165,10.062076,0.107373,-0.146336,0.002488,0.061035,0.000000,0.000000
11.619750,0.041314,-0.115560,10.066267,0.104978,-0.148731,0.006679,0.061035,0.030518,0.030518
11.629853,0.034129,-0.117955,10.056687,0.097793,-0.151126,-0.002901,0.091553,0.000000,0.000000
11.639939,0.037123,-0.120350,10.056687,0.100787,-0.153521,-0.002901,0.091553,-0.030518,-0.030518
11.650028,0.038320,-0.115560,10.059681,0.101984,-0.148731,0.000093,0.091553,0.000000,0.000000
11.660118,0.035327,-0.112566,10.069860,0.098991,-0.145737,0.010272,0.061035,0.000000,0.000000
11.670207,0.037722,-0.117356,10.074051,0.101386,-0.150527,0.014463,0.061035,0.030518,0.000000
11.680296,0.043709,-0.122146,10.062675,0.107373,-0.155317,0.003087,0.061035,0.030518,0.030518
11.690394,0.038919,-0.117356,10.052496,0.102583,-0.150527,-0.007092,0.061035,0.030518,0.061035
11.700516,0.046104,-0.117955,10.056088,0.109768,-0.151126,-0.003500,0.061035,0.030518,0.030518
11.710605,0.044907,-0.120948,10.067465,0.108571,-0.154120,0.007877,0.091553,0.030518,0.030518
11.720693,0.045505,-0.119152,10.068063,0.109169,-0.152323,0.008475,0.091553,0.030518,0.030518
11.730808,0.047302,-0.123344,10.072255,0.110966,-0.156515,0.012667,0.091553,0.030518,0.030518
11.740897,0.051493,-0.134121,10.074051,0.115157,-0.167292,0.014463,0.061035,0.000000,0.061035
11.750985,0.043110,-0.122146,10.069860,0.106774,-0.155317,0.010272,0.061035,0.000000,0.061035
11.761075,0.046703,-0.117356,10.078242,0.110367,-0.150527,0.018654,0.091553,0.061035,0.030518
11.771240,0.048499,-0.121547,10.079440,0.112163,-0.154718,0.019852,0.122070,0.061035,0.030518
11.781330,0.044907,-0.120948,10.070458,0.108571,-0.154120,0.010870,0.183105,0.091553,0.000000
11.791425,0.046104,-0.120350,10.067465,0.109768,-0.153521,0.007877,0.183105,0.091553,-0.030518
11.801514,0.041913,-0.113763,10.066866,0.105577,-0.146934,0.007278,0.152588,0.061035,0.000000
11.811603,0.035327,-0.110770,10.073452,0.098991,-0.143941,0.013864,0.152588,0.030518,-0.030518
11.821692,-0.098196,-0.027543,10.077045,-0.034532,-0.060714,0.017457,0.122070,0.030518,0.183105
11.831854,-0.004790,-0.073647,10.071057,0.058874,-0.106818,0.011469,-0.122070,-0.030518,2.502441
11.841951,0.041314,-0.117356,10.061477,0.104978,-0.150527,0.001889,-0.122070,-0.030518,2.777100
11.852047,0.054487,-0.132924,10.065668,0.118151,-0.166095,0.006080,-0.030518,0.030518,2.777100
11.862143,0.052092,-0.138911,10.071057,0.115756,-0.172082,0.011469,0.030518,0.030518,2.716064
11.872238,0.082628,-0.155676,10.071656,0.146292,-0.188847,0.012068,0.091553,0.091553,2.105713
11.882521,0.085023,-0.152682,10.065668,0.148687,-0.185854,0.006080,0.091553,0.091553,1.770020
11.892617,0.071851,-0.140109,10.066267,0.135515,-0.173280,0.006679,0.152588,0.091553,1.281738
11.902713,0.051493,-0.117356,10.066866,0.115157,-0.150527,0.007278,0.152588,0.061035,1.190186
11.912808,0.059277,-0.113165,10.068662,0.122941,-0.146336,0.009074,0.122070,0.030518,1.159668
11.922902,0.008383,-0.135319,10.069860,0.072047,-0.168490,0.010272,0.152588,0.000000,1.068115
11.933026,0.029339,-0.133522,10.068662,0.093003,-0.166693,0.009074,0.122070,0.000000,1.037598
11.943121,0.065264,-0.133522,10.062675,0.128928,-0.166693,0.003087,0.122070,0.030518,0.885010
11.953217,0.056882,-0.130529,10.064471,0.120546,-0.163700,0.004883,0.122070,0.061035,0.793457
11.963312,0.043110,-0.128134,10.065070,0.106774,-0.161305,0.005482,0.091553,0.061035,0.610352
11.973407,0.038919,-0.132924,10.066267,0.102583,-0.166095,0.006679,0.091553,0.061035,0.549316
11.983502,0.045505,-0.134720,10.071057,0.109169,-0.167891,0.011469,0.091553,0.061035,0.488281
11.993597,0.049697,-0.119152,10.068662,0.113361,-0.152323,0.009074,0.091553,0.061035,0.396729
12.003875,0.049098,-0.115560,10.067465,0.112762,-0.148731,0.007877,0.091553,0.061035,0.396729
12.013973,0.051493,-0.118553,10.059082,0.115157,-0.151724,-0.000506,0.091553,0.030518,0.366211
12.024069,0.055684,-0.120948,10.061477,0.119348,-0.154120,0.001889,0.061035,0.061035,0.366211
12.034192,0.025746,-0.100591,10.056088,0.089411,-0.133762,-0.003500,0.030518,0.030518,0.244141
12.044288,-0.064067,-0.077838,10.054292,-0.000403,-0.111009,-0.005296,-0.030518,-0.030518,0.061035
12.054384,-0.116757,-0.079036,10.066866,-0.053093,-0.112207,0.007278,-0.244141,-0.213623,-1.037598
12.064481,-0.152682,-0.108375,10.069860,-0.089018,-0.141546,0.010272,-0.244141,-0.244141,-1.434326
12.074576,-0.143701,-0.103585,10.065070,-0.080037,-0.136756,0.005482,-0.396729,-0.335693,-1.617432
12.084672,-0.147294,-0.100591,10.068662,-0.083630,-0.133762,0.009074,-0.457764,-0.396729,-2.258301
12.094768,-0.161065,-0.105980,10.066267,-0.097401,-0.139151,0.006679,-0.518799,-0.488281,-2.349854
12.104866,-0.180225,-0.134121,10.086026,-0.116561,-0.167292,0.026438,-0.701904,-0.854492,-1.617432
12.114962,-0.113763,-0.124541,10.075248,-0.050099,-0.157712,0.015660,-0.732422,-0.915527,-1.037598
12.125059,-0.085023,-0.131726,10.086026,-0.021359,-0.164897,0.026438,-0.671387,-0.885010,-0.366211
12.135187,-0.167053,-0.172441,10.078841,-0.103389,-0.205612,0.019253,-0.701904,-1.007080,-0.152588
12.145283,-0.212558,-0.159868,10.075847,-0.148894,-0.193039,0.016259,-0.549316,-1.129150,-0.030518
12.155379,-0.147892,-0.191602,10.098001,-0.084228,-0.224773,0.038413,-0.488281,-1.586914,0.823975
12.165471,-0.172441,-0.220941,10.077045,-0.108777,-0.254112,0.017457,-0.274658,-1.678467,1.373291
12.175567,-0.200583,-0.180225,10.038126,-0.136919,-0.213396,-0.021462,-0.335693,-2.227783,2.288818
12.185663,-0.072449,-0.149090,10.077643,-0.008785,-0.182261,0.018055,-0.701904,-2.685547,2.807617
12.195757,-0.047900,-0.083227,10.003997,0.015764,-0.116398,-0.055591,-1.129150,-4.119873,2.685547
12.205850,0.013771,-0.118553,10.166858,0.077435,-0.151724,0.107270,-1.800537,-5.249023,2.227783
12.215946,-0.042512,-0.142504,10.127340,0.021153,-0.175675,0.067752,-0.885010,-4.028320,1.678467
12.226042,-0.183219,-0.165855,10.051298,-0.119555,-0.199026,-0.008290,0.030518,-2.624512,2.136230
12.236167,-0.070054,-0.169448,10.121951,-0.006390,-0.202619,0.062363,0.152588,-2.349854,1.953125
12.246263,-0.141306,-0.215552,10.070458,-0.077642,-0.248723,0.010870,0.335693,-1.770020,0.274658
12.256359,-0.053289,-0.268841,10.118958,0.010375,-0.302012,0.059370,1.129150,-1.861572,0.579834
12.266455,0.029938,-0.273032,10.179432,0.093602,-0.306203,0.119844,5.493164,-4.211426,5.035400
12.276551,0.276026,0.007784,10.056088,0.339690,-0.025387,-0.003500,4.394531,-3.112793,6.134033
12.286648,0.110171,0.027543,10.063872,0.173835,-0.005628,0.004284,1.983643,-1.647949,5.279541
12.296743,0.125739,-0.004191,10.023157,0.189403,-0.037362,-0.036431,0.915527,-1.037598,4.241943
12.306838,0.076641,-0.051493,10.051298,0.140305,-0.084664,-0.008290,-0.213623,-0.427246,3.326416
12.316934,0.094603,-0.117356,10.098001,0.158267,-0.150527,0.038413,-0.823975,0.213623,1.983643
12.327029,0.111967,-0.114961,10.093211,0.175631,-0.148132,0.033623,-0.335693,0.366211,1.831055
12.337148,0.172441,-0.126337,10.068662,0.236106,-0.159508,0.009074,-0.152588,0.518799,1.678467
12.347243,0.191003,-0.105980,10.065668,0.254667,-0.139151,0.006080,-0.122070,0.579834,1.556396
12.357338,0.211959,-0.089214,10.062076,0.275623,-0.122385,0.002488,-0.183105,0.488281,1.556396
12.367434,0.217947,-0.101788,10.090217,0.281611,-0.134959,0.030629,-0.030518,0.518799,1.464844
12.377526,0.201182,-0.119152,10.069261,0.264846,-0.152323,0.009673,-0.030518,0.518799,1.434326
12.387621,0.213157,-0.070653,10.041718,0.276821,-0.103824,-0.017870,0.061035,0.457764,1.647949
12.397719,0.208965,-0.122745,10.033336,0.272630,-0.155916,-0.026252,0.000000,0.518799,2.014160
12.407814,0.276026,-0.112566,10.019564,0.339690,-0.145737,-0.040024,-0.457764,0.732422,1.678467
12.417909,0.277224,-0.144899,10.059082,0.340888,-0.178070,-0.000506,-0.701904,0.854492,1.190186
12.428006,0.296384,-0.138911,10.075847,0.360048,-0.172082,0.016259,-0.091553,0.732422,0.854492
12.438125,0.301772,-0.120948,10.054292,0.365437,-0.154120,-0.005296,0.122070,0.732422,0.885010
12.448221,0.219144,-0.102986,10.042916,0.282808,-0.136157,-0.016672,-0.244141,0.854492,0.793457
12.458317,0.164658,-0.105980,10.061477,0.228322,-0.139151,0.001889,-0.244141,0.610352,0.122070
12.468412,0.109572,-0.076641,10.066267,0.173236,-0.109812,0.006679,-0.427246,0.671387,-0.061035
12.478507,0.131127,-0.077239,10.071057,0.194791,-0.110410,0.011469,-0.305176,0.762939,0.274658
12.488601,0.142504,-0.027543,10.069860,0.206168,-0.060714,0.010272,-0.030518,0.762939,0.305176
12.498696,0.130529,-0.143701,10.087822,0.194193,-0.176872,0.028234,0.061035,0.854492,-0.793457
12.508791,0.044907,-0.143102,10.095606,0.108571,-0.176273,0.036018,-0.091553,0.854492,-1.251221
12.518886,-0.009580,-0.123942,10.098600,0.054084,-0.157113,0.039012,-0.061035,0.823975,-1.525879
12.528980,0.058079,-0.105980,10.033934,0.121743,-0.139151,-0.025654,-0.061035,0.701904,-0.854492
12.539098,0.156275,-0.135917,10.065070,0.219939,-0.169088,0.005482,-0.488281,1.007080,-1.098633
12.549193,0.112566,-0.113165,10.062076,0.176230,-0.146336,0.002488,-0.854492,0.885010,-1.678467
12.559287,0.055085,-0.092807,10.075847,0.118750,-0.125978,0.016259,-0.549316,0.762939,-1.861572
