time,ax_raw,ay_raw,az_raw,ax,ay,az,gx,gy,gz
0.002311,-0.059875,0.035925,10.060280,0.013822,0.007874,0.007710,0.030518,0.030518,0.030518
0.012426,-0.065863,0.038919,10.060280,0.007834,0.010867,0.007710,0.030518,0.061035,0.061035
0.022525,-0.065264,0.040715,10.062675,0.008433,0.012664,0.010105,0.000000,0.091553,0.061035
0.032624,-0.063468,0.041913,10.059681,0.010229,0.013861,0.007112,0.000000,0.091553,0.061035
0.042715,-0.064067,0.040715,10.049502,0.009630,0.012664,-0.003067,0.000000,0.061035,0.030518
0.052806,-0.068258,0.028141,10.042916,0.005439,0.000090,-0.009653,-0.030518,0.030518,0.030518
0.062895,-0.068857,0.027543,10.054292,0.004840,-0.000509,0.001723,-0.030518,0.030518,0.030518
0.072981,-0.080832,0.026345,10.056687,-0.007135,-0.001706,0.004118,-0.030518,0.061035,0.061035
0.083089,-0.079036,0.031135,10.053693,-0.005339,0.003084,0.001124,0.000000,0.091553,0.030518
0.093179,-0.078437,0.031734,10.050699,-0.004740,0.003682,-0.001870,0.000000,0.030518,0.030518
0.103269,-0.085023,0.033530,10.043514,-0.011326,0.005479,-0.009055,0.000000,0.061035,0.030518
0.113361,-0.083227,0.023351,10.044712,-0.009530,-0.004700,-0.007857,0.000000,0.000000,0.000000
0.123450,-0.083227,0.029938,10.049502,-0.009530,0.001886,-0.003067,-0.030518,0.030518,0.000000
0.133539,-0.080233,0.032932,10.046508,-0.006536,0.004880,-0.006061,0.000000,0.030518,0.000000
0.143629,-0.079634,0.031135,10.050699,-0.005937,0.003084,-0.001870,0.030518,0.030518,0.000000
0.153733,-0.079634,0.032333,10.048304,-0.005937,0.004281,-0.004265,0.000000,0.030518,0.000000
0.163824,-0.079634,0.026944,10.051298,-0.005937,-0.001108,-0.001271,0.030518,0.030518,0.000000
0.173914,-0.077239,0.023351,10.054891,-0.003542,-0.004700,0.002322,0.030518,0.030518,-0.030518
0.184002,-0.075443,0.019759,10.056687,-0.001746,-0.008293,0.004118,0.030518,0.030518,-0.030518
0.194092,-0.081431,0.023950,10.047706,-0.007734,-0.004101,-0.004863,-0.030518,0.061035,-0.030518
0.204182,-0.080233,0.022753,10.048903,-0.006536,-0.005299,-0.003666,0.000000,0.091553,0.000000
0.214277,-0.072449,0.028141,10.056687,0.001248,0.000090,0.004118,0.030518,0.091553,0.000000
0.224365,-0.076042,0.031734,10.053094,-0.002345,0.003682,0.000525,0.030518,0.091553,-0.030518
0.234455,-0.080832,0.034728,10.056088,-0.007135,0.006676,0.003519,0.000000,0.061035,-0.091553
0.244547,-0.080832,0.032932,10.056687,-0.007135,0.004880,0.004118,0.000000,0.061035,-0.061035
0.254643,-0.084424,0.035925,10.056687,-0.010727,0.007874,0.004118,0.030518,0.061035,-0.061035
0.264784,-0.077239,0.037722,10.060280,-0.003542,0.009670,0.007710,0.030518,0.061035,-0.030518
0.274883,-0.076641,0.034728,10.056687,-0.002944,0.006676,0.004118,-0.061035,0.061035,-0.030518
0.284980,-0.067061,0.041314,10.056088,0.006636,0.013262,0.003519,-0.030518,0.061035,-0.030518
0.295077,-0.065863,0.040117,10.054891,0.007834,0.012065,0.002322,-0.030518,0.061035,-0.030518
0.305174,-0.074844,0.036524,10.062076,-0.001147,0.008472,0.009507,-0.030518,0.061035,0.000000
0.315272,-0.071252,0.032932,10.067465,0.002445,0.004880,0.014896,-0.030518,0.030518,-0.030518
0.325369,-0.066462,0.025746,10.062076,0.007235,-0.002305,0.009507,0.000000,0.030518,-0.030518
0.335466,-0.071851,0.029339,10.060280,0.001846,0.001287,0.007710,-0.030518,0.030518,0.000000
0.345556,-0.067659,0.028740,10.055490,0.006038,0.000689,0.002920,0.000000,0.030518,0.030518
0.355647,-0.072449,0.031734,10.064471,0.001248,0.003682,0.011902,-0.030518,0.030518,0.000000
0.365736,-0.073048,0.034728,10.064471,0.000649,0.006676,0.011902,-0.030518,0.000000,0.030518
0.375827,-0.079036,0.029938,10.056088,-0.005339,0.001886,0.003519,-0.061035,0.030518,0.030518
0.385916,-0.076641,0.029339,10.059082,-0.002944,0.001287,0.006513,-0.061035,0.000000,0.030518
0.396005,-0.073647,0.022753,10.053094,0.000050,-0.005299,0.000525,-0.061035,0.030518,0.000000
0.406097,-0.076042,0.022154,10.049502,-0.002345,-0.005898,-0.003067,-0.061035,0.061035,0.000000
0.416187,-0.075443,0.016166,10.057885,-0.001746,-0.011885,0.005315,0.000000,0.091553,0.000000
0.426277,-0.077239,0.019759,10.053094,-0.003542,-0.008293,0.000525,0.000000,0.091553,0.000000
0.436367,-0.082029,0.026345,10.056088,-0.008332,-0.001706,0.003519,0.000000,0.091553,0.030518
0.446460,-0.082628,0.023950,10.045909,-0.008931,-0.004101,-0.006660,0.000000,0.061035,0.030518
0.456556,-0.082029,0.020358,10.039922,-0.008332,-0.007694,-0.012647,-0.030518,0.061035,0.061035
0.466655,-0.086221,0.022753,10.052496,-0.012524,-0.005299,-0.000073,-0.030518,0.061035,0.030518
0.476754,-0.077239,0.030536,10.053693,-0.003542,0.002485,0.001124,-0.030518,0.061035,0.030518
0.486850,-0.077838,0.028740,10.051298,-0.004141,0.000689,-0.001271,-0.030518,0.030518,0.000000
0.496949,-0.074246,0.023351,10.048304,-0.000549,-0.004700,-0.004265,-0.091553,0.061035,0.000000
0.507046,-0.074844,0.022753,10.041119,-0.001147,-0.005299,-0.011450,-0.030518,0.000000,0.000000
0.517143,-0.080832,0.016765,10.054292,-0.007135,-0.011287,0.001723,-0.030518,0.000000,0.030518
0.527290,-0.078437,0.020956,10.056088,-0.004740,-0.007095,0.003519,0.000000,0.000000,0.000000
0.537433,-0.070653,0.025746,10.054292,0.003044,-0.002305,0.001723,-0.030518,0.030518,-0.030518
0.547547,-0.073048,0.025148,10.055490,0.000649,-0.002904,0.002920,-0.030518,0.030518,0.000000
0.557630,-0.076641,0.025148,10.056687,-0.002944,-0.002904,0.004118,-0.030518,0.030518,-0.030518
0.567725,-0.073048,0.029938,10.066866,0.000649,0.001886,0.014297,-0.030518,0.030518,0.000000
0.577805,-0.071252,0.027543,10.062076,0.002445,-0.000509,0.009507,-0.030518,0.030518,-0.030518
0.587884,-0.082029,0.025746,10.058483,-0.008332,-0.002305,0.005914,-0.030518,0.030518,0.000000
0.597964,-0.086221,0.024549,10.053094,-0.012524,-0.003503,0.000525,-0.030518,0.030518,-0.030518
0.608043,-0.082628,0.028141,10.059082,-0.008931,0.000090,0.006513,0.000000,0.000000,0.000000
0.618125,-0.074844,0.023950,10.059681,-0.001147,-0.004101,0.007112,0.000000,0.030518,0.000000
0.628207,-0.074844,0.024549,10.061477,-0.001147,-0.003503,0.008908,0.000000,0.030518,0.030518
0.638287,-0.077838,0.020956,10.050699,-0.004141,-0.007095,-0.001870,-0.030518,0.030518,0.000000
0.648372,-0.073048,0.031734,10.055490,0.000649,0.003682,0.002920,0.000000,0.030518,0.000000
0.658457,-0.070653,0.025148,10.067465,0.003044,-0.002904,0.014896,0.000000,0.030518,0.030518
0.668540,-0.071851,0.028740,10.066866,0.001846,0.000689,0.014297,-0.030518,0.030518,0.030518
0.678626,-0.075443,0.029339,10.067465,-0.001746,0.001287,0.014896,0.000000,0.061035,0.000000
0.688710,-0.076641,0.035925,10.062076,-0.002944,0.007874,0.009507,0.030518,0.061035,0.000000
0.698867,-0.070054,0.040117,10.054292,0.003643,0.012065,0.001723,0.030518,0.061035,0.000000
0.708952,-0.067659,0.043110,10.058483,0.006038,0.015059,0.005914,0.000000,0.061035,0.000000
0.719036,-0.073647,0.044308,10.059681,0.000050,0.016256,0.007112,0.030518,0.061035,0.000000
0.729119,-0.068857,0.031734,10.059082,0.004840,0.003682,0.006513,0.030518,0.061035,0.000000
0.739204,-0.070054,0.034728,10.054891,0.003643,0.006676,0.002322,0.030518,0.091553,0.000000
0.749295,-0.073048,0.026944,10.047107,0.000649,-0.001108,-0.005462,0.030518,0.091553,0.030518
0.759388,-0.067659,0.025746,10.050699,0.006038,-0.002305,-0.001870,0.030518,0.061035,0.030518
0.769485,-0.076641,0.020358,10.045909,-0.002944,-0.007694,-0.006660,0.030518,0.061035,0.061035
0.779577,-0.078437,0.013771,10.050699,-0.004740,-0.014280,-0.001870,0.030518,0.030518,0.061035
0.789669,-0.074844,0.010179,10.041718,-0.001147,-0.017873,-0.010851,0.030518,0.030518,0.061035
0.799762,-0.073647,0.016166,10.045909,0.000050,-0.011885,-0.006660,0.000000,0.000000,0.061035
0.809854,-0.073647,0.019160,10.053094,0.000050,-0.008892,0.000525,0.000000,0.030518,0.061035
0.819948,-0.069456,0.015568,10.065668,0.004241,-0.012484,0.013099,0.000000,0.061035,0.061035
0.830042,-0.068258,0.021555,10.062675,0.005439,-0.006496,0.010105,-0.030518,0.061035,0.061035
0.840135,-0.070653,0.013771,10.061477,0.003044,-0.014280,0.008908,-0.030518,0.030518,0.061035
0.850234,-0.068857,0.015568,10.060878,0.004840,-0.012484,0.008309,-0.030518,0.030518,0.030518
0.860327,-0.068258,0.020358,10.066866,0.005439,-0.007694,0.014297,-0.030518,0.000000,0.030518
0.870427,-0.071252,0.023950,10.067465,0.002445,-0.004101,0.014896,-0.030518,0.000000,0.000000
0.880522,-0.074844,0.022154,10.063872,-0.001147,-0.005898,0.011303,0.000000,0.000000,0.061035
0.890619,-0.072449,0.028141,10.066866,0.001248,0.000090,0.014297,0.000000,0.030518,0.061035
0.900713,-0.068258,0.031135,10.064471,0.005439,0.003084,0.011902,0.030518,0.030518,0.030518
0.910810,-0.067659,0.039518,10.065668,0.006038,0.011466,0.013099,0.030518,0.030518,0.061035
0.920903,-0.070653,0.038320,10.065070,0.003044,0.010269,0.012501,0.030518,0.000000,0.061035
0.931000,-0.074246,0.036524,10.060280,-0.000549,0.008472,0.007710,0.061035,0.030518,0.030518
0.941093,-0.077239,0.039518,10.062675,-0.003542,0.011466,0.010105,0.030518,0.061035,0.061035
0.951186,-0.080233,0.038320,10.059082,-0.006536,0.010269,0.006513,0.030518,0.061035,0.000000
0.961273,-0.078437,0.034728,10.069860,-0.004740,0.006676,0.017291,0.030518,0.030518,0.000000
0.971375,-0.076641,0.033530,10.070458,-0.002944,0.005479,0.017889,0.061035,0.030518,0.000000
0.981464,-0.078437,0.035327,10.058483,-0.004740,0.007275,0.005914,0.061035,0.091553,0.000000
0.991552,-0.078437,0.031734,10.059681,-0.004740,0.003682,0.007112,0.030518,0.061035,0.000000
1.001640,-0.080832,0.025746,10.060878,-0.007135,-0.002305,0.008309,0.000000,0.061035,-0.061035
1.011726,-0.075443,0.030536,10.060280,-0.001746,0.002485,0.007710,-0.061035,0.061035,-0.061035
1.021814,-0.076641,0.025746,10.061477,-0.002944,-0.002305,0.008908,-0.030518,0.061035,-0.030518
1.031904,-0.069456,0.028740,10.061477,0.004241,0.000689,0.008908,-0.030518,0.061035,0.000000
1.041992,-0.069456,0.024549,10.057885,0.004241,-0.003503,0.005315,-0.061035,0.061035,0.000000
1.052084,-0.067659,0.028141,10.050699,0.006038,0.000090,-0.001870,-0.030518,0.030518,0.030518
1.062179,-0.068857,0.029938,10.057885,0.004840,0.001886,0.005315,-0.030518,0.030518,0.030518
1.072275,-0.068258,0.026345,10.061477,0.005439,-0.001706,0.008908,-0.030518,0.030518,0.061035
1.082372,-0.068258,0.020358,10.052496,0.005439,-0.007694,-0.000073,0.000000,0.030518,0.061035
1.092469,-0.072449,0.019759,10.054292,0.001248,-0.008293,0.001723,0.000000,0.030518,0.061035
1.102565,-0.076042,0.027543,10.060280,-0.002345,-0.000509,0.007710,0.000000,0.030518,0.061035
1.112661,-0.074844,0.023351,10.060280,-0.001147,-0.004700,0.007710,-0.030518,0.030518,0.000000
1.122757,-0.076641,0.023351,10.051897,-0.002944,-0.004700,-0.000672,-0.030518,0.091553,0.030518
1.132854,-0.066462,0.022154,10.053094,0.007235,-0.005898,0.000525,-0.030518,0.061035,0.030518
1.142950,-0.073647,0.026345,10.048304,0.000050,-0.001706,-0.004265,-0.030518,0.061035,0.030518
1.153046,-0.076042,0.026345,10.050699,-0.002345,-0.001706,-0.001870,-0.030518,0.091553,0.061035
1.163143,-0.073048,0.029339,10.057286,0.000649,0.001287,0.004717,-0.061035,0.030518,0.061035
1.173239,-0.071851,0.035925,10.054292,0.001846,0.007874,0.001723,-0.061035,0.030518,0.030518
1.183336,-0.070054,0.040715,10.054891,0.003643,0.012664,0.002322,-0.061035,0.000000,0.030518
1.193432,-0.075443,0.046104,10.050699,-0.001746,0.018052,-0.001870,-0.061035,0.030518,0.030518
1.203529,-0.073647,0.045505,10.057885,0.000050,0.017454,0.005315,-0.061035,0.030518,0.000000
1.213626,-0.071851,0.043110,10.071057,0.001846,0.015059,0.018488,-0.061035,0.000000,0.030518
1.223722,-0.076042,0.043110,10.065070,-0.002345,0.015059,0.012501,-0.030518,0.030518,0.000000
1.233814,-0.070653,0.042512,10.060280,0.003044,0.014460,0.007710,-0.030518,0.000000,-0.030518
1.243911,-0.067061,0.035925,10.063872,0.006636,0.007874,0.011303,-0.030518,0.030518,0.000000
1.254008,-0.063468,0.035327,10.061477,0.010229,0.007275,0.008908,-0.061035,0.030518,0.030518
1.264103,-0.070054,0.025746,10.068063,0.003643,-0.002305,0.015494,-0.030518,0.030518,0.000000
1.274199,-0.069456,0.014370,10.063273,0.004241,-0.013682,0.010704,-0.061035,0.030518,0.000000
1.284296,-0.073647,0.018561,10.061477,0.000050,-0.009490,0.008908,-0.061035,0.030518,-0.030518
1.294392,-0.073048,0.017364,10.056687,0.000649,-0.010688,0.004118,-0.061035,0.000000,-0.030518
1.304487,-0.073048,0.019759,10.060280,0.000649,-0.008293,0.007710,-0.030518,0.000000,0.000000
1.314584,-0.074246,0.022154,10.059681,-0.000549,-0.005898,0.007112,-0.030518,0.030518,0.030518
1.324677,-0.072449,0.023351,10.055490,0.001248,-0.004700,0.002920,-0.030518,0.030518,0.000000
1.334773,-0.076042,0.025746,10.048903,-0.002345,-0.002305,-0.003666,-0.030518,0.000000,0.000000
1.344869,-0.072449,0.029938,10.047706,0.001248,0.001886,-0.004863,0.000000,0.000000,0.030518
1.354963,-0.074246,0.026944,10.055490,-0.000549,-0.001108,0.002920,0.000000,0.030518,0.000000
1.365060,-0.072449,0.024549,10.064471,0.001248,-0.003503,0.011902,-0.030518,0.061035,-0.030518
1.375156,-0.073048,0.028141,10.064471,0.000649,0.000090,0.011902,0.030518,0.000000,-0.030518
1.385252,-0.071252,0.024549,10.060280,0.002445,-0.003503,0.007710,0.000000,0.000000,-0.030518
1.395347,-0.073647,0.026944,10.061477,0.000050,-0.001108,0.008908,-0.030518,0.030518,0.030518
1.405443,-0.070653,0.025148,10.060280,0.003044,-0.002904,0.007710,0.000000,0.030518,0.030518
1.415539,-0.071851,0.027543,10.062675,0.001846,-0.000509,0.010105,0.000000,0.030518,0.000000
1.425627,-0.073048,0.024549,10.059082,0.000649,-0.003503,0.006513,0.030518,0.030518,0.000000
1.435720,-0.072449,0.025746,10.061477,0.001248,-0.002305,0.008908,0.000000,0.030518,0.030518
1.445822,-0.070653,0.029339,10.059681,0.003044,0.001287,0.007112,-0.030518,0.030518,0.061035
1.455920,-0.068857,0.026345,10.060280,0.004840,-0.001706,0.007710,-0.030518,0.061035,0.061035
1.466016,-0.074246,0.029938,10.057885,-0.000549,0.001886,0.005315,0.000000,0.061035,0.061035
1.476112,-0.077239,0.026345,10.053094,-0.003542,-0.001706,0.000525,-0.030518,0.091553,0.091553
1.486208,-0.071851,0.022753,10.055490,0.001846,-0.005299,0.002920,-0.030518,0.091553,0.091553
1.496304,-0.070653,0.019759,10.054292,0.003044,-0.008293,0.001723,0.000000,0.091553,0.061035
1.506399,-0.077838,0.019160,10.056687,-0.004141,-0.008892,0.004118,0.000000,0.091553,0.061035
1.516496,-0.074844,0.021555,10.057286,-0.001147,-0.006496,0.004717,-0.030518,0.061035,0.030518
1.526592,-0.076641,0.019160,10.054292,-0.002944,-0.008892,0.001723,-0.061035,0.061035,0.000000
1.536688,-0.079036,0.020956,10.054891,-0.005339,-0.007095,0.002322,0.000000,0.091553,0.030518
1.546783,-0.079036,0.020358,10.054292,-0.005339,-0.007694,0.001723,0.000000,0.091553,0.000000
1.556879,-0.077239,0.019759,10.059082,-0.003542,-0.008293,0.006513,0.000000,0.061035,0.000000
1.566975,-0.081431,0.029339,10.059082,-0.007734,0.001287,0.006513,0.030518,0.061035,0.030518
1.577071,-0.085622,0.033530,10.057286,-0.011925,0.005479,0.004717,0.000000,0.061035,0.061035
1.587167,-0.080233,0.030536,10.054891,-0.006536,0.002485,0.002322,-0.030518,0.030518,0.000000
1.597264,-0.079634,0.035327,10.051298,-0.005937,0.007275,-0.001271,-0.030518,0.061035,0.000000
1.607360,-0.080832,0.029339,10.054891,-0.007135,0.001287,0.002322,-0.030518,0.061035,0.000000
1.617456,-0.072449,0.022154,10.057286,0.001248,-0.005898,0.004717,0.000000,0.030518,-0.030518
1.627552,-0.069456,0.026345,10.057885,0.004241,-0.001706,0.005315,0.000000,0.030518,-0.030518
1.637648,-0.072449,0.027543,10.057286,0.001248,-0.000509,0.004717,-0.030518,0.000000,-0.030518
1.647749,-0.079036,0.025148,10.055490,-0.005339,-0.002904,0.002920,0.000000,0.030518,-0.030518
1.657847,-0.077838,0.028141,10.059681,-0.004141,0.000090,0.007112,-0.030518,0.000000,0.000000
1.667943,-0.077239,0.026944,10.063872,-0.003542,-0.001108,0.011303,-0.030518,0.000000,0.000000
1.678041,-0.070653,0.025148,10.065070,0.003044,-0.002904,0.012501,-0.061035,0.000000,-0.030518
1.688137,-0.076641,0.028141,10.059082,-0.002944,0.000090,0.006513,-0.030518,0.030518,-0.030518
1.698232,-0.079634,0.032932,10.060878,-0.005937,0.004880,0.008309,-0.030518,0.000000,0.000000
1.708326,-0.085622,0.033530,10.072853,-0.011925,0.005479,0.020284,-0.030518,0.000000,0.000000
1.718423,-0.082029,0.026345,10.069261,-0.008332,-0.001706,0.016692,-0.030518,0.030518,0.000000
1.728520,-0.069456,0.026944,10.060280,0.004241,-0.001108,0.007710,-0.030518,0.030518,0.030518
1.738613,-0.071252,0.026944,10.058483,0.002445,-0.001108,0.005914,-0.030518,0.030518,0.030518
1.748712,-0.079036,0.027543,10.059082,-0.005339,-0.000509,0.006513,0.000000,0.000000,0.000000
1.758805,-0.073048,0.027543,10.071057,0.000649,-0.000509,0.018488,0.000000,0.000000,0.030518
1.768895,-0.074844,0.029339,10.067465,-0.001147,0.001287,0.014896,-0.030518,0.000000,0.061035
1.778982,-0.079036,0.031135,10.062076,-0.005339,0.003084,0.009507,0.000000,0.061035,0.061035
1.789073,-0.080832,0.028740,10.062076,-0.007135,0.000689,0.009507,0.000000,0.091553,0.061035
1.799164,-0.079634,0.032932,10.058483,-0.005937,0.004880,0.005914,0.030518,0.061035,0.061035
1.809251,-0.083227,0.031135,10.063872,-0.009530,0.003084,0.011303,0.030518,0.061035,0.061035
1.819340,-0.082628,0.022154,10.054891,-0.008931,-0.005898,0.002322,0.030518,0.061035,0.061035
1.829427,-0.080832,0.017963,10.051897,-0.007135,-0.010089,-0.000672,0.000000,0.061035,0.061035
1.839513,-0.080832,0.020358,10.048304,-0.007135,-0.007694,-0.004265,0.030518,0.061035,0.000000
1.849599,-0.079036,0.020956,10.053094,-0.005339,-0.007095,0.000525,0.030518,0.061035,0.000000
1.859691,-0.079036,0.017963,10.050699,-0.005339,-0.010089,-0.001870,0.030518,0.061035,0.030518
1.869785,-0.079036,0.017364,10.057286,-0.005339,-0.010688,0.004717,0.000000,0.030518,0.061035
1.879879,-0.082628,0.020358,10.053693,-0.008931,-0.007694,0.001124,0.000000,0.030518,0.061035
1.889975,-0.075443,0.024549,10.048903,-0.001746,-0.003503,-0.003666,0.000000,0.030518,0.061035
1.900068,-0.074844,0.023351,10.046508,-0.001147,-0.004700,-0.006061,0.000000,0.061035,0.061035
1.910164,-0.074246,0.023950,10.053693,-0.000549,-0.004101,0.001124,-0.030518,0.030518,0.061035
1.920257,-0.071252,0.026944,10.060878,0.002445,-0.001108,0.008309,0.000000,0.030518,0.030518
1.930349,-0.071851,0.032333,10.058483,0.001846,0.004281,0.005914,0.030518,0.030518,0.000000
1.940442,-0.069456,0.030536,10.060878,0.004241,0.002485,0.008309,0.030518,0.030518,0.061035
1.950537,-0.065863,0.031734,10.064471,0.007834,0.003682,0.011902,0.030518,0.000000,0.061035
1.960630,-0.073647,0.030536,10.067465,0.000050,0.002485,0.014896,0.030518,0.030518,0.000000
1.970726,-0.064067,0.033530,10.060280,0.009630,0.005479,0.007710,0.030518,0.030518,0.000000
1.980819,-0.069456,0.033530,10.056088,0.004241,0.005479,0.003519,0.000000,0.030518,0.000000
1.990916,-0.071252,0.031734,10.054891,0.002445,0.003682,0.002322,0.000000,0.030518,0.000000
2.001009,-0.071252,0.029938,10.061477,0.002445,0.001886,0.008908,0.030518,0.030518,-0.030518
2.011104,-0.077239,0.028740,10.069261,-0.003542,0.000689,0.016692,0.000000,0.030518,-0.030518
2.021197,-0.072449,0.033530,10.067465,0.001248,0.005479,0.014896,-0.030518,0.030518,0.000000
2.031291,-0.070054,0.029938,10.069860,0.003643,0.001886,0.017291,-0.030518,0.030518,-0.030518
2.041576,-0.068258,0.031135,10.063872,0.005439,0.003084,0.011303,0.000000,0.000000,-0.030518
2.051676,-0.064067,0.035327,10.055490,0.009630,0.007275,0.002920,-0.030518,0.000000,0.030518
2.061768,-0.066462,0.036524,10.060878,0.007235,0.008472,0.008309,-0.030518,0.000000,0.000000
2.071863,-0.066462,0.038320,10.061477,0.007235,0.010269,0.008908,-0.061035,0.000000,0.030518
2.081957,-0.072449,0.035327,10.057286,0.001248,0.007275,0.004717,-0.030518,0.000000,0.000000
2.092053,-0.074844,0.037123,10.058483,-0.001147,0.009071,0.005914,0.000000,0.000000,0.000000
2.102143,-0.074844,0.035327,10.057286,-0.001147,0.007275,0.004717,-0.030518,0.030518,0.000000
2.112237,-0.073647,0.031734,10.060280,0.000050,0.003682,0.007710,0.000000,0.030518,0.030518
2.122335,-0.067061,0.030536,10.058483,0.006636,0.002485,0.005914,-0.061035,-0.030518,0.000000
2.132431,-0.077838,0.029339,10.065070,-0.004141,0.001287,0.012501,-0.122070,0.000000,-0.030518
2.142528,-0.077239,0.035925,10.059681,-0.003542,0.007874,0.007112,-0.061035,0.000000,-0.091553
2.152621,-0.075443,0.022753,10.066267,-0.001746,-0.005299,0.013698,-0.030518,0.030518,-0.091553
2.162709,-0.069456,0.022154,10.064471,0.004241,-0.005898,0.011902,0.030518,0.030518,-0.061035
2.172799,-0.271236,0.049098,10.060280,-0.197539,0.021046,0.007710,0.396729,0.061035,0.000000
2.182889,-2.201023,0.218546,10.085427,-2.127326,0.190494,0.032858,0.671387,0.000000,-1.312256
2.192979,-2.123784,0.244891,10.060280,-2.050087,0.216839,0.007710,0.488281,-0.549316,-8.850098
2.203068,-1.059796,0.286205,10.022558,-0.986099,0.258153,-0.030011,0.335693,-0.732422,-7.019043
2.213157,-0.313149,0.233514,10.015373,-0.239452,0.205463,-0.037196,0.213623,-0.701904,-1.647949
2.223246,-0.032333,0.174836,10.044712,0.041364,0.146785,-0.007857,0.335693,-0.610352,-1.403809
2.233335,-0.226928,0.087418,10.075248,-0.153231,0.059367,0.022679,-0.305176,-0.549316,-0.579834
2.243424,-0.494572,-0.107177,10.055490,-0.420875,-0.135229,0.002920,0.091553,-0.335693,0.732422
2.253513,-0.219743,-0.321531,10.026749,-0.146046,-0.349583,-0.025820,0.915527,-0.091553,3.112793
2.263608,-0.079036,-0.335303,10.057286,-0.005339,-0.363354,0.004717,0.427246,0.061035,7.141113
2.273705,-0.202379,-0.256866,10.093810,-0.128682,-0.284918,0.041241,-0.885010,0.000000,6.439209
2.283801,-0.182021,-0.052690,10.042317,-0.108324,-0.080742,-0.010252,-1.037598,-0.091553,3.814697
2.293897,0.016765,0.096400,10.058483,0.090462,0.068348,0.005914,-0.579834,0.061035,3.173828
2.303992,0.020358,0.159269,10.032737,0.094055,0.131217,-0.019832,0.030518,0.061035,1.342773
2.314088,-0.107776,0.262853,10.021360,-0.034079,0.234802,-0.031209,0.610352,0.122070,0.335693
2.324185,-0.126936,0.244292,10.063273,-0.053239,0.216240,0.010704,0.671387,0.000000,-0.274658
2.334281,-0.108375,0.229323,10.081835,-0.034678,0.201271,0.029266,-0.183105,0.274658,0.946045
2.344377,-0.108973,0.140707,10.096205,-0.035276,0.112656,0.043636,0.000000,0.152588,1.434326
2.354474,-0.197589,0.141306,10.026749,-0.123892,0.113254,-0.025820,0.183105,0.183105,1.373291
2.364570,-0.355660,0.162861,9.995015,-0.281963,0.134810,-0.057554,0.213623,0.061035,2.044678
2.374666,-0.254471,-0.068857,10.115964,-0.180774,-0.096908,0.063395,-0.305176,0.061035,2.044678
2.384762,-0.444875,-0.045505,10.066866,-0.371178,-0.073557,0.014297,-1.220703,0.091553,1.708984
2.394857,-0.447270,0.049098,10.086026,-0.373573,0.021046,0.033457,-1.800537,0.091553,2.502441
2.404954,-0.002994,-0.225132,10.130334,0.070703,-0.253184,0.077765,1.739502,0.579834,6.469727
2.415050,-0.234712,-0.095202,10.163265,-0.161015,-0.123254,0.110696,0.335693,0.213623,4.211426
2.425146,-0.616119,0.075443,10.042317,-0.542422,0.047391,-0.010252,-0.762939,0.244141,2.441406
2.435242,-0.735271,0.173040,10.025552,-0.661574,0.144988,-0.027017,-1.068115,0.335693,2.929688
2.445338,-0.482596,0.078437,10.151290,-0.408899,0.050385,0.098721,0.091553,0.976562,7.232666
2.455433,-0.119152,-0.270038,10.157877,-0.045455,-0.298090,0.105308,0.335693,0.915527,6.103516
2.465529,-0.277224,-0.059277,10.097402,-0.203527,-0.087328,0.044833,-0.671387,0.549316,3.967285
2.475625,-0.290396,-0.068857,10.046508,-0.216699,-0.096908,-0.006061,-0.244141,0.488281,3.784180
2.485721,-0.265248,-0.136516,10.074650,-0.191551,-0.164568,0.022081,-0.396729,0.305176,4.028320
2.495817,-0.209564,-0.061073,10.069860,-0.135867,-0.089125,0.017291,-0.213623,-0.091553,4.547119
2.505913,-0.145497,-0.189805,10.099797,-0.071800,-0.217857,0.047228,-0.366211,-0.213623,4.974365
2.516008,-0.199385,0.037722,10.007589,-0.125688,0.009670,-0.044980,0.305176,-0.427246,5.401611
2.526249,-0.279020,0.017364,10.066866,-0.205323,-0.010688,0.014297,0.274658,-0.579834,6.378174
2.536347,-0.231718,0.021555,10.038126,-0.158021,-0.006496,-0.014443,0.274658,-0.488281,7.904053
2.546443,-0.089813,-0.006586,10.095606,-0.016116,-0.034638,0.043037,-0.274658,-0.457764,8.880615
2.556540,-0.058079,0.131127,10.076446,0.015618,0.103076,0.023877,-0.335693,-0.457764,8.911133
2.566637,-0.016765,0.008383,10.127340,0.056932,-0.019669,0.074771,-0.366211,-0.549316,7.995605
2.576732,-0.131726,0.073048,10.034533,-0.058029,0.044996,-0.018036,-0.091553,-0.396729,6.927490
2.586828,0.038320,-0.086819,10.062675,0.112017,-0.114871,0.010105,0.549316,-0.671387,4.730225
2.596924,0.092807,-0.071851,10.066267,0.166504,-0.099902,0.013698,1.525879,-0.335693,3.509521
2.607019,0.034728,-0.066462,10.047706,0.108425,-0.094513,-0.004863,1.678467,-0.579834,0.854492
2.617117,-0.173639,-0.032932,10.100995,-0.099942,-0.060983,0.048426,1.647949,-0.457764,0.091553
2.627213,-0.144899,-0.083227,10.109377,-0.071202,-0.111279,0.056808,1.922607,-0.122070,-0.122070
2.637309,-0.180225,-0.049697,10.122550,-0.106528,-0.077748,0.069981,1.220703,0.427246,-0.091553
2.647407,-0.242496,0.009580,10.126143,-0.168799,-0.018472,0.073574,0.762939,0.671387,-0.610352
2.657504,-0.207768,0.061073,10.086026,-0.134071,0.033021,0.033457,-0.640869,1.220703,-1.525879
2.667593,-0.128134,0.044907,10.047107,-0.054437,0.016855,-0.005462,-1.159668,1.159668,-1.922607
2.677684,-0.115560,-0.056283,10.234517,-0.041863,-0.084335,0.181948,-0.823975,1.434326,-1.983643
2.687774,-0.203577,0.019160,10.095007,-0.129880,-0.008892,0.042438,-1.647949,1.373291,-1.922607
2.697864,-0.174836,0.000000,9.908795,-0.101139,-0.028052,-0.143775,-2.319336,1.129150,-1.159668
2.707953,-0.343685,0.042512,10.116563,-0.269988,0.014460,0.063993,-4.943848,0.061035,1.159668
2.718043,-0.246088,-0.202978,10.159673,-0.172391,-0.231030,0.107104,-3.845215,-0.427246,0.823975
2.728129,-0.040715,-0.110171,10.042317,0.032982,-0.138223,-0.010252,-1.159668,-0.640869,0.000000
2.738219,-0.096998,0.001796,10.090816,-0.023301,-0.026255,0.038247,-0.610352,-0.701904,0.427246
2.748309,-0.017963,0.090412,10.017169,0.055734,0.062360,-0.035400,0.732422,-1.098633,-0.640869
2.758398,0.025746,0.127535,10.081236,0.099443,0.099483,0.028667,0.732422,-1.525879,-1.312256
2.768490,0.008383,0.089813,10.119556,0.082080,0.061762,0.066987,0.457764,-0.946045,-2.655029
2.778587,0.041314,0.123942,10.153685,0.115011,0.095891,0.101116,0.488281,-0.518799,-3.021240
2.788685,0.127535,0.182021,10.099797,0.201232,0.153970,0.047228,-0.091553,-0.274658,-3.082275
2.798779,0.061672,0.165256,10.048903,0.135369,0.137205,-0.003666,0.701904,0.305176,-2.929688
2.808873,-0.032333,0.143701,10.115365,0.041364,0.115650,0.062796,0.610352,0.488281,-2.227783
2.818969,0.116757,0.066462,10.183024,0.190454,0.038410,0.130455,1.190186,0.305176,-2.258301
2.829065,0.180824,0.104183,10.020762,0.254521,0.076132,-0.031807,1.098633,0.183105,-3.021240
2.839161,0.067659,0.046104,10.129735,0.141356,0.018052,0.077166,0.427246,0.061035,-4.608154
2.849258,0.128732,-0.184417,10.060878,0.202429,-0.212468,0.008309,0.793457,0.152588,-5.157471
2.859351,0.005389,-0.108375,10.139914,0.079086,-0.136426,0.087345,1.251221,0.030518,-5.676270
2.869445,-0.053289,-0.019160,10.048304,0.020408,-0.047212,-0.004265,0.793457,-0.061035,-7.690430
2.879538,-0.096400,-0.037123,10.022558,-0.022703,-0.065174,-0.030011,-0.213623,0.000000,-8.789062
2.889631,0.157473,0.010778,10.048304,0.231170,-0.017274,-0.004265,0.518799,-0.030518,-10.192871
2.899724,0.164059,0.221539,10.111174,0.237756,0.193488,0.058605,0.701904,0.488281,-11.810303
2.909817,0.071252,0.446671,10.075248,0.144949,0.418619,0.022679,1.220703,1.037598,-13.031006
2.919909,-0.091609,0.506547,9.985435,-0.017913,0.478495,-0.067134,0.976562,1.037598,-11.779785
2.930004,0.001198,0.127535,10.012978,0.074895,0.099483,-0.039591,0.640869,0.793457,-13.061523
2.940098,-0.077838,-0.010778,10.072255,-0.004141,-0.038829,0.019686,-0.305176,-0.183105,-16.052246
2.950192,-0.144899,-0.080233,10.121951,-0.071202,-0.108285,0.069382,-0.640869,-0.122070,-15.594482
2.960285,-0.230521,-0.254471,10.103390,-0.156824,-0.282522,0.050821,-0.732422,-0.213623,-13.153076
2.970381,-0.261057,-0.344284,10.007589,-0.187360,-0.372336,-0.044980,-0.549316,0.000000,-11.993408
2.980474,-0.208965,-0.543071,10.042317,-0.135268,-0.571122,-0.010252,-1.220703,-0.091553,-11.444092
2.990571,-0.384401,-0.564626,10.203981,-0.310704,-0.592678,0.151412,-0.732422,-0.091553,-12.359619
3.000664,-0.417931,-0.532293,10.079440,-0.344234,-0.560345,0.026871,-0.396729,-0.030518,-13.763428
3.010760,-0.780178,-0.303569,10.150692,-0.706481,-0.331620,0.098122,-1.037598,-0.091553,-13.977051
3.020853,-0.926873,-0.257465,10.166259,-0.853176,-0.285516,0.113690,-1.464844,-0.213623,-13.305664
3.030945,-0.920286,-0.302970,10.233918,-0.846589,-0.331022,0.181349,-3.387451,-0.427246,-12.695312
3.041038,-0.896935,-0.055085,10.160870,-0.823238,-0.083137,0.108301,-4.058838,-0.061035,-11.901855
3.051134,-0.926274,0.061073,10.084828,-0.852577,0.033021,0.032259,-2.441406,-0.701904,-10.955811
3.061227,-0.834664,0.222138,9.988429,-0.760967,0.194086,-0.064140,-1.708984,-0.976562,-11.413574
3.071320,-0.923280,0.055684,10.274634,-0.849583,0.027633,0.222065,-0.488281,-0.640869,-10.559082
3.081414,-0.814307,0.387394,10.190209,-0.740610,0.359343,0.137640,-0.305176,-0.518799,-10.467529
3.091507,-0.840053,0.357457,10.106384,-0.766356,0.329405,0.053815,-0.244141,-0.732422,-8.758545
3.101600,-0.759221,0.146695,9.992620,-0.685524,0.118643,-0.059949,1.007080,-0.701904,-7.965088
3.111696,-0.595761,0.068857,9.966874,-0.522064,0.040805,-0.085695,1.098633,-0.366211,-8.331299
3.121788,-0.426912,-0.374821,9.748328,-0.353215,-0.402872,-0.304241,2.655029,0.701904,-7.629395
3.131883,-0.405357,0.410746,9.946516,-0.331660,0.382694,-0.106053,8.117676,2.807617,-7.263184
3.141977,-0.625100,0.411345,9.845925,-0.551403,0.383293,-0.206644,1.708984,0.701904,-2.929688
3.152074,-0.736469,-0.131726,9.854308,-0.662772,-0.159778,-0.198261,2.288818,1.342773,-2.929688
3.162168,-0.627495,-0.215552,10.334509,-0.553798,-0.243603,0.281940,-0.885010,1.312256,-2.349854
3.172263,-0.299377,0.436492,10.724299,-0.225680,0.408441,0.671730,2.868652,2.746582,3.021240
3.182360,-0.313149,0.204175,10.083032,-0.239452,0.176124,0.030463,1.190186,-1.892090,4.150391
3.192457,-0.752036,0.410147,9.666299,-0.678339,0.382095,-0.386270,-3.295898,-1.983643,-1.525879
3.202553,-0.091609,-0.253872,10.441686,-0.017913,-0.281924,0.389117,-7.019043,-1.678467,-1.159668
3.212649,-0.029339,-0.049098,10.072853,0.044358,-0.077150,0.020284,-1.617432,-0.518799,-0.946045
3.222746,0.035925,0.053888,9.929152,0.109622,0.025836,-0.123417,-1.953125,-1.007080,0.671387
3.232841,-0.092807,-0.044907,9.792037,-0.019110,-0.072958,-0.260532,-1.861572,-0.396729,1.861572
3.243100,-0.032333,-0.519719,10.020762,0.041364,-0.547771,-0.031807,-1.312256,0.000000,1.770020
3.253200,0.181423,-0.644859,10.027947,0.255120,-0.672911,-0.024622,1.617432,1.281738,0.579834
3.263297,0.119152,-0.224533,9.899214,0.192849,-0.252585,-0.153355,0.549316,0.457764,0.091553
3.273390,-0.525108,-0.016765,10.036329,-0.451411,-0.044817,-0.016240,-0.701904,0.061035,-0.518799
3.283487,-0.095202,0.027543,9.996213,-0.021505,-0.000509,-0.056356,2.441406,-0.396729,1.098633
3.293581,-0.393382,0.137115,10.198592,-0.319685,0.109063,0.146023,0.518799,-0.305176,0.854492
3.303677,-0.390388,0.285606,10.044712,-0.316691,0.257554,-0.007857,-1.220703,-0.732422,2.838135
3.313771,-0.131726,0.160466,10.089619,-0.058029,0.132415,0.037049,-0.579834,-0.885010,2.197266
3.323867,-0.030536,0.272433,10.138716,0.043160,0.244382,0.086147,1.739502,-0.549316,0.976562
3.333964,-0.205373,0.322729,9.948312,-0.131676,0.294677,-0.104257,1.068115,-0.732422,0.640869
3.344062,-0.133522,0.080832,10.140513,-0.059825,0.052780,0.087944,0.671387,-1.098633,-1.495361
3.354158,-0.280816,0.096998,10.066267,-0.207119,0.068947,0.013698,2.044678,-0.061035,-3.143311
3.364255,-0.309556,-0.102986,9.891431,-0.235859,-0.131038,-0.161138,2.716064,0.518799,-3.021240
3.374352,-0.171843,-0.224533,9.822574,-0.098146,-0.252585,-0.229995,-2.197266,-0.122070,-5.889893
3.384449,-0.110171,-0.007784,9.997410,-0.036474,-0.035835,-0.055159,-1.129150,0.244141,-8.941650
3.394545,-0.079036,0.427511,10.059082,-0.005339,0.399459,0.006513,2.075195,0.915527,-9.582520
3.404638,-0.190404,0.164059,9.992021,-0.116707,0.136007,-0.060548,0.152588,1.373291,-2.349854
3.414735,-0.026944,-0.049098,9.790840,0.046753,-0.077150,-0.261729,-0.610352,0.549316,-3.967285
3.424831,-0.025746,0.012574,10.074051,0.047951,-0.015478,0.021482,-2.807617,-0.061035,-8.300781
3.434928,-0.483794,0.232317,10.086625,-0.410097,0.204265,0.034056,-5.706787,0.000000,-10.192871
3.445024,-0.637075,-0.019759,10.188413,-0.563378,-0.047811,0.135844,-4.089355,-0.152588,-13.458252
3.455121,-0.182620,0.189207,9.987231,-0.108923,0.161155,-0.065338,0.457764,-0.305176,-12.298584
3.465217,0.000000,0.092807,10.301578,0.073697,0.064755,0.249009,1.190186,-0.213623,-9.735107
3.475315,-0.149689,0.321531,10.051897,-0.075992,0.293480,-0.000672,0.762939,-0.946045,-11.505127
3.485412,-0.349673,0.301772,10.074051,-0.275976,0.273721,0.021482,1.129150,-1.037598,-12.145996
3.495510,-0.546663,0.004191,10.104587,-0.472966,-0.023860,0.052018,0.488281,-0.793457,-9.490967
3.505607,-0.271236,-0.047900,10.084828,-0.197539,-0.075952,0.032259,0.976562,-0.671387,-7.171631
3.515704,-0.119751,0.111368,10.083631,-0.046054,0.083317,0.031062,0.854492,-0.915527,-3.814697
3.525801,-0.394579,0.092208,10.096205,-0.320882,0.064157,0.043636,0.762939,-0.457764,-2.502441
3.535897,-0.135319,0.198787,9.829759,-0.061622,0.170735,-0.222810,-0.549316,-0.244141,-0.640869
3.545993,0.082029,0.319136,10.044113,0.155726,0.291085,-0.008456,-0.335693,0.183105,-1.983643
3.556090,0.226329,0.389789,10.005194,0.300026,0.361738,-0.047375,-0.030518,-0.061035,-4.119873
3.566186,-0.065264,0.641266,10.124346,0.008433,0.613215,0.071777,-0.030518,0.122070,-7.781982
3.576284,-0.285007,0.391586,10.268047,-0.211310,0.363534,0.215478,0.579834,0.671387,-7.965088
3.586380,-0.229922,0.110770,10.149494,-0.156225,0.082718,0.096925,-1.739502,-0.549316,-7.720947
3.596478,-0.349673,0.047302,10.085427,-0.275976,0.019250,0.032858,-1.220703,-0.701904,-8.148193
3.606575,-0.484991,0.079634,10.018965,-0.411294,0.051583,-0.033604,-2.166748,-0.976562,-5.401611
3.616671,-0.360450,-0.097597,9.940529,-0.286753,-0.125649,-0.112041,-1.678467,-0.732422,-2.716064
3.626768,-0.374821,-0.207768,10.235715,-0.301124,-0.235820,0.183146,-0.854492,-0.396729,-0.976562
3.636865,-0.242496,-0.088616,10.221345,-0.168799,-0.116667,0.168776,3.570557,0.518799,1.739502
3.646962,-0.296384,-0.289199,10.127939,-0.222687,-0.317250,0.075370,1.159668,0.823975,3.631592
3.657058,-0.640668,-0.060474,10.177037,-0.566971,-0.088526,0.124468,-0.885010,1.434326,3.967285
3.667155,-0.313748,-0.356259,10.163864,-0.240051,-0.384311,0.111295,-3.845215,0.976562,5.126953
3.677253,-0.296384,-0.249082,9.913585,-0.222687,-0.277134,-0.138984,-3.479004,1.007080,7.049561
3.687349,0.015568,-0.290995,10.032737,0.089265,-0.319047,-0.019832,-1.556396,0.976562,6.683350
3.697446,-0.087418,-0.338297,10.126741,-0.013721,-0.366348,0.074172,-1.831055,1.220703,6.591797
3.707543,-0.585582,-0.206570,10.015972,-0.511885,-0.234622,-0.036597,0.244141,1.739502,6.286621
3.717639,-0.402962,-0.177830,10.184222,-0.329265,-0.205882,0.131653,0.579834,1.037598,7.629395
3.727736,-0.537083,-0.146695,10.020762,-0.463386,-0.174747,-0.031807,0.946045,0.762939,9.643555
3.737829,-0.543669,-0.111368,10.046508,-0.469972,-0.139420,-0.006061,1.190186,0.335693,9.735107
3.747926,-0.569416,-0.022753,9.975256,-0.495719,-0.050804,-0.077313,0.305176,-0.366211,11.169434
3.758023,-0.352667,-0.074246,10.101594,-0.278970,-0.102297,0.049025,0.640869,-0.732422,11.566162
3.768118,-0.292192,-0.064666,9.902208,-0.218495,-0.092717,-0.150361,1.678467,0.244141,11.230469
3.778215,-0.534688,-0.005389,10.112970,-0.460991,-0.033440,0.060401,0.915527,0.488281,10.833740
3.788309,-0.315544,-0.050894,9.768087,-0.241847,-0.078946,-0.284482,0.854492,0.274658,9.857178
3.798406,0.241897,-0.225132,10.329120,0.315594,-0.253184,0.276551,-0.549316,-0.122070,7.568359
3.808502,-0.172441,-0.200583,10.181228,-0.098744,-0.228635,0.128659,-0.091553,-0.091553,6.072998
3.818599,-0.037722,0.089813,9.818981,0.035975,0.061762,-0.233588,-0.488281,0.579834,4.394531
3.828694,-0.357457,0.213157,10.037527,-0.283760,0.185105,-0.015042,-0.701904,0.030518,3.448486
3.838790,-0.302970,-0.019759,10.037527,-0.229273,-0.047811,-0.015042,0.061035,-0.183105,1.922607
3.848888,-0.171843,0.232916,9.832753,-0.098146,0.204864,-0.219816,-0.610352,0.122070,1.312256
3.858983,-0.471819,0.080233,10.084828,-0.398122,0.052181,0.032259,-0.183105,1.190186,0.396729
3.869080,-0.374821,-0.058079,10.041718,-0.301124,-0.086131,-0.010851,1.464844,1.739502,-1.983643
3.879176,-0.161065,0.274230,9.946516,-0.087368,0.246178,-0.106053,1.525879,1.129150,-2.349854
3.889268,-0.590971,0.220342,10.046508,-0.517274,0.192290,-0.006061,-0.427246,-0.030518,-3.540039
3.899365,-0.407153,0.110770,10.045909,-0.333456,0.082718,-0.006660,0.671387,-0.610352,-4.058838
3.909458,-0.104782,-0.006586,10.006990,-0.031085,-0.034638,-0.045579,-0.549316,-0.915527,-3.356934
3.919551,-0.203577,-0.178429,10.124346,-0.129880,-0.206481,0.071777,-0.091553,-0.640869,-3.295898
3.929644,-0.076042,-0.192799,10.144105,-0.002345,-0.220851,0.091536,-2.105713,-1.190186,-5.340576
3.939737,0.102986,-0.131127,9.971065,0.176683,-0.159179,-0.081504,1.953125,-2.136230,-7.537842
3.949830,0.158071,-0.106578,9.921368,0.231768,-0.134630,-0.131201,1.312256,-2.166748,-7.171631
3.959927,-0.108375,-0.120350,10.068063,-0.034678,-0.148401,0.015494,0.976562,-1.037598,-7.965088
3.970024,-0.031135,-0.386197,10.112970,0.042562,-0.414249,0.060401,0.152588,-0.915527,-7.781982
3.980117,0.138312,-0.416733,10.048304,0.212009,-0.444785,-0.004265,0.335693,-0.823975,-6.713867
3.990214,-0.020358,-0.462239,10.082433,0.053339,-0.490290,0.029864,1.098633,-0.396729,-6.439209
4.000306,-0.211360,-0.195793,10.066866,-0.137663,-0.223845,0.014297,2.807617,0.976562,-6.469727
4.010403,-0.288001,-0.083826,10.003997,-0.214304,-0.111877,-0.048572,2.288818,1.495361,-3.570557
4.020496,-0.434696,-0.018561,10.012379,-0.360999,-0.046613,-0.040190,0.366211,1.617432,-1.220703
4.030591,-0.288600,-0.090412,9.989626,-0.214903,-0.118464,-0.062943,-1.434326,0.396729,0.213623
4.040684,-0.335901,0.025148,9.877659,-0.262204,-0.002904,-0.174910,-2.502441,0.152588,0.213623
4.050779,-0.599952,-0.146096,10.161469,-0.526255,-0.174148,0.108900,-2.624512,-0.091553,-1.098633
4.060873,-0.071851,0.053289,10.183024,0.001846,0.025238,0.130455,-2.380371,-0.335693,-0.549316
4.070969,-0.179626,0.146695,10.123748,-0.105929,0.118643,0.071178,-1.861572,0.823975,1.556396
4.081062,-0.423918,0.180225,10.111772,-0.350221,0.152174,0.059203,-2.532959,0.518799,1.922607
4.091159,-0.422721,-0.122146,10.136920,-0.349024,-0.150198,0.084351,-2.960205,-0.183105,1.098633
4.101252,-0.187410,0.204175,10.120754,-0.113713,0.176124,0.068185,-0.671387,-0.762939,0.915527
4.111348,0.028141,0.188009,10.002799,0.101838,0.159957,-0.049770,-0.762939,-0.061035,2.014160
4.121442,-0.014969,0.000599,10.099199,0.058728,-0.027453,0.046630,0.762939,1.037598,1.831055
4.131538,-0.034129,-0.071252,10.072853,0.039568,-0.099303,0.020284,0.793457,1.373291,1.190186
4.141631,-0.118553,0.096998,10.015972,-0.044856,0.068947,-0.036597,0.671387,0.457764,0.427246
4.151727,0.003593,0.073048,10.094409,0.077290,0.044996,0.041839,1.861572,0.091553,0.518799
4.161819,-0.164658,0.237706,10.039922,-0.090961,0.209654,-0.012647,1.586914,-0.122070,1.678467
4.171916,-0.188608,0.192799,9.845925,-0.114911,0.164747,-0.206644,-0.152588,-0.793457,4.943848
4.182011,0.137714,0.026345,10.193203,0.211411,-0.001706,0.140634,-0.244141,0.488281,6.530762
4.192106,0.115560,-0.131127,9.972263,0.189257,-0.159179,-0.080307,0.122070,0.793457,4.669189
4.202199,-0.104183,0.083826,10.120155,-0.030486,0.055774,0.067586,0.335693,0.671387,4.150391
4.212292,-0.273631,-0.166454,9.878857,-0.199934,-0.194506,-0.173712,0.488281,-0.701904,6.469727
4.222388,0.069456,-0.304766,10.085427,0.143153,-0.332818,0.032858,2.502441,-1.464844,8.392334
4.232481,0.011975,-0.196990,9.973460,0.085672,-0.225042,-0.079109,3.387451,-1.770020,10.467529
4.242577,-0.316741,-0.276026,9.935739,-0.243044,-0.304078,-0.116831,1.464844,0.152588,12.237549
4.252673,-0.058678,-0.251477,10.203981,0.015019,-0.279529,0.151412,-1.312256,0.488281,13.946533
4.262769,-0.047302,-0.231119,10.101594,0.026395,-0.259171,0.049025,-0.396729,0.335693,14.526367
4.272865,0.160466,-0.158071,10.041718,0.234163,-0.186123,-0.010851,0.305176,0.213623,14.038086
4.282961,-0.022154,-0.014370,10.065668,0.051543,-0.042422,0.013099,-1.159668,-1.190186,11.688232
4.293057,0.023950,-0.185015,10.077045,0.097647,-0.213067,0.024476,-0.183105,-0.152588,11.169434
4.303154,0.060474,-0.245490,9.937535,0.134171,-0.273541,-0.115034,-1.495361,2.746582,14.312744
4.313249,0.041314,-0.400567,9.984836,0.115011,-0.428619,-0.067733,-0.061035,2.655029,13.336182
4.323344,0.019759,-0.208367,9.878857,0.093456,-0.236418,-0.173712,1.037598,3.204346,12.207031
4.333442,0.070653,-0.052690,10.150692,0.144350,-0.080742,0.098122,1.617432,1.953125,11.230469
4.343541,0.479004,0.182620,9.946516,0.552701,0.154569,-0.106053,0.732422,1.495361,10.284424
4.353638,0.167053,0.246687,9.959689,0.240750,0.218635,-0.092880,1.220703,0.732422,7.659912
4.363734,-0.282612,0.236508,9.836944,-0.208915,0.208457,-0.215625,0.366211,0.671387,8.789062
4.373830,-0.297581,-0.052092,9.811198,-0.223884,-0.080143,-0.241372,0.152588,-0.030518,11.535645
4.383926,0.285007,-0.428708,10.015373,0.358704,-0.456760,-0.037196,3.173828,0.946045,12.756348
4.394020,0.352667,1.136437,10.375823,0.426364,1.108385,0.323254,7.141113,2.136230,14.343262
4.404116,0.081431,0.584385,9.766890,0.155128,0.556333,-0.285679,3.265381,0.610352,12.084961
4.414210,-0.077239,0.461640,10.043514,-0.003542,0.433588,-0.009055,0.366211,0.122070,11.230469
4.424305,0.120350,0.200583,9.904005,0.194047,0.172531,-0.148565,1.800537,0.946045,1.312256
4.434402,-0.435295,0.249082,9.875863,-0.361598,0.221030,-0.176706,1.800537,1.678467,-1.312256
4.444585,-0.551453,0.244292,10.024953,-0.477756,0.216240,-0.027616,-1.281738,2.014160,-3.753662
4.454685,-0.214953,0.290396,9.940529,-0.141256,0.262344,-0.112041,-2.075195,1.678467,-2.960205
4.464781,-0.040117,0.185015,10.101594,0.033580,0.156964,0.049025,-1.708984,0.549316,-3.601074
4.474878,-0.437690,0.277224,10.061477,-0.363993,0.249172,0.008908,-1.251221,-0.335693,-5.676270
4.484975,-0.544867,0.135319,9.835148,-0.471170,0.107267,-0.217421,-0.946045,-0.488281,-6.103516
4.495070,-0.456251,0.070054,10.047706,-0.382554,0.042003,-0.004863,-0.915527,0.183105,-5.432129
4.505167,-0.247885,0.099393,10.065668,-0.174188,0.071342,0.013099,-0.244141,0.305176,-5.676270
4.515262,-0.111967,0.221539,10.155482,-0.038270,0.193488,0.102912,-2.563477,-1.220703,-7.141113
4.525357,-0.502355,0.223336,10.024953,-0.428658,0.195284,-0.027616,-2.838135,-1.831055,-9.796143
4.535454,-0.498763,0.103585,10.238708,-0.425066,0.075533,0.186139,-2.655029,-1.770020,-11.383057
4.545550,-0.385598,0.047302,10.159074,-0.311901,0.019250,0.106505,-1.312256,-1.922607,-10.406494
4.555649,-0.491578,0.116158,10.142908,-0.417881,0.088107,0.090339,-1.220703,-2.136230,-9.857178
4.565744,-0.417332,0.210163,10.009984,-0.343635,0.182111,-0.042585,-0.762939,-2.227783,-5.187988
4.575841,-0.411345,0.356858,9.947115,-0.337648,0.328806,-0.105454,0.610352,-1.373291,-3.295898
4.585938,-0.479004,-0.298180,9.929751,-0.405307,-0.326232,-0.122818,0.549316,0.335693,3.356934
4.596035,-0.442480,-0.047900,10.051897,-0.368783,-0.075952,-0.000672,0.366211,1.159668,3.326416
4.606130,-0.698148,-0.314945,10.351274,-0.624451,-0.342997,0.298705,-0.274658,1.647949,4.394531
4.616226,-0.479004,-0.173639,10.277029,-0.405307,-0.201691,0.224460,-0.793457,1.190186,5.493164
4.626322,-0.379012,-0.076641,10.032138,-0.305315,-0.104692,-0.020431,-0.061035,0.701904,6.805420
4.636418,-0.770598,-0.081431,10.163265,-0.696901,-0.109482,0.110696,1.098633,-1.373291,8.331299
4.646514,-0.507145,-0.042512,10.050101,-0.433448,-0.070563,-0.002468,1.800537,-1.281738,8.880615
4.656610,-0.524509,-0.028141,10.087224,-0.450812,-0.056193,0.034654,0.793457,-0.091553,10.986328
4.666705,-0.379012,0.224533,9.986633,-0.305315,0.196481,-0.065936,0.488281,0.579834,10.131836
4.676801,-0.381407,0.016166,9.748927,-0.307710,-0.011885,-0.303642,-0.488281,0.640869,7.904053
4.686898,-0.468825,0.156874,10.398576,-0.395128,0.128822,0.346007,-0.549316,2.441406,8.911133
4.696993,-0.236508,0.176034,10.159673,-0.162811,0.147982,0.107104,-1.068115,1.953125,9.063721
4.707089,-0.297581,0.098196,10.028546,-0.223884,0.070144,-0.024024,-3.723145,1.434326,2.838135
4.717185,-0.238304,0.179028,10.153087,-0.164607,0.150976,0.100517,-2.197266,1.434326,-0.030518
4.727282,-0.342488,-0.119751,10.215357,-0.268791,-0.147803,0.162788,0.305176,0.152588,-1.342773
4.737379,-0.579595,-0.322130,10.137519,-0.505898,-0.350182,0.084950,-0.091553,0.274658,-1.281738
4.747475,-0.389789,0.407752,10.068063,-0.316092,0.379700,0.015494,2.197266,1.586914,2.655029
4.757571,-0.364642,0.061073,10.220746,-0.290945,0.033021,0.168177,0.671387,0.579834,1.831055
4.767666,-0.189207,-0.422721,10.106384,-0.115510,-0.450773,0.053815,0.579834,-0.427246,-1.098633
4.777762,-0.579595,-0.196990,10.047107,-0.505898,-0.225042,-0.005462,0.885010,-0.701904,-5.249023
4.787859,-0.714315,-0.189207,10.256072,-0.640618,-0.217258,0.203503,-0.610352,-1.861572,-7.232666
4.797955,-0.308359,-0.113165,9.857302,-0.234662,-0.141216,-0.195267,-0.885010,-1.434326,-4.791260
4.808048,-0.470023,-0.448467,9.923763,-0.396326,-0.476519,-0.128806,-1.007080,-1.464844,-4.486084
4.818141,-0.535886,-0.054487,9.967473,-0.462189,-0.082538,-0.085097,-1.068115,0.579834,-3.448486
4.828237,-0.369432,-0.182620,10.192604,-0.295735,-0.210672,0.140035,-0.579834,0.305176,-1.373291
4.838371,-0.559836,0.293989,9.966874,-0.486139,0.265937,-0.085695,0.213623,0.030518,3.631592
4.848467,-0.491578,0.296982,10.005793,-0.417881,0.268931,-0.046776,0.335693,0.518799,3.662109
4.858563,-0.730481,-0.056283,10.191407,-0.656784,-0.084335,0.138838,0.122070,0.000000,5.859375
4.868659,-0.448467,-0.274828,9.928553,-0.374770,-0.302880,-0.124016,0.366211,-0.213623,6.134033
4.878754,-0.474214,-0.404758,10.108180,-0.400517,-0.432810,0.055611,-1.190186,-1.708984,8.361816
4.888850,-0.280217,-0.368833,10.013577,-0.206520,-0.396885,-0.038992,-0.854492,-0.732422,11.322021
4.898947,-0.016765,-0.723296,10.176438,0.056932,-0.751348,0.123869,-0.640869,-0.396729,11.169434
4.909039,0.161065,-0.372426,10.065070,0.234762,-0.400477,0.012501,0.915527,0.946045,8.728027
4.919136,-0.141306,-0.374222,9.838141,-0.067609,-0.402273,-0.214428,-0.823975,0.396729,7.690430
4.929232,0.328118,-0.699944,10.072853,0.401815,-0.727996,0.020284,-0.701904,1.037598,7.629395
4.939325,0.288600,-0.552052,10.020762,0.362297,-0.580104,-0.031807,0.701904,0.213623,5.798340
4.949418,0.059875,-0.054487,9.792037,0.133572,-0.082538,-0.260532,-0.213623,0.396729,3.662109
4.959511,-0.114961,-0.431104,10.332114,-0.041264,-0.459155,0.279545,-3.051758,0.610352,5.279541
4.969604,0.115560,-0.319735,10.223141,0.189257,-0.347787,0.170572,-3.051758,0.793457,6.744385
4.979698,0.051493,-0.277822,10.129735,0.125190,-0.305874,0.077166,-0.762939,-0.640869,0.701904
4.989791,0.090412,0.141905,10.046508,0.164109,0.113853,-0.006061,1.068115,-0.854492,-2.655029
4.999883,-0.183818,0.392184,9.939331,-0.110121,0.364133,-0.113238,1.159668,-1.159668,-5.340576
5.009977,-0.410746,0.170046,10.159673,-0.337049,0.141995,0.107104,-0.366211,-1.586914,-9.216309
5.020071,-0.003593,0.213755,10.257270,0.070104,0.185704,0.204701,-0.701904,-1.800537,-9.826660
5.030164,-0.136516,0.570613,10.003398,-0.062819,0.542562,-0.049171,0.000000,-0.762939,-12.573242
5.040257,-0.008981,0.511337,9.780062,0.064716,0.483285,-0.272507,0.823975,0.549316,-14.373779
5.050355,-0.193398,0.532293,9.860894,-0.119701,0.504241,-0.191675,-2.807617,0.793457,-15.472412
5.060450,0.098795,0.128732,10.066866,0.172492,0.100681,0.014297,-1.373291,0.030518,-18.585205
5.070546,0.140109,0.018561,10.015373,0.213806,-0.009490,-0.037196,0.183105,0.091553,-17.883301
5.080639,-0.659229,0.606539,9.756112,-0.585532,0.578487,-0.296457,-0.335693,-1.495361,-22.583008
5.090735,-0.413141,0.109572,9.844728,-0.339444,0.081520,-0.207841,-0.671387,-2.563477,-19.927979
5.100828,-0.176034,-0.131726,10.063273,-0.102337,-0.159778,0.010704,-0.518799,-3.204346,-20.324707
5.110921,-0.170645,0.047302,9.601035,-0.096948,0.019250,-0.451535,0.122070,-1.525879,-20.996094
5.121014,0.152682,0.215552,9.845327,0.226379,0.187500,-0.207243,-0.183105,-0.030518,-21.575928
5.131107,0.088017,0.183818,10.022558,0.161714,0.155766,-0.030011,-0.701904,0.122070,-20.202637
5.141199,-0.037123,0.267643,9.953102,0.036574,0.239592,-0.099467,-0.823975,0.030518,-18.890381
5.151294,0.022154,0.317340,9.960287,0.095851,0.289288,-0.092282,0.701904,-0.061035,-17.883301
5.161387,0.143701,0.328716,9.741143,0.217398,0.300665,-0.311426,0.854492,1.281738,-15.899658
5.171479,0.210762,0.355660,9.974059,0.284459,0.327609,-0.078510,-3.173828,0.701904,-16.204834
5.181572,0.535287,0.317340,9.851913,0.608984,0.289288,-0.200656,-4.058838,1.190186,-15.838623
5.191667,0.260458,-0.111967,10.255474,0.334155,-0.140019,0.202905,-1.770020,1.739502,-17.791748
5.201762,0.174238,0.213157,9.829759,0.247935,0.185105,-0.222810,-0.335693,0.732422,-20.446777
5.211859,-0.011376,0.037123,10.224937,0.062321,0.009071,0.172368,-0.549316,0.366211,-15.319824
5.221954,-0.171843,-0.064666,10.174642,-0.098146,-0.092717,0.122073,1.373291,1.159668,-11.322021
5.232050,0.353265,-0.138312,10.030941,0.426962,-0.166364,-0.021629,2.380371,0.000000,-7.446289
5.242144,-0.076641,0.194595,9.692045,-0.002944,0.166544,-0.360524,1.495361,0.671387,-3.631592
5.252239,0.013173,0.076641,9.798025,0.086870,0.048589,-0.254544,0.915527,0.518799,-2.258301
5.262337,0.179028,0.275427,9.687854,0.252725,0.247376,-0.364715,4.211426,1.129150,4.425049
5.272433,0.166454,0.182620,9.864487,0.240151,0.154569,-0.188082,-0.061035,0.640869,6.652832
5.282529,0.283211,0.163460,10.281220,0.356908,0.135408,0.228651,-0.976562,-1.037598,3.692627
5.292625,-0.154479,0.206570,10.111772,-0.080782,0.178519,0.059203,0.610352,-0.915527,3.692627
5.302721,-0.038919,0.153880,9.915980,0.034778,0.125828,-0.136589,0.732422,-0.579834,4.852295
5.312816,-0.145497,0.327519,10.041119,-0.071800,0.299467,-0.011450,3.540039,1.861572,11.871338
5.322911,0.178429,-0.234113,9.772877,0.252126,-0.262165,-0.279692,3.784180,2.227783,16.174316
5.333007,0.626896,-0.134121,10.024354,0.700593,-0.162173,-0.028215,-0.335693,0.579834,8.850098
5.343103,0.233514,0.272433,10.177635,0.307211,0.244382,0.125066,-2.197266,1.251221,11.749268
5.353195,-0.292192,0.122146,10.055490,-0.218495,0.094094,0.002920,-2.807617,1.312256,9.613037
5.363291,0.114961,-0.207768,10.074650,0.188658,-0.235820,0.022081,-2.136230,0.732422,12.115479
5.373383,0.146096,-0.298180,10.299183,0.219793,-0.326232,0.246614,-1.373291,0.305176,14.831543
5.383481,0.000599,-0.399370,9.989028,0.074296,-0.427421,-0.063541,-2.777100,0.244141,13.641357
5.393577,-0.006586,-0.057480,9.902208,0.067111,-0.085532,-0.150361,-2.166748,0.366211,14.068604
5.403673,0.016166,-0.165855,10.287806,0.089863,-0.193907,0.235237,-0.244141,-1.831055,14.221191
5.413770,0.189805,0.078437,9.943522,0.263502,0.050385,-0.109047,-0.213623,-1.159668,11.596680
5.423866,0.255668,-0.016166,9.899813,0.329365,-0.044218,-0.152756,0.427246,-0.701904,7.568359
5.433961,-0.551453,0.134720,9.969868,-0.477756,0.106668,-0.082702,-1.312256,0.335693,5.462646
5.444057,-0.512534,-0.038320,10.017768,-0.438837,-0.066372,-0.034801,-3.692627,1.586914,7.354736
5.454151,-0.001198,-0.088616,9.896221,0.072499,-0.116667,-0.156348,1.892090,2.746582,6.011963
5.464247,0.044907,0.085023,10.044113,0.118604,0.056972,-0.008456,2.593994,2.685547,6.439209
5.474343,-0.352068,0.311951,10.140513,-0.278371,0.283900,0.087944,4.516602,1.617432,3.723145
5.484440,-0.628693,0.292192,10.074650,-0.554996,0.264141,0.022081,-0.335693,0.274658,2.166748
5.494535,-0.216749,-0.102986,10.238708,-0.143052,-0.131038,0.186139,-1.892090,-1.251221,-2.258301
5.504631,-0.106578,-0.262255,10.396181,-0.032881,-0.290306,0.343612,-1.800537,-1.739502,-2.655029
5.514728,-0.157473,0.123344,9.810599,-0.083776,0.095292,-0.241970,-2.014160,0.305176,-4.730225
5.524824,-0.284409,-0.051493,9.684261,-0.210712,-0.079545,-0.368308,-0.915527,0.396729,-6.225586
5.536244,-0.101190,-0.079036,10.041119,-0.027493,-0.107087,-0.011450,1.892090,-0.732422,-10.375977
5.546395,-0.384401,-0.096998,9.747131,-0.310704,-0.125050,-0.305438,3.173828,-0.732422,-6.530762
5.556524,-1.045426,-0.092208,10.033934,-0.971729,-0.120260,-0.018635,-0.061035,-2.532959,-7.141113
5.566614,-0.220342,-0.250280,9.787247,-0.146645,-0.278331,-0.265322,1.159668,-2.990723,-7.324219
5.576708,-0.355660,0.152084,9.743538,-0.281963,0.124032,-0.309031,-0.732422,-2.349854,-4.150391
5.586803,-0.407153,-0.004191,10.286609,-0.333456,-0.032243,0.234040,-2.136230,-0.366211,-5.920410
5.596889,-0.471819,-0.331111,10.078242,-0.398122,-0.359163,0.025673,-2.746582,1.281738,-5.126953
5.606973,-0.546064,-0.325723,10.102791,-0.472367,-0.353774,0.050222,-3.875732,1.739502,-5.706787
5.617056,-1.043630,0.337099,10.224338,-0.969933,0.309047,0.171769,-2.990723,0.335693,-3.540039
5.627140,-0.730481,0.044308,10.150692,-0.656784,0.016256,0.098122,1.373291,-1.098633,6.835938
5.637225,-0.723895,-0.275427,9.860295,-0.650198,-0.303479,-0.192274,2.593994,-1.281738,7.690430
5.647307,-0.083227,-0.184417,9.548344,-0.009530,-0.212468,-0.504225,2.349854,0.457764,6.256104
5.657391,-0.328716,0.102986,9.869277,-0.255019,0.074934,-0.183292,1.770020,1.434326,6.591797
5.667475,-0.181423,0.433499,9.392069,-0.107726,0.405447,-0.660500,5.004883,1.434326,3.326416
5.677559,-0.097597,0.200583,10.393786,-0.023900,0.172531,0.341217,-1.953125,-1.556396,-0.549316
5.687643,-0.048499,0.793949,9.784852,0.025198,0.765897,-0.267717,2.593994,-0.946045,1.129150
5.697733,-0.387394,0.202978,10.153087,-0.313697,0.174926,0.100517,0.732422,0.000000,5.218506
5.707829,-0.261656,-0.396376,10.128538,-0.187959,-0.424427,0.075969,-3.875732,-0.518799,3.967285
5.717925,0.141306,0.050295,10.212363,0.215003,0.022244,0.159794,-2.746582,0.823975,6.378174
5.728021,0.010778,-0.261057,10.027348,0.084475,-0.289109,-0.025221,-3.326416,2.593994,11.932373
5.738116,0.720302,0.094603,9.842932,0.793999,0.066552,-0.209638,-4.669189,2.380371,12.023926
5.748211,0.533491,0.110171,10.141710,0.607188,0.082119,0.089141,-3.387451,-0.244141,10.253906
5.758307,0.229323,0.032333,10.269245,0.303020,0.004281,0.216676,-0.183105,-0.976562,8.056641
5.768402,0.250878,0.231119,9.989028,0.324575,0.203068,-0.063541,-0.762939,0.640869,9.582520
5.778497,0.059277,0.055684,9.848320,0.132974,0.027633,-0.204249,-2.349854,3.082275,11.993408
5.788594,0.339494,-0.114362,9.952504,0.413191,-0.142414,-0.100065,1.068115,3.112793,12.237549
5.798689,0.279619,-0.265847,9.942924,0.353316,-0.293899,-0.109645,2.838135,2.593994,16.479492
5.808784,0.047900,0.107177,10.205178,0.121597,0.079125,0.152609,1.861572,0.610352,12.603760
5.818880,0.271835,-0.245490,9.995614,0.345532,-0.273541,-0.056955,0.518799,-1.190186,4.455566
5.828974,0.173639,-0.064067,10.017768,0.247336,-0.092118,-0.034801,0.488281,-1.129150,3.814697
5.839070,0.222138,-0.273032,10.205178,0.295835,-0.301084,0.152609,-0.671387,0.885010,3.082275
5.849165,0.241298,-0.255070,10.117161,0.314995,-0.283121,0.064592,-0.732422,0.976562,2.655029
5.859258,0.179028,-0.101190,10.090217,0.252725,-0.129241,0.037648,-0.885010,-0.518799,0.518799
5.869354,0.105381,-0.268242,10.005194,0.179078,-0.296294,-0.047375,-1.770020,-0.213623,0.427246
5.879448,-0.099992,-0.121547,10.099797,-0.026295,-0.149599,0.047228,-1.342773,-0.518799,-0.213623
5.889544,0.252675,-0.224533,10.063273,0.326372,-0.252585,0.010704,0.885010,0.457764,-1.312256
5.899640,0.336500,-0.061073,9.877061,0.410197,-0.089125,-0.175509,2.563477,-0.183105,-2.136230
5.909734,-0.094005,-0.108375,10.066267,-0.020308,-0.136426,0.013698,1.190186,-1.312256,-2.502441
5.919829,0.182620,-0.396376,10.104587,0.256317,-0.424427,0.052018,-0.488281,-0.915527,-1.037598
5.929923,0.371228,-0.243693,9.967473,0.444925,-0.271745,-0.085097,0.549316,0.701904,0.701904
5.940015,-0.082029,0.095202,10.125544,-0.008332,0.067150,0.072975,-2.655029,0.518799,0.701904
5.950110,-0.157473,-0.095202,10.103989,-0.083776,-0.123254,0.051420,-3.479004,0.274658,-1.190186
5.960207,0.406555,0.036524,10.126143,0.480252,0.008472,0.073574,-0.579834,-0.518799,1.708984
5.970304,0.240101,0.077838,10.010583,0.313798,0.049786,-0.041986,0.213623,0.030518,1.647949
5.980400,0.286205,-0.106578,10.227931,0.359902,-0.134630,0.175362,1.708984,0.000000,1.800537
5.990496,0.149689,0.064067,10.249486,0.223386,0.036015,0.196917,1.281738,0.640869,3.173828
6.000592,0.123344,-0.140707,10.403366,0.197041,-0.168759,0.350797,2.471924,0.762939,4.150391
6.010688,-0.016765,-0.098196,10.136920,0.056932,-0.126247,0.084351,3.479004,1.037598,3.723145
6.020784,0.261656,0.072449,9.939331,0.335353,0.044398,-0.113238,5.126953,2.014160,3.967285
6.030880,-0.083227,0.180225,9.987830,-0.009530,0.152174,-0.064739,-1.098633,-0.396729,-2.258301
6.040976,-0.467628,0.363444,9.896819,-0.393931,0.335393,-0.155750,-2.227783,-0.366211,0.976562
6.051072,0.147892,-0.010179,10.086625,0.221589,-0.038230,0.034056,-2.258301,-0.122070,11.260986
6.061168,0.229922,0.118553,9.861493,0.303619,0.090502,-0.191076,-1.159668,-0.305176,12.603760
6.071268,0.276026,-0.208965,10.206974,0.349723,-0.237017,0.154405,1.220703,-1.434326,10.070801
6.081366,0.331111,0.201182,9.969868,0.404808,0.173130,-0.082702,1.281738,-0.244141,10.559082
6.091460,0.120948,-0.040715,9.915381,0.194645,-0.068767,-0.137188,5.218506,1.617432,11.138916
6.101549,0.094603,-0.245490,10.220147,0.168300,-0.273541,0.167578,-1.098633,1.464844,8.026123
6.111639,-0.002395,-0.046104,10.384805,0.071302,-0.074156,0.332236,-3.082275,-0.091553,8.209229
6.121728,-0.250280,0.199984,10.338102,-0.176583,0.171932,0.285533,-3.417969,0.335693,8.117676
6.131818,0.167053,-0.113165,10.275831,0.240750,-0.141216,0.223262,-2.899170,0.305176,8.148193
6.141908,0.131127,-0.210762,10.018367,0.204824,-0.238813,-0.034202,1.983643,-0.976562,6.469727
6.151997,-0.371228,-0.244292,10.042317,-0.297531,-0.272344,-0.010252,1.098633,-1.251221,5.828857
6.162086,-0.353864,-0.319136,9.768087,-0.280167,-0.347188,-0.284482,-0.091553,0.122070,5.249023
6.172175,-0.220342,-0.111368,10.009984,-0.146645,-0.139420,-0.042585,1.922607,1.342773,3.997803
6.182265,-0.305365,0.080832,10.208771,-0.231668,0.052780,0.156202,0.152588,0.976562,4.638672
6.192355,-0.283211,0.270637,9.934541,-0.209514,0.242586,-0.118028,1.312256,1.281738,1.312256
6.202447,-0.054487,0.283810,10.212363,0.019210,0.255758,0.159794,1.190186,1.098633,1.434326
6.212543,-0.062271,0.001198,10.216555,0.011426,-0.026854,0.163985,-0.427246,-0.274658,2.349854
6.222639,0.027543,-0.338895,10.139315,0.101240,-0.366947,0.086746,0.793457,-0.610352,-1.464844
6.232734,-0.040715,0.096400,10.005194,0.032982,0.068348,-0.047375,-1.983643,0.274658,-2.227783
6.242830,-0.743055,-0.028141,10.226135,-0.669358,-0.056193,0.173566,-3.356934,-0.274658,-2.960205
6.252926,0.031135,0.136516,9.956695,0.104832,0.108464,-0.095874,-1.647949,-0.122070,-2.593994
6.263023,0.000000,-0.045505,10.253677,0.073697,-0.073557,0.201108,-2.014160,0.091553,-2.014160
6.273119,0.282014,0.054487,10.090217,0.355711,0.026435,0.037648,0.305176,0.000000,-3.082275
6.283215,0.104782,0.040715,10.041119,0.178479,0.012664,-0.011450,0.244141,0.488281,-4.516602
6.293311,-0.022154,0.095801,9.942924,0.051543,0.067749,-0.109645,0.091553,0.732422,-4.821777
6.303408,0.234113,-0.144899,9.992021,0.307810,-0.172950,-0.060548,1.373291,1.525879,-2.563477
6.313504,-0.002395,-0.142504,10.186018,0.071302,-0.170555,0.133449,0.793457,1.251221,0.000000
6.323601,0.100591,0.244891,10.130933,0.174288,0.216839,0.078364,1.464844,0.335693,0.457764
6.333696,0.272433,0.208367,9.632170,0.346130,0.180315,-0.420399,0.823975,-0.061035,-1.129150
6.343793,-0.144899,-0.307161,10.073452,-0.071202,-0.335213,0.020883,0.152588,0.122070,-3.875732
6.353916,0.217348,-0.083227,10.396780,0.291045,-0.111279,0.344211,-4.089355,-0.457764,-4.913330
6.364012,-0.063468,0.211959,10.510543,0.010229,0.183908,0.457974,-2.685547,-0.610352,-3.570557
6.374108,0.151485,0.101788,10.568024,0.225182,0.073737,0.515455,0.488281,-1.556396,-1.770020
6.384204,-0.092807,-0.078437,9.929152,-0.019110,-0.106489,-0.123417,-0.244141,-2.166748,-2.075195
6.394301,-0.320334,-0.103585,10.156679,-0.246637,-0.131636,0.104110,-1.007080,-1.892090,-0.671387
6.404398,-0.122146,-0.168849,10.026151,-0.048449,-0.196901,-0.026419,-0.610352,-1.739502,2.319336
6.414495,0.620909,0.055085,9.441766,0.694606,0.027034,-0.610803,3.814697,-2.807617,1.220703
6.424591,-0.441282,-0.249082,9.933344,-0.367585,-0.277134,-0.119226,0.549316,-0.732422,-6.072998
6.434687,-0.515528,-0.223336,10.147099,-0.441831,-0.251387,0.094530,-0.732422,-0.885010,-3.601074
6.444780,-0.314945,0.123942,9.942325,-0.241248,0.095891,-0.110244,0.213623,0.457764,5.065918
6.454876,-0.089214,-0.121547,9.865085,-0.015517,-0.149599,-0.187484,-0.518799,-0.152588,7.995605
6.464972,0.000000,-0.162861,9.872869,0.073697,-0.190913,-0.179700,-1.464844,0.366211,9.094238
6.475068,-0.059277,-0.229323,10.111174,0.014420,-0.257375,0.058605,-1.861572,0.457764,8.544922
6.485166,0.032932,-0.474214,10.125544,0.106629,-0.502266,0.072975,-1.342773,0.000000,7.995605
6.495262,-0.038919,-0.244292,10.153087,0.034778,-0.272344,0.100517,0.396729,0.823975,7.629395
6.505351,0.014969,-0.161664,10.154883,0.088666,-0.189715,0.102314,-0.030518,0.488281,7.354736
6.515440,-0.138312,-0.076042,10.092014,-0.064615,-0.104094,0.039444,1.068115,0.305176,8.331299
6.525529,-0.257465,-0.156275,9.936337,-0.183768,-0.184327,-0.116232,0.701904,0.305176,7.171631
6.535619,0.040715,-0.190404,10.047107,0.114412,-0.218456,-0.005462,-0.030518,-0.366211,5.065918
6.545710,0.013173,-0.290396,9.975256,0.086870,-0.318448,-0.077313,0.732422,-0.366211,3.570557
6.555800,-0.050295,-0.217348,9.987231,0.023402,-0.245400,-0.065338,1.342773,-0.396729,1.464844
6.565890,-0.710123,-0.111967,9.960287,-0.636426,-0.140019,-0.092282,0.640869,0.518799,0.671387
6.575981,-0.248483,-0.110171,9.833351,-0.174786,-0.138223,-0.219218,0.244141,0.701904,2.136230
6.586071,-0.265847,-0.184417,10.029743,-0.192150,-0.212468,-0.022826,0.000000,1.556396,3.631592
6.596160,0.031734,-0.302371,9.715397,0.105431,-0.330423,-0.337172,1.281738,1.342773,1.770020
6.606254,0.082029,-0.338895,10.151889,0.155726,-0.366947,0.099320,0.061035,0.946045,-3.723145
6.616351,-0.254471,-0.520917,10.327923,-0.180774,-0.548968,0.275354,-0.854492,0.610352,-2.227783
6.626449,0.134121,-0.517324,10.281819,0.207818,-0.545376,0.229250,-1.434326,-0.183105,-0.976562
6.636545,0.207169,-0.467628,10.151290,0.280866,-0.495679,0.098721,-1.953125,-0.732422,-3.326416
6.646642,0.092807,-0.232916,9.996213,0.166504,-0.260967,-0.056356,0.122070,-1.770020,-4.333496
6.656739,-0.223336,-0.053888,9.936337,-0.149639,-0.081940,-0.116232,0.793457,-2.044678,-2.960205
6.666835,-0.252076,-0.119152,9.939331,-0.178379,-0.147204,-0.113238,0.518799,-1.495361,-1.739502
6.676933,-0.265248,-0.070653,10.060878,-0.191551,-0.098705,0.008309,0.000000,-0.305176,-0.366211
6.687029,-0.346679,-0.296982,10.163265,-0.272982,-0.325034,0.110696,1.098633,-0.122070,-2.868652
6.697126,-0.247286,-0.194595,10.131531,-0.173589,-0.222647,0.078962,1.922607,0.183105,-7.202148
6.707216,-0.607137,-0.094005,10.113569,-0.533440,-0.122056,0.061000,0.854492,-0.091553,-7.232666
6.717306,-0.661624,-0.220342,10.040521,-0.587927,-0.248393,-0.012048,0.213623,0.579834,-9.613037
6.727396,-0.470621,-0.282014,9.929152,-0.396924,-0.310065,-0.123417,-1.098633,0.030518,-11.383057
6.737484,-0.457449,-0.277822,10.003398,-0.383752,-0.305874,-0.049171,-0.457764,-0.457764,-10.589600
6.747573,-0.190404,-0.277224,10.180031,-0.116707,-0.305275,0.127461,-1.586914,0.030518,-11.077881
6.757663,-0.180225,-0.365839,10.194401,-0.106528,-0.393891,0.141832,-1.159668,0.000000,-11.718750
6.767752,-0.213755,-0.082029,10.209370,-0.140058,-0.110081,0.156800,0.549316,0.274658,-9.613037
6.777842,-0.137115,0.013173,9.838141,-0.063418,-0.014879,-0.214428,0.213623,-0.061035,-7.232666
6.787934,-0.313748,-0.294587,9.974059,-0.240051,-0.322639,-0.078510,-0.427246,-0.854492,-7.446289
6.798023,-0.238903,-0.089214,10.039323,-0.165206,-0.117266,-0.013246,0.183105,-0.549316,-7.232666
6.808115,-0.199984,0.080233,10.023157,-0.126287,0.052181,-0.029412,0.457764,0.213623,-7.019043
6.818211,0.167651,-0.404758,10.096804,0.241348,-0.432810,0.044235,-0.549316,0.701904,-9.277344
6.828305,0.079036,-0.262255,10.055490,0.152733,-0.290306,0.002920,-1.892090,1.892090,-9.002686
6.838401,-0.356858,-0.290995,10.105186,-0.283161,-0.319047,0.052617,-0.915527,2.838135,-8.422852
6.848495,-0.085622,-0.138312,9.886042,-0.011925,-0.166364,-0.166527,0.671387,2.716064,-7.049561
6.858589,0.207169,-0.492177,10.137519,0.280866,-0.520228,0.084950,1.770020,2.136230,-6.347656
6.868685,-0.289199,-0.082029,10.484797,-0.215502,-0.110081,0.432228,-0.732422,0.427246,-4.272461
6.878781,-0.119152,-0.043110,9.974658,-0.045455,-0.071162,-0.077911,-0.122070,0.915527,-5.096436
6.888878,0.102986,-0.042512,9.683064,0.176683,-0.070563,-0.369505,-0.610352,-0.762939,-3.295898
6.898974,0.279619,-0.085622,10.207573,0.353316,-0.113674,0.155004,-1.129150,-1.892090,-4.119873
6.909064,0.280217,-0.127535,10.434501,0.353914,-0.155586,0.381932,0.000000,-1.861572,-2.014160
6.919154,0.204175,-0.231718,10.011182,0.277872,-0.259770,-0.041387,1.098633,-0.610352,-1.312256
6.929244,-0.105381,-0.112566,10.015972,-0.031684,-0.140618,-0.036597,0.549316,0.640869,-2.441406
6.939333,-0.248483,-0.323926,10.045311,-0.174786,-0.351978,-0.007258,1.617432,2.258301,-0.946045
6.949428,0.147892,0.131726,10.060878,0.221589,0.103674,0.008309,2.044678,1.647949,0.091553
6.959518,-0.161065,0.004790,10.069261,-0.087368,-0.023262,0.016692,0.030518,-0.335693,1.037598
6.969609,0.164658,0.075443,9.865085,0.238355,0.047391,-0.187484,-0.305176,-0.274658,0.762939
6.979698,-0.063468,0.183219,10.011780,0.010229,0.155167,-0.040789,-1.068115,1.434326,2.441406
6.989787,0.186812,-0.113165,10.305170,0.260509,-0.141216,0.252601,0.122070,2.136230,2.899170
6.999876,0.225132,0.049098,10.246492,0.298829,0.021046,0.193923,0.549316,1.464844,1.251221
7.009969,-0.094603,0.135319,10.009984,-0.020906,0.107267,-0.042585,-0.061035,0.671387,-0.854492
7.020067,-0.122745,-0.017364,10.050101,-0.049048,-0.045416,-0.002468,-1.403809,0.122070,-0.823975
7.030163,0.000000,-0.277822,10.184222,0.073697,-0.305874,0.131653,1.556396,-0.610352,1.861572
7.040258,0.206570,0.116757,10.080637,0.280267,0.088706,0.028068,3.326416,-0.366211,2.471924
7.050354,-0.173639,0.163460,9.927356,-0.099942,0.135408,-0.125213,0.061035,-0.610352,3.234863
7.060450,-0.064666,-0.010778,10.032138,0.009031,-0.038829,-0.020431,-0.946045,-0.610352,4.180908
7.070547,0.153281,-0.076042,10.054292,0.226978,-0.104094,0.001723,-2.716064,-1.007080,5.920410
7.080644,0.027543,-0.200583,10.111772,0.101240,-0.228635,0.059203,-3.234863,-1.800537,4.180908
7.090740,0.055684,-0.105980,9.960287,0.129381,-0.134031,-0.092282,-3.051758,-1.403809,3.479004
7.100853,0.012574,-0.210762,9.957294,0.086271,-0.238813,-0.095275,-3.356934,-0.549316,6.225586
7.110942,-0.096998,-0.159868,10.054292,-0.023301,-0.187919,0.001723,-2.990723,-0.030518,6.958008
7.121032,0.008981,-0.255070,10.044712,0.082678,-0.283121,-0.007857,-3.204346,0.091553,10.528564
7.131122,0.389191,0.062869,10.092014,0.462888,0.034818,0.039444,0.701904,-0.488281,6.439209
7.141211,0.140109,0.384999,9.724977,0.213806,0.356948,-0.327592,3.234863,-0.122070,3.784180
7.151301,0.001796,0.126936,10.053094,0.075493,0.098884,0.000525,3.417969,-0.335693,4.058838
7.161391,0.073048,0.020358,10.144105,0.146745,-0.007694,0.091536,2.563477,-0.610352,4.272461
7.171481,0.046703,-0.214953,9.983040,0.120400,-0.243005,-0.069529,0.793457,0.946045,5.950928
7.181571,0.112566,-0.112566,9.965676,0.186263,-0.140618,-0.086893,-1.098633,0.823975,5.004883
7.191660,0.289199,-0.132325,10.094409,0.362896,-0.160376,0.041839,-0.549316,0.640869,2.380371
7.201750,0.386197,-0.326920,10.087822,0.459894,-0.354972,0.035253,0.823975,0.396729,2.807617
7.211843,0.362247,-0.558638,10.202783,0.435944,-0.586690,0.150214,1.678467,-1.495361,0.152588
7.221941,0.398771,-0.309556,9.969269,0.472468,-0.337608,-0.083300,2.593994,-1.495361,0.946045
7.232038,0.377814,-0.386796,10.011182,0.451511,-0.414847,-0.041387,2.227783,-1.495361,1.831055
7.242134,0.438887,-0.295186,10.060280,0.512584,-0.323238,0.007710,2.349854,-1.434326,3.845215
7.252230,0.436492,-0.396974,10.056687,0.510189,-0.425026,0.004118,-0.152588,-1.434326,3.417969
7.262326,0.559237,-0.172441,9.995015,0.632934,-0.200493,-0.057554,-0.335693,-0.366211,3.692627
7.272423,0.696352,0.248483,10.030941,0.770049,0.220432,-0.021629,0.823975,0.274658,7.263184
7.282520,0.569416,0.224533,10.032737,0.643113,0.196481,-0.019832,-0.244141,0.457764,8.636475
7.292613,0.548459,-0.030536,10.015972,0.622156,-0.058588,-0.036597,-0.610352,0.000000,6.317139
7.302709,0.614921,-0.037123,9.938732,0.688618,-0.065174,-0.113837,1.434326,0.396729,6.347656
7.312806,0.295186,0.376018,9.893227,0.368883,0.347966,-0.159342,-0.335693,0.366211,6.805420
7.322902,0.505948,0.414338,10.075248,0.579645,0.386287,0.022679,-1.403809,0.671387,6.042480
7.332997,0.451461,0.198787,10.217153,0.525158,0.170735,0.164584,-1.251221,0.579834,3.753662
7.343094,0.319136,0.285606,10.227931,0.392833,0.257554,0.175362,-1.770020,0.946045,2.990723
7.353190,0.558638,0.095801,9.959689,0.632335,0.067749,-0.092880,-1.556396,0.305176,0.854492
7.363286,0.437690,0.211959,9.906998,0.511387,0.183908,-0.145571,-0.457764,0.671387,-1.190186
7.373383,0.600551,-0.150886,9.989028,0.674248,-0.178938,-0.063541,0.823975,0.122070,-5.249023
7.383479,0.291594,-0.220342,10.069261,0.365291,-0.248393,0.016692,1.678467,-0.213623,-7.110596
7.393574,0.192200,-0.150886,10.191407,0.265897,-0.178938,0.138838,2.716064,-0.305176,-7.385254
7.403671,0.507145,-0.251477,10.096804,0.580842,-0.279529,0.044235,2.655029,-0.488281,-9.033203
7.413767,0.551453,-0.109572,10.074051,0.625150,-0.137624,0.021482,1.770020,-1.007080,-10.284424
7.423864,-0.176034,-0.266446,10.025552,-0.102337,-0.294498,-0.027017,0.915527,-1.556396,-13.061523
7.433960,0.014370,-0.031734,10.100995,0.088067,-0.059786,0.048426,0.885010,-1.373291,-10.070801
7.444056,-0.008383,-0.050894,10.017169,0.065314,-0.078946,-0.035400,0.854492,-1.312256,-4.180908
7.454153,-0.085023,-0.030536,10.041718,-0.011326,-0.058588,-0.010851,0.274658,-0.976562,-5.157471
7.464250,0.017364,-0.042512,10.075847,0.091061,-0.070563,0.023278,-0.244141,-0.823975,-4.302979
7.474443,0.253273,-0.176034,10.102192,0.326970,-0.204086,0.049623,-1.190186,-0.640869,-1.403809
7.484539,0.207169,-0.212558,10.069860,0.280866,-0.240610,0.017291,-0.396729,-0.518799,-1.861572
7.494636,0.000000,-0.235311,10.087822,0.073697,-0.263362,0.035253,0.152588,-1.342773,-2.868652
7.504732,0.016765,-0.076042,10.025552,0.090462,-0.104094,-0.027017,0.488281,-1.647949,-1.037598
7.514823,0.233514,0.052092,10.023157,0.307211,0.024040,-0.029412,0.701904,-1.129150,5.187988
7.524913,0.073647,0.038919,10.006990,0.147344,0.010867,-0.045579,-0.488281,-0.732422,5.371094
7.535002,0.196990,-0.022154,9.899214,0.270687,-0.050206,-0.153355,1.007080,0.640869,7.568359
7.545092,0.106578,0.211959,9.939331,0.180275,0.183908,-0.113238,-0.854492,0.793457,9.552002
7.555182,0.243094,0.169448,10.008188,0.316791,0.141396,-0.044381,-0.732422,0.885010,8.789062
7.565272,0.338895,0.037722,10.015373,0.412592,0.009670,-0.037196,-0.396729,0.732422,7.690430
7.575361,0.308359,0.007784,9.978250,0.382056,-0.020268,-0.074319,-0.030518,1.129150,7.690430
7.585451,0.683778,-0.048499,10.180629,0.757475,-0.076551,0.128060,1.281738,0.976562,9.185791
7.595541,0.334704,-0.047302,10.200987,0.408401,-0.075353,0.148418,1.739502,0.793457,7.110596
7.605631,0.176633,-0.197589,9.983639,0.250330,-0.225641,-0.068930,0.549316,0.274658,5.981445
7.615726,0.309556,-0.012574,10.057286,0.383253,-0.040626,0.004717,0.518799,-0.305176,5.981445
7.625823,0.178429,0.152682,9.941726,0.252126,0.124631,-0.110843,0.213623,-0.732422,4.150391
7.635919,0.389789,-0.031135,10.105785,0.463486,-0.059187,0.053216,1.312256,-1.373291,6.530762
7.646016,0.032333,-0.061672,10.015972,0.106030,-0.089723,-0.036597,1.831055,-1.342773,5.645752
7.656112,0.386796,-0.166454,9.979448,0.460493,-0.194506,-0.073121,1.098633,-1.251221,3.784180
7.666208,0.310155,-0.193997,10.034533,0.383852,-0.222048,-0.018036,0.640869,-1.373291,3.570557
7.676305,0.246687,-0.115560,10.062076,0.320384,-0.143611,0.009507,0.274658,-1.068115,3.448486
7.686400,0.254471,-0.102986,10.066267,0.328168,-0.131038,0.013698,0.396729,-0.793457,3.967285
7.696496,0.324525,-0.218546,10.095007,0.398222,-0.246597,0.042438,0.518799,-0.549316,4.455566
7.706593,0.092807,-0.076641,9.993219,0.166504,-0.104692,-0.059350,0.305176,-0.396729,4.241943
7.716689,0.155078,-0.085622,10.089619,0.228775,-0.113674,0.037049,0.152588,-0.518799,4.241943
7.726785,0.365240,-0.132924,10.037527,0.438937,-0.160975,-0.015042,0.671387,-0.488281,5.401611
7.736882,0.055684,-0.026345,9.996213,0.129381,-0.054397,-0.056356,-0.152588,-0.915527,3.570557
7.746978,0.279020,-0.189207,10.064471,0.352717,-0.217258,0.011902,-0.518799,-2.014160,3.356934
7.757074,0.190404,-0.099393,10.039323,0.264101,-0.127445,-0.013246,0.091553,-2.136230,2.166748
7.767167,0.114362,-0.168250,10.021959,0.188059,-0.196302,-0.030610,0.091553,-2.410889,1.525879
7.777263,0.099393,-0.015568,10.015373,0.173090,-0.043619,-0.037196,0.518799,-2.227783,1.892090
7.787360,0.203577,-0.060474,10.059681,0.277274,-0.088526,0.007112,0.640869,-1.922607,2.624512
7.797456,0.159868,-0.040117,9.984238,0.233565,-0.068168,-0.068331,0.396729,-1.647949,2.899170
7.807553,0.109572,-0.007185,10.020163,0.183269,-0.035237,-0.032406,0.457764,-1.495361,2.655029
7.817651,0.185015,-0.083227,10.018965,0.258712,-0.111279,-0.033604,-0.213623,-1.403809,2.655029
7.827747,0.273032,-0.074844,10.041718,0.346729,-0.102896,-0.010851,0.000000,-1.464844,1.556396
7.837843,0.260458,-0.211360,10.068063,0.334155,-0.239412,0.015494,0.640869,-1.129150,1.861572
7.847940,0.204774,-0.052092,10.024953,0.278471,-0.080143,-0.027616,0.640869,-0.946045,1.556396
7.858037,0.143102,-0.035327,10.052496,0.216799,-0.063378,-0.000073,0.274658,-0.793457,1.281738
7.868133,0.295785,-0.111368,10.081835,0.369482,-0.139420,0.029266,-0.152588,-1.007080,3.112793
7.878229,0.237706,0.000000,9.980046,0.311403,-0.028052,-0.072523,0.854492,-0.976562,3.356934
7.888326,0.304766,-0.079036,10.057885,0.378463,-0.107087,0.005315,0.061035,-1.342773,3.540039
7.898422,0.386197,0.019160,10.057286,0.459894,-0.008892,0.004717,0.396729,-1.251221,3.143311
7.908519,0.273032,-0.001198,10.066866,0.346729,-0.029249,0.014297,0.000000,-0.671387,2.136230
7.918610,0.259860,-0.129331,10.091415,0.333557,-0.157383,0.038846,0.183105,-0.518799,2.197266
7.928700,0.404758,-0.016166,10.079440,0.478455,-0.044218,0.026871,0.274658,-0.244141,2.532959
7.938790,0.193997,0.005389,9.980645,0.267694,-0.022663,-0.071924,0.488281,0.030518,1.434326
7.948879,0.301174,-0.164658,10.096804,0.374871,-0.192709,0.044235,0.000000,0.091553,1.068115
7.958969,0.283810,-0.047900,10.027947,0.357507,-0.075952,-0.024622,0.244141,0.274658,-1.220703
7.969058,0.118553,0.044308,10.029743,0.192250,0.016256,-0.022826,0.671387,0.183105,-1.983643
7.979146,-0.029339,0.031135,10.023755,0.044358,0.003084,-0.028814,0.152588,0.061035,-0.976562
7.989236,0.174238,-0.051493,10.033934,0.247935,-0.079545,-0.018635,0.000000,0.030518,-0.396729
7.999325,0.295785,-0.047302,10.060280,0.369482,-0.075353,0.007710,-0.305176,0.000000,-0.396729
8.009413,-0.028740,-0.007784,10.002799,0.044957,-0.035835,-0.049770,-0.671387,0.122070,-1.586914
8.019508,0.125140,-0.083826,10.027947,0.198837,-0.111877,-0.024622,-0.823975,-0.030518,-1.739502
8.029604,0.121547,-0.008981,10.025552,0.195244,-0.037033,-0.027017,-0.610352,-0.061035,-1.983643
8.039700,0.174238,-0.028141,10.050699,0.247935,-0.056193,-0.001870,-0.701904,-0.122070,-2.105713
8.049793,0.061672,0.007185,10.039922,0.135369,-0.020867,-0.012647,-0.793457,-0.122070,-2.044678
8.059889,0.146695,-0.003593,10.030342,0.220392,-0.031644,-0.022227,-1.037598,-0.274658,-1.678467
8.069986,0.092208,0.007784,10.030342,0.165905,-0.020268,-0.022227,-0.976562,-0.122070,-1.464844
8.080083,0.281415,-0.043709,10.041718,0.355112,-0.071761,-0.010851,-1.251221,-0.244141,-2.288818
8.090178,0.261656,-0.037722,10.059681,0.335353,-0.065773,0.007112,-1.190186,-0.335693,-2.868652
8.100274,0.053888,-0.049098,10.060878,0.127585,-0.077150,0.008309,-1.251221,-0.549316,-4.241943
8.110370,0.102986,-0.005988,10.029743,0.176683,-0.034039,-0.022826,-1.037598,-0.579834,-4.150391
8.120466,0.016166,-0.069456,10.056687,0.089863,-0.097507,0.004118,-1.007080,-0.640869,-3.906250
8.130563,0.098196,-0.074844,10.098001,0.171893,-0.102896,0.045432,-0.701904,-0.762939,-3.692627
8.140656,0.028141,-0.040715,10.068063,0.101838,-0.068767,0.015494,-0.610352,-0.762939,-2.288818
8.150752,-0.116757,-0.044308,10.032737,-0.043060,-0.072360,-0.019832,-0.671387,-0.823975,-1.953125
8.160847,0.005988,-0.062869,10.051298,0.079685,-0.090921,-0.001271,-0.671387,-1.098633,-1.281738
8.170943,-0.006586,-0.140109,10.068662,0.067111,-0.168160,0.016093,-0.976562,-1.098633,-0.793457
8.181040,-0.010778,-0.179028,10.096205,0.062919,-0.207079,0.043636,-0.885010,-0.976562,-1.159668
8.191136,-0.195793,-0.188608,10.074650,-0.122096,-0.216659,0.022081,-0.762939,-0.640869,-1.159668
8.201231,-0.188009,-0.114362,10.069261,-0.114312,-0.142414,0.016692,-0.518799,-0.488281,0.061035
8.211327,-0.061073,-0.114362,10.056687,0.012624,-0.142414,0.004118,-0.427246,-0.274658,1.251221
8.221423,0.061672,-0.193398,10.066267,0.135369,-0.221449,0.013698,-0.427246,-0.305176,0.823975
8.231519,0.198188,-0.047302,10.069261,0.271885,-0.075353,0.016692,-0.183105,-0.213623,0.213623
8.241616,0.099393,-0.036524,10.058483,0.173090,-0.064576,0.005914,-0.091553,-0.274658,-1.403809
8.251712,0.011376,-0.074246,10.066267,0.085073,-0.102297,0.013698,-0.061035,-0.213623,-1.098633
8.261808,0.180824,-0.099393,10.062675,0.254521,-0.127445,0.010105,-0.274658,-0.213623,-0.701904
8.271904,0.212558,-0.096400,10.045909,0.286255,-0.124451,-0.006660,-0.061035,-0.274658,-1.342773
8.282000,0.217947,-0.070653,10.054891,0.291644,-0.098705,0.002322,-0.274658,-0.305176,-2.410889
8.292096,0.232317,-0.050894,10.054292,0.306014,-0.078946,0.001723,-0.244141,-0.305176,-2.624512
8.302192,0.221539,-0.070653,10.051298,0.295236,-0.098705,-0.001271,-0.274658,-0.274658,-2.471924
8.312288,0.449665,-0.108375,10.056088,0.523362,-0.136426,0.003519,-0.244141,-0.213623,-1.220703
8.322385,0.526306,-0.075443,10.045909,0.600003,-0.103495,-0.006660,-0.091553,-0.122070,-1.220703
8.332481,0.437091,-0.065264,10.051298,0.510788,-0.093316,-0.001271,-0.122070,-0.061035,-1.556396
8.342577,0.425715,-0.041314,10.048903,0.499412,-0.069366,-0.003666,-0.152588,-0.030518,-1.464844
8.352674,0.356858,-0.039518,10.048903,0.430555,-0.067569,-0.003666,-0.122070,0.030518,-1.281738
8.362769,0.283211,-0.019759,10.047107,0.356908,-0.047811,-0.005462,-0.091553,0.030518,-1.129150
8.372865,0.235311,-0.025746,10.042916,0.309008,-0.053798,-0.009653,-0.091553,0.061035,-0.823975
8.382961,0.141905,-0.037123,10.051298,0.215602,-0.065174,-0.001271,-0.030518,0.061035,-0.671387
8.393056,0.107776,-0.047302,10.051298,0.181473,-0.075353,-0.001271,0.000000,0.061035,-0.549316
8.403152,0.061073,-0.053289,10.053094,0.134770,-0.081341,0.000525,0.061035,0.091553,-0.366211
8.413248,0.049098,-0.057480,10.048304,0.122795,-0.085532,-0.004265,0.061035,0.091553,-0.305176
8.423345,0.024549,-0.065264,10.045909,0.098246,-0.093316,-0.006660,0.061035,0.061035,-0.183105
8.433440,0.017364,-0.069456,10.051298,0.091061,-0.097507,-0.001271,0.061035,0.061035,-0.152588
8.443536,0.013771,-0.071252,10.049502,0.087468,-0.099303,-0.003067,0.061035,0.030518,-0.061035
8.453632,0.006586,-0.071252,10.052496,0.080283,-0.099303,-0.000073,0.030518,0.030518,-0.091553
8.463727,0.002994,-0.073048,10.050101,0.076691,-0.101100,-0.002468,0.000000,0.030518,-0.061035
8.473824,-0.009580,-0.069456,10.060280,0.064117,-0.097507,0.007710,0.030518,0.030518,-0.030518
8.483920,-0.009580,-0.075443,10.065668,0.064117,-0.103495,0.013099,0.030518,0.061035,-0.030518
8.494017,-0.016166,-0.074246,10.065070,0.057531,-0.102297,0.012501,0.030518,0.061035,-0.030518
8.504113,-0.013173,-0.071851,10.059082,0.060524,-0.099902,0.006513,0.030518,0.061035,-0.091553
8.514210,-0.009580,-0.079036,10.059681,0.064117,-0.107087,0.007112,0.000000,0.030518,-0.030518
8.524309,-0.014969,-0.071252,10.056088,0.058728,-0.099303,0.003519,0.000000,0.061035,0.000000
8.534405,-0.011376,-0.070054,10.062675,0.062321,-0.098106,0.010105,0.000000,0.061035,0.000000
8.544502,-0.007784,-0.073048,10.056687,0.065913,-0.101100,0.004118,0.000000,0.061035,-0.030518
8.554599,-0.007185,-0.071252,10.053094,0.066512,-0.099303,0.000525,0.000000,0.030518,-0.030518
8.564696,-0.006586,-0.067659,10.048304,0.067111,-0.095711,-0.004265,0.030518,0.000000,-0.061035
8.574792,-0.008383,-0.061672,10.053094,0.065314,-0.089723,0.000525,0.030518,0.000000,-0.061035
8.584888,-0.009580,-0.062271,10.060280,0.064117,-0.090322,0.007710,0.000000,0.030518,-0.061035
8.594985,-0.006586,-0.064067,10.059681,0.067111,-0.092118,0.007112,0.000000,0.000000,-0.030518
8.605081,-0.016166,-0.068857,10.054292,0.057531,-0.096908,0.001723,0.000000,0.030518,-0.061035
8.615176,-0.013173,-0.066462,10.047706,0.060524,-0.094513,-0.004863,0.000000,0.030518,-0.061035
8.625264,-0.014969,-0.065863,10.050101,0.058728,-0.093915,-0.002468,0.030518,0.030518,-0.030518
8.635354,-0.007185,-0.070054,10.066866,0.066512,-0.098106,0.014297,-0.030518,0.030518,-0.061035
8.645444,-0.008383,-0.067659,10.074051,0.065314,-0.095711,0.021482,0.000000,0.000000,-0.061035
8.655534,-0.011975,-0.068258,10.071656,0.061722,-0.096310,0.019087,-0.030518,0.030518,-0.091553
8.665624,-0.016166,-0.072449,10.064471,0.057531,-0.100501,0.011902,-0.030518,0.030518,-0.091553
8.675715,-0.014370,-0.074246,10.060878,0.059327,-0.102297,0.008309,-0.061035,-0.030518,-0.091553
8.685806,-0.007784,-0.077239,10.067465,0.065913,-0.105291,0.014896,-0.030518,0.000000,-0.061035
8.695896,-0.008383,-0.073647,10.065668,0.065314,-0.101699,0.013099,-0.061035,0.000000,-0.091553
8.705986,-0.008383,-0.075443,10.063273,0.065314,-0.103495,0.010704,-0.091553,0.061035,-0.030518
8.716077,-0.013173,-0.074844,10.063273,0.060524,-0.102896,0.010704,-0.061035,0.061035,-0.061035
8.726169,-0.014370,-0.067061,10.056687,0.059327,-0.095112,0.004118,-0.061035,0.061035,-0.061035
8.736266,-0.013771,-0.067061,10.062076,0.059926,-0.095112,0.009507,-0.091553,0.061035,-0.061035
8.746362,-0.010179,-0.063468,10.062675,0.063518,-0.091520,0.010105,-0.061035,0.030518,-0.030518
8.756459,-0.007185,-0.070054,10.060878,0.066512,-0.098106,0.008309,-0.091553,0.000000,0.000000
8.766556,-0.008383,-0.070054,10.062076,0.065314,-0.098106,0.009507,-0.091553,0.030518,0.030518
8.776650,-0.006586,-0.062271,10.065070,0.067111,-0.090322,0.012501,-0.091553,0.061035,0.030518
8.786747,-0.008383,-0.061672,10.065668,0.065314,-0.089723,0.013099,-0.091553,0.030518,0.061035
8.796844,-0.007185,-0.065264,10.061477,0.066512,-0.093316,0.008908,-0.091553,0.030518,0.030518
8.806939,-0.008981,-0.064666,10.057885,0.064716,-0.092717,0.005315,-0.061035,0.061035,0.030518
8.817032,-0.008981,-0.068258,10.056687,0.064716,-0.096310,0.004118,-0.030518,0.000000,0.000000
8.827123,-0.003593,-0.070054,10.071057,0.070104,-0.098106,0.018488,-0.061035,0.000000,0.000000
8.837214,-0.008981,-0.071252,10.069860,0.064716,-0.099303,0.017291,-0.091553,0.000000,-0.030518
8.847304,-0.014370,-0.077239,10.068662,0.059327,-0.105291,0.016093,-0.091553,0.030518,-0.061035
8.857393,-0.016166,-0.074844,10.068063,0.057531,-0.102896,0.015494,-0.061035,0.061035,0.000000
8.867483,-0.010778,-0.070653,10.064471,0.062919,-0.098705,0.011902,-0.061035,0.091553,0.061035
8.877573,-0.015568,-0.069456,10.068662,0.058129,-0.097507,0.016093,-0.030518,0.091553,0.061035
8.887661,-0.010778,-0.073048,10.065070,0.062919,-0.101100,0.012501,0.000000,0.061035,0.061035
8.897751,-0.005988,-0.077838,10.065070,0.067709,-0.105890,0.012501,-0.030518,0.061035,0.061035
8.907839,-0.008981,-0.076641,10.058483,0.064716,-0.104692,0.005914,-0.061035,0.061035,0.061035
8.917928,-0.007185,-0.080233,10.051298,0.066512,-0.108285,-0.001271,0.000000,0.000000,0.061035
8.928023,-0.007784,-0.074246,10.054891,0.065913,-0.102297,0.002322,0.000000,0.000000,0.061035
8.938119,-0.014969,-0.079036,10.059082,0.058728,-0.107087,0.006513,0.000000,0.000000,0.030518
8.948215,-0.015568,-0.081431,10.063273,0.058129,-0.109482,0.010704,0.000000,0.000000,0.030518
8.958311,-0.008981,-0.076641,10.057286,0.064716,-0.104692,0.004717,-0.030518,0.030518,0.061035
8.968407,-0.018561,-0.073647,10.059082,0.055136,-0.101699,0.006513,0.000000,0.030518,0.000000
8.978504,-0.017963,-0.070653,10.060280,0.055734,-0.098705,0.007710,-0.061035,0.061035,0.030518
8.988600,-0.016166,-0.067659,10.063273,0.057531,-0.095711,0.010704,-0.030518,0.061035,0.030518
8.998696,-0.018561,-0.065264,10.065668,0.055136,-0.093316,0.013099,-0.030518,0.061035,0.030518
9.008792,-0.012574,-0.070653,10.065668,0.061123,-0.098705,0.013099,0.000000,0.091553,0.030518
9.018888,-0.010778,-0.072449,10.063872,0.062919,-0.100501,0.011303,0.000000,0.091553,0.030518
9.028985,-0.015568,-0.068857,10.067465,0.058129,-0.096908,0.014896,0.000000,0.091553,0.000000
9.039081,-0.012574,-0.068258,10.063872,0.061123,-0.096310,0.011303,0.000000,0.091553,0.000000
9.049176,-0.015568,-0.071851,10.059681,0.058129,-0.099902,0.007112,0.000000,0.030518,0.000000
9.059272,-0.019759,-0.074246,10.053693,0.053938,-0.102297,0.001124,-0.030518,0.030518,0.000000
9.069369,-0.013771,-0.073647,10.053094,0.059926,-0.101699,0.000525,-0.030518,0.030518,0.000000
9.079466,-0.020956,-0.074246,10.057286,0.052741,-0.102297,0.004717,0.000000,0.030518,0.030518
9.089562,-0.021555,-0.071851,10.056687,0.052142,-0.099902,0.004118,-0.061035,0.030518,0.030518
9.099658,-0.016765,-0.068258,10.054891,0.056932,-0.096310,0.002322,-0.030518,0.030518,0.000000
9.109754,-0.017963,-0.073647,10.048304,0.055734,-0.101699,-0.004265,-0.061035,0.061035,0.030518
9.119850,-0.019759,-0.076042,10.049502,0.053938,-0.104094,-0.003067,-0.030518,0.061035,0.061035
9.129946,-0.020358,-0.081431,10.059082,0.053339,-0.109482,0.006513,0.000000,0.061035,0.061035
9.140043,-0.014969,-0.079634,10.054891,0.058728,-0.107686,0.002322,0.000000,0.030518,0.061035
9.150139,-0.012574,-0.075443,10.047706,0.061123,-0.103495,-0.004863,0.000000,0.030518,0.030518
9.160235,-0.014370,-0.079036,10.047706,0.059327,-0.107087,-0.004863,0.000000,0.030518,0.000000
9.170330,-0.014370,-0.079634,10.049502,0.059327,-0.107686,-0.003067,0.000000,0.061035,0.030518
9.180426,-0.008981,-0.075443,10.056088,0.064716,-0.103495,0.003519,-0.030518,0.061035,0.061035
9.190522,-0.012574,-0.071851,10.060280,0.061123,-0.099902,0.007710,-0.061035,0.061035,0.061035
9.200619,-0.020956,-0.070653,10.063872,0.052741,-0.098705,0.011303,-0.061035,0.061035,0.061035
9.210715,-0.019160,-0.077838,10.062076,0.054537,-0.105890,0.009507,-0.061035,0.061035,0.091553
9.220811,-0.017364,-0.085622,10.057286,0.056333,-0.113674,0.004717,-0.061035,0.061035,0.122070
9.230908,-0.017963,-0.086221,10.056088,0.055734,-0.114272,0.003519,-0.030518,0.030518,0.152588
9.241004,-0.019160,-0.080832,10.056088,0.054537,-0.108884,0.003519,0.000000,0.061035,0.213623
9.251097,-0.021555,-0.082029,10.052496,0.052142,-0.110081,-0.000073,0.030518,0.030518,0.244141
9.261194,-0.008981,-0.085023,10.052496,0.064716,-0.113075,-0.000073,0.000000,0.030518,0.366211
9.271290,-0.014370,-0.085622,10.048903,0.059327,-0.113674,-0.003666,0.000000,0.030518,0.366211
9.281386,-0.017364,-0.085023,10.048903,0.056333,-0.113075,-0.003666,-0.030518,0.061035,0.457764
9.291483,-0.007784,-0.080233,10.054891,0.065913,-0.108285,0.002322,0.000000,0.030518,0.488281
9.301579,-0.019160,-0.082029,10.058483,0.054537,-0.110081,0.005914,0.000000,0.030518,0.549316
9.311675,-0.009580,-0.073048,10.049502,0.064117,-0.101100,-0.003067,-0.061035,0.030518,0.518799
9.321771,-0.009580,-0.073647,10.051897,0.064117,-0.101699,-0.000672,-0.061035,0.030518,0.488281
9.331868,0.000000,-0.076042,10.056687,0.073697,-0.104094,0.004118,0.000000,0.061035,0.427246
9.341964,0.017963,-0.080832,10.057286,0.091660,-0.108884,0.004717,-0.030518,0.091553,0.488281
9.352060,0.041913,-0.078437,10.051298,0.115610,-0.106489,-0.001271,0.000000,0.091553,0.946045
9.362157,-0.002994,-0.076042,10.054292,0.070703,-0.104094,0.001723,0.000000,0.061035,1.068115
9.372253,0.000599,-0.080832,10.062675,0.074296,-0.108884,0.010105,0.000000,0.061035,1.159668
9.382383,-0.008981,-0.072449,10.072255,0.064716,-0.100501,0.019686,0.030518,0.061035,1.251221
9.392479,-0.006586,-0.068258,10.071057,0.067111,-0.096310,0.018488,0.000000,0.091553,1.220703
9.402575,-0.010179,-0.064666,10.074051,0.063518,-0.092717,0.021482,0.061035,0.091553,1.007080
9.412671,-0.019160,-0.068258,10.071057,0.054537,-0.096310,0.018488,0.061035,0.091553,0.915527
9.422767,-0.026944,-0.068857,10.069261,0.046753,-0.096908,0.016692,0.091553,0.061035,0.671387
9.432864,-0.026345,-0.067659,10.080038,0.047352,-0.095711,0.027469,0.061035,0.030518,0.579834
9.442960,-0.022753,-0.068857,10.073452,0.050944,-0.096908,0.020883,0.061035,0.030518,0.518799
9.453055,-0.011376,-0.072449,10.066267,0.062321,-0.100501,0.013698,0.000000,0.061035,0.396729
9.463151,0.019160,-0.077239,10.057286,0.092857,-0.105291,0.004717,0.000000,0.030518,0.396729
9.473248,0.087418,-0.083826,10.069860,0.161115,-0.111877,0.017291,0.122070,0.061035,1.312256
9.483344,0.049697,-0.085023,10.074650,0.123394,-0.113075,0.022081,0.152588,0.061035,1.617432
9.493440,0.150287,-0.080832,10.066866,0.223984,-0.108884,0.014297,0.152588,0.091553,2.441406
9.503536,0.196990,-0.065863,10.060280,0.270687,-0.093915,0.007710,0.183105,0.122070,2.899170
9.513633,0.210163,-0.066462,10.058483,0.283860,-0.094513,0.005914,0.122070,0.091553,2.532959
9.523729,0.210762,-0.062271,10.053693,0.284459,-0.090322,0.001124,0.152588,0.122070,2.319336
9.533825,0.182620,-0.073647,10.059082,0.256317,-0.101699,0.006513,0.030518,0.122070,2.227783
9.543923,0.257465,-0.080832,10.064471,0.331162,-0.108884,0.011902,0.091553,0.213623,2.807617
9.554020,0.231119,-0.099393,10.065070,0.304816,-0.127445,0.012501,0.061035,0.274658,3.082275
9.564116,0.302371,-0.119152,10.074650,0.376068,-0.147204,0.022081,0.152588,0.305176,3.601074
9.574212,0.292791,-0.108375,10.064471,0.366488,-0.136426,0.011902,0.305176,0.366211,3.631592
9.584308,0.261656,-0.161065,10.065070,0.335353,-0.189117,0.012501,0.549316,0.305176,4.302979
9.594404,0.308359,-0.064067,10.069860,0.382056,-0.092118,0.017291,0.488281,0.305176,4.028320
9.604501,0.393382,-0.052092,10.050101,0.467079,-0.080143,-0.002468,0.244141,0.274658,3.723145
9.614597,0.365839,-0.106578,10.065070,0.439536,-0.134630,0.012501,-0.122070,0.183105,2.685547
9.624693,0.308359,-0.094603,10.051897,0.382056,-0.122655,-0.000672,-0.030518,0.122070,2.838135
9.634785,0.637674,-0.266446,10.080637,0.711371,-0.294498,0.028068,0.030518,0.000000,1.312256
9.644875,0.356259,-0.099992,10.060878,0.429956,-0.128044,0.008309,0.244141,0.000000,0.579834
9.654964,0.313149,-0.104782,10.024953,0.386846,-0.132834,-0.027616,0.213623,0.274658,0.244141
9.665054,0.250280,-0.131127,10.048304,0.323977,-0.159179,-0.004265,0.427246,1.037598,1.800537
9.675144,0.298180,-0.126936,10.056687,0.371877,-0.154988,0.004118,1.129150,1.495361,2.990723
9.685234,0.372426,-0.095202,10.053693,0.446123,-0.123254,0.001124,1.800537,1.556396,2.532959
9.695323,0.299377,-0.188009,10.057885,0.373074,-0.216061,0.005315,1.190186,1.159668,1.342773
9.705413,0.251477,-0.123344,10.034533,0.325174,-0.151395,-0.018036,1.312256,1.037598,1.739502
9.715503,0.171244,-0.092807,10.118958,0.244941,-0.120859,0.066388,1.464844,0.762939,2.227783
9.725592,0.112566,-0.030536,10.032737,0.186263,-0.058588,-0.019832,1.525879,0.854492,3.509521
9.735687,0.299377,-0.209564,10.066866,0.373074,-0.237616,0.014297,1.892090,0.671387,4.364014
9.745783,0.275427,-0.172441,10.093211,0.349124,-0.200493,0.040642,2.288818,0.518799,3.356934
9.755879,0.150287,-0.070653,10.048903,0.223984,-0.098705,-0.003666,1.464844,0.457764,2.349854
9.765975,0.088017,0.011376,10.043514,0.161714,-0.016675,-0.009055,1.647949,0.640869,2.471924
9.776072,0.069456,-0.080233,10.032737,0.143153,-0.108285,-0.019832,0.823975,0.488281,4.272461
9.786169,0.191003,-0.161065,10.076446,0.264700,-0.189117,0.023877,0.366211,0.366211,4.272461
9.796266,0.102387,0.115560,10.030342,0.176084,0.087508,-0.022227,0.396729,0.396729,3.204346
9.806361,0.110770,-0.008981,10.013577,0.184467,-0.037033,-0.038992,-0.488281,0.213623,2.685547
9.816458,0.017364,0.051493,10.041119,0.091061,0.023441,-0.011450,-0.396729,0.274658,3.570557
9.826555,0.192799,0.022154,10.071057,0.266496,-0.005898,0.018488,-0.213623,0.671387,2.349854
9.836651,0.233514,-0.044907,10.076446,0.307211,-0.072958,0.023877,0.061035,0.732422,1.556396
9.846747,0.170645,0.087418,10.003398,0.244342,0.059367,-0.049171,-0.335693,1.800537,-0.701904
9.856843,0.035327,0.016166,10.087822,0.109024,-0.011885,0.035253,0.244141,1.983643,-0.457764
9.866939,0.192200,-0.068258,10.090217,0.265897,-0.096310,0.037648,0.427246,2.014160,-0.305176
9.877035,0.299377,0.036524,10.047107,0.373074,0.008472,-0.005462,0.671387,2.166748,-0.183105
9.887131,0.029339,-0.017364,10.068662,0.103036,-0.045416,0.016093,0.518799,1.770020,0.671387
9.897227,0.235311,-0.083826,10.080038,0.309008,-0.111877,0.027469,0.152588,1.647949,1.190186
9.907323,0.470023,-0.150886,10.014175,0.543720,-0.178938,-0.038394,1.312256,1.770020,1.129150
9.917419,0.088017,0.128134,10.055490,0.161714,0.100082,0.002920,1.068115,1.312256,-2.471924
9.927515,-0.216749,0.073048,10.060280,-0.143052,0.044996,0.007710,0.213623,1.129150,-2.410889
9.937610,0.371228,-0.176034,10.014175,0.444925,-0.204086,-0.038394,-0.762939,1.373291,-0.366211
9.947706,0.568218,-0.177231,10.087224,0.641915,-0.205283,0.034654,-0.274658,1.556396,-1.556396
9.957802,0.811912,-0.143701,9.917776,0.885609,-0.171753,-0.134793,-0.061035,2.044678,-8.514404
9.967898,-0.328118,-0.154479,10.137519,-0.254421,-0.182530,0.084950,-0.213623,1.739502,-7.781982
9.977994,-0.182620,-0.122146,10.106384,-0.108923,-0.150198,0.053815,1.007080,2.166748,-3.265381
9.988091,0.000000,-0.137115,10.065668,0.073697,-0.165167,0.013099,-0.427246,1.556396,0.976562
9.998188,0.199984,-0.244891,10.145303,0.273681,-0.272942,0.092734,0.549316,1.434326,1.983643
10.008284,0.063468,-0.044907,10.074051,0.137165,-0.072958,0.021482,0.427246,0.732422,-0.396729
10.018380,0.065264,0.107776,10.007589,0.138961,0.079724,-0.044980,0.823975,0.823975,0.427246
10.028474,0.080233,0.008981,10.051298,0.153930,-0.019070,-0.001271,0.793457,0.854492,1.586914
10.038570,0.053888,0.214354,10.017768,0.127585,0.186303,-0.034801,1.037598,1.220703,1.983643
10.048666,-0.295785,0.115560,10.074650,-0.222088,0.087508,0.022081,-1.434326,0.701904,3.204346
10.058762,0.217947,-0.004790,10.008188,0.291644,-0.032842,-0.044381,-1.129150,0.854492,3.631592
10.068858,-0.052092,-0.017364,10.082433,0.021605,-0.045416,0.029864,-1.403809,0.915527,2.532959
10.078954,0.163460,-0.013771,10.078841,0.237157,-0.041823,0.026272,-2.075195,1.373291,2.655029
10.089051,0.155676,0.161664,9.965078,0.229373,0.133612,-0.087492,-1.251221,1.403809,2.410889
10.099147,0.243693,0.073647,10.006392,0.317390,0.045595,-0.046177,-2.716064,1.342773,0.823975
10.109244,0.076641,0.180225,10.064471,0.150338,0.152174,0.011902,-3.082275,0.885010,-0.122070
10.119339,-0.102387,-0.022154,10.094409,-0.028690,-0.050206,0.041839,-3.356934,0.274658,-0.396729
10.129435,0.026345,-0.037123,10.157877,0.100042,-0.065174,0.105308,-2.227783,0.122070,-0.732422
10.139531,0.262853,-0.229922,10.137519,0.336550,-0.257974,0.084950,-0.274658,0.183105,-0.640869
10.149628,-0.035327,0.327519,9.954899,0.038370,0.299467,-0.097670,-1.831055,-0.457764,-1.373291
10.159724,0.027543,0.209564,10.068662,0.101240,0.181513,0.016093,-2.929688,-0.427246,0.518799
10.169819,0.467029,-0.034129,10.033336,0.540726,-0.062181,-0.019234,-0.579834,-0.762939,0.335693
10.179915,0.262255,0.085622,10.062675,0.335952,0.057570,0.010105,-0.671387,-0.823975,-0.122070
10.190011,0.271835,-0.059277,10.135723,0.345532,-0.087328,0.083154,0.579834,-0.732422,-1.434326
10.200107,0.365240,0.004191,9.954899,0.438937,-0.023860,-0.097670,1.434326,-0.976562,-1.098633
10.210203,0.492177,-0.056283,10.009385,0.565874,-0.084335,-0.043184,1.983643,-0.762939,-1.922607
10.220300,0.314346,-0.156275,10.115964,0.388043,-0.184327,0.063395,1.495361,-0.274658,-5.462646
10.230395,0.374222,-0.122146,10.114167,0.447919,-0.150198,0.061598,1.220703,0.274658,-5.920410
10.240492,0.183818,-0.213157,10.130334,0.257515,-0.241208,0.077765,-0.793457,0.732422,-6.164551
10.250587,0.421523,-0.252076,9.913585,0.495220,-0.280127,-0.138984,-0.946045,1.068115,-7.293701
10.260683,0.217947,-0.365839,10.069261,0.291644,-0.393891,0.016692,-0.244141,0.518799,-10.009766
10.270779,-0.063468,-0.270038,10.188413,0.010229,-0.298090,0.135844,0.579834,0.427246,-9.552002
10.280876,-0.247286,-0.369432,10.174043,-0.173589,-0.397483,0.121474,0.366211,-0.213623,-5.523682
10.290972,0.246088,-0.476609,10.146500,0.319785,-0.504661,0.093931,0.183105,-0.183105,-4.455566
10.301068,0.297581,-0.004790,10.112970,0.371278,-0.032842,0.060401,0.579834,0.427246,-4.852295
10.311164,0.181423,-0.478405,10.176438,0.255120,-0.506457,0.123869,0.213623,0.610352,-9.735107
10.321261,-0.150287,-0.190404,10.103390,-0.076590,-0.218456,0.050821,1.892090,1.037598,-10.437012
10.331357,-0.426313,-0.044308,10.104587,-0.352616,-0.072360,0.052018,0.732422,1.190186,-7.629395
10.341453,-0.279619,-0.080233,10.085427,-0.205922,-0.108285,0.032858,0.091553,1.495361,-4.943848
10.351548,-0.072449,0.121547,9.972263,0.001248,0.093496,-0.080307,-3.082275,1.312256,-7.568359
10.361645,-0.647254,0.258063,10.117760,-0.573557,0.230012,0.065191,-3.997803,1.007080,-6.530762
10.371741,-0.104782,-0.181423,10.133328,-0.031085,-0.209474,0.080759,-3.662109,0.732422,-4.028320
10.381838,-0.020956,-0.119152,10.148297,0.052741,-0.147204,0.095727,-3.051758,0.335693,-3.509521
10.391933,-0.170046,-0.112566,10.162667,-0.096349,-0.140618,0.110098,-2.441406,0.213623,-3.265381
10.402030,-0.215552,-0.136516,10.120754,-0.141855,-0.164568,0.068185,-1.739502,-0.152588,-2.105713
10.412127,-0.073048,-0.150886,10.015972,0.000649,-0.178938,-0.036597,-1.068115,-0.305176,-1.007080
10.422223,-0.334105,0.062271,10.120754,-0.260408,0.034219,0.068185,-0.640869,-0.946045,1.586914
10.432319,0.000000,0.011376,10.142908,0.073697,-0.016675,0.090339,-0.061035,-0.854492,2.258301
10.442417,-0.037722,-0.139510,10.102791,0.035975,-0.167562,0.050222,0.762939,-0.762939,0.457764
10.452512,-0.287402,0.188009,10.075248,-0.213705,0.159957,0.022679,1.312256,-0.549316,-0.305176
10.462607,-0.205972,0.192799,10.053094,-0.132275,0.164747,0.000525,1.068115,-0.396729,2.258301
10.472704,-0.017963,-0.116757,9.992620,0.055734,-0.144809,-0.059949,1.342773,-0.030518,4.730225
10.482799,0.134121,-0.129331,10.036329,0.207818,-0.157383,-0.016240,1.159668,0.122070,5.096436
10.492896,-0.059875,0.037722,10.195598,0.013822,0.009670,0.143029,0.091553,0.183105,6.317139
10.502992,-0.050295,-0.022753,9.954899,0.023402,-0.050804,-0.097670,0.701904,0.366211,6.713867
10.513089,0.162263,-0.040117,10.010583,0.235960,-0.068168,-0.041986,0.305176,0.366211,6.256104
10.523185,0.170046,-0.273032,9.978250,0.243743,-0.301084,-0.074319,-0.183105,-0.274658,7.537842
10.533281,0.157473,0.033530,10.073452,0.231170,0.005479,0.020883,0.366211,0.000000,6.835938
10.543372,0.101788,-0.231119,9.958491,0.175485,-0.259171,-0.094078,0.854492,0.488281,9.094238
10.553462,0.174238,-0.450862,10.229727,0.247935,-0.478914,0.177158,-0.366211,0.671387,8.117676
10.563553,0.004790,0.052092,10.253677,0.078487,0.024040,0.201108,-0.122070,1.037598,11.047363
10.573641,0.384999,-0.010179,10.076446,0.458696,-0.038230,0.023877,0.183105,0.854492,12.176514
10.583731,0.621508,-0.224533,10.015373,0.695205,-0.252585,-0.037196,-0.946045,1.373291,7.476807
10.593820,0.496967,0.072449,9.917776,0.570664,0.044398,-0.134793,-0.885010,1.861572,6.256104
10.603911,0.511935,0.002994,10.133926,0.585632,-0.025058,0.081357,-1.800537,1.922607,4.577637
10.614001,0.147294,0.034728,9.969868,0.220991,0.006676,-0.082702,-1.861572,1.617432,2.227783
10.624091,0.181423,-0.204175,10.056687,0.255120,-0.232227,0.004118,-2.258301,1.220703,2.532959
10.634174,0.346679,0.001796,10.125544,0.420376,-0.026255,0.072975,1.556396,1.190186,2.044678
10.644261,0.210163,0.376617,10.202783,0.283860,0.348565,0.150214,1.586914,0.640869,0.793457
10.654358,0.129331,-0.128134,10.229128,0.203028,-0.156185,0.176559,2.899170,0.000000,0.244141
10.664455,0.413141,-0.060474,10.256671,0.486838,-0.088526,0.204102,1.312256,-0.762939,-1.953125
10.674551,0.551453,-0.042512,10.138118,0.625150,-0.070563,0.085549,-0.732422,-0.976562,-8.026123
10.684647,0.242496,0.000599,9.940529,0.316193,-0.027453,-0.112041,-1.739502,-0.854492,-12.695312
10.694743,0.325723,0.074844,9.867480,0.399420,0.046793,-0.185089,-2.624512,-1.068115,-13.061523
10.704839,0.219743,0.117356,9.969269,0.293440,0.089304,-0.083300,-4.058838,-0.305176,-15.167236
10.714936,0.026944,-0.098795,10.087822,0.100641,-0.126846,0.035253,-2.227783,0.122070,-14.770508
10.725032,-0.117356,-0.352667,10.293794,-0.043659,-0.380718,0.241225,0.885010,0.701904,-14.312744
10.735129,-0.191003,-0.092208,10.026749,-0.117306,-0.120260,-0.025820,1.708984,0.762939,-16.876221
10.745224,0.068258,-0.390987,10.068662,0.141955,-0.419039,0.016093,3.021240,0.335693,-14.343262
10.755328,-0.014969,-0.386796,10.053094,0.058728,-0.414847,0.000525,1.495361,-0.366211,-11.322021
10.765424,-0.146096,0.072449,10.054292,-0.072399,0.044398,0.001723,4.364014,0.610352,-5.798340
10.775520,-0.104782,-0.274230,10.078242,-0.031085,-0.302281,0.025673,1.983643,0.823975,-4.150391
10.785616,0.049697,-0.353864,10.195598,0.123394,-0.381916,0.143029,2.227783,0.671387,-2.380371
10.795712,0.060474,-0.317340,10.105186,0.134171,-0.345392,0.052617,2.624512,0.549316,0.183105
10.805806,-0.449665,-0.149090,10.053693,-0.375968,-0.177142,0.001124,1.831055,0.213623,2.746582
10.815900,-0.334704,-0.165855,9.972263,-0.261007,-0.193907,-0.080307,1.373291,0.457764,6.652832
10.825996,-0.044907,-0.176034,9.795031,0.028790,-0.204086,-0.257538,-2.471924,0.488281,11.871338
10.836092,0.245490,-0.150886,9.976454,0.319186,-0.178938,-0.076115,-2.685547,0.732422,11.566162
10.846189,-0.303569,-0.125140,10.118359,-0.229872,-0.153191,0.065790,-2.716064,0.610352,12.145996
10.856285,-0.141306,-0.290396,10.118958,-0.067609,-0.318448,0.066388,-2.105713,1.190186,14.160156
10.866381,-0.149090,-0.482596,10.175240,-0.075393,-0.510648,0.122671,-0.366211,0.976562,15.319824
10.876477,0.157473,-0.297581,9.907597,0.231170,-0.325633,-0.144972,0.579834,1.281738,15.869141
10.886573,-0.218546,-0.253872,10.050699,-0.144849,-0.281924,-0.001870,-1.068115,0.244141,12.725830
10.896670,0.013771,-0.279020,10.031539,0.087468,-0.307071,-0.021030,0.000000,-0.671387,12.359619
10.906766,-0.056882,-0.268242,10.066267,0.016815,-0.296294,0.013698,1.861572,-1.312256,11.169434
10.916861,-0.192200,-0.549058,10.193203,-0.118503,-0.577110,0.140634,1.770020,-0.976562,11.444092
10.926957,-0.075443,-0.468825,10.240505,-0.001746,-0.496877,0.187936,2.044678,-0.183105,11.810303
10.937052,-0.214354,-0.161664,10.272838,-0.140657,-0.189715,0.220268,1.098633,0.732422,10.131836
10.947149,-0.143102,-0.285007,10.151290,-0.069405,-0.313059,0.098721,1.708984,0.152588,11.260986
10.957241,-0.292791,-0.198188,10.184821,-0.219094,-0.226240,0.132251,-0.396729,-0.823975,12.573242
10.967338,-0.152682,-0.282014,10.235116,-0.078985,-0.310065,0.182547,-0.976562,-1.770020,12.145996
10.977433,-0.068258,-0.046703,10.049502,0.005439,-0.074755,-0.003067,0.091553,-2.197266,10.589600
10.987530,-0.174836,-0.186213,10.253079,-0.101139,-0.214264,0.200510,-0.762939,-2.014160,7.568359
10.997625,-0.046703,-0.218546,10.096205,0.026994,-0.246597,0.043636,-1.037598,-1.434326,6.011963
11.007722,-0.207768,-0.065264,10.049502,-0.134071,-0.093316,-0.003067,-1.464844,1.098633,7.690430
11.017818,-0.010778,-0.017963,10.023755,0.062919,-0.046014,-0.028814,-0.976562,1.068115,7.598877
11.027914,0.056882,0.066462,9.917776,0.130579,0.038410,-0.134793,-0.244141,1.617432,6.103516
11.038010,0.038919,0.178429,9.927955,0.112616,0.150377,-0.124614,0.793457,1.403809,5.950928
11.048106,-0.185015,0.151485,10.048903,-0.111318,0.123433,-0.003666,0.427246,0.946045,5.676270
11.058202,-0.100591,0.417931,10.042916,-0.026894,0.389879,-0.009653,0.305176,0.732422,8.331299
11.068299,0.340692,-0.194595,10.104587,0.414389,-0.222647,0.052018,-2.044678,0.152588,7.659912
11.078395,0.591570,0.152084,9.768686,0.665267,0.124032,-0.283883,-4.028320,-0.701904,4.913330
11.088491,0.405956,-0.075443,10.007589,0.479653,-0.103495,-0.044980,-1.373291,-0.915527,3.540039
11.098586,0.083227,-0.192200,10.226733,0.156924,-0.220252,0.174164,0.579834,-1.708984,2.136230
11.108681,-0.077239,-0.469424,10.232721,-0.003542,-0.497475,0.180152,1.953125,-1.159668,3.662109
11.118776,0.083227,-0.228126,9.927955,0.156924,-0.256177,-0.124614,3.112793,-0.396729,7.965088
11.128873,0.046703,0.054487,9.990824,0.120400,0.026435,-0.061745,2.502441,-0.885010,8.392334
11.138968,0.181423,0.065264,9.870474,0.255120,0.037213,-0.182095,1.037598,-1.007080,9.216309
11.149065,0.191602,-0.208367,10.227332,0.265299,-0.236418,0.174763,0.061035,-1.220703,8.911133
11.159162,0.507744,-0.138911,10.065070,0.581441,-0.166963,0.012501,0.762939,-0.427246,7.507324
11.169257,0.100591,0.010179,10.133328,0.174288,-0.017873,0.080759,0.122070,0.640869,1.922607
11.179353,-0.091011,0.148491,10.062076,-0.017314,0.120440,0.009507,-0.366211,0.244141,0.213623
11.189448,0.163460,-0.223336,10.018965,0.237157,-0.251387,-0.033604,-1.831055,0.427246,-3.112793
11.199544,-0.117955,0.011376,9.868079,-0.044258,-0.016675,-0.184490,-1.678467,0.549316,-4.577637
11.209640,-0.680784,0.395777,9.980046,-0.607087,0.367725,-0.072523,-0.488281,0.183105,-3.784180
11.219736,-0.339494,0.123942,9.966874,-0.265797,0.095891,-0.085695,-0.213623,0.244141,2.777100
11.229832,0.055085,-0.270637,10.123149,0.128782,-0.298689,0.070580,0.061035,0.610352,1.129150
11.239928,-0.099393,-0.060474,10.027348,-0.025696,-0.088526,-0.025221,0.823975,0.152588,-4.608154
11.250023,-0.490979,0.195194,10.237511,-0.417282,0.167142,0.184942,0.823975,-0.366211,-5.157471
11.260119,-0.183818,0.067659,10.036329,-0.110121,0.039608,-0.016240,2.532959,0.610352,-0.518799
11.270214,0.009580,-0.033530,9.880653,0.083277,-0.061582,-0.171916,1.342773,0.244141,0.823975
11.280309,0.098196,-0.079036,10.105785,0.171893,-0.107087,0.053216,-0.854492,-0.366211,-0.610352
11.290406,-0.341889,0.496967,9.890832,-0.268192,0.468915,-0.161737,-1.159668,0.000000,-0.518799
11.300503,-0.721500,0.034129,10.347682,-0.647803,0.006077,0.295113,-1.220703,0.152588,2.410889
11.310599,0.283211,-0.107177,10.231523,0.356908,-0.135229,0.178954,-0.457764,-0.122070,4.241943
11.320695,0.209564,-0.232317,10.057885,0.283261,-0.260369,0.005315,-0.396729,0.335693,2.014160
11.330792,0.189207,-0.204175,9.973460,0.262904,-0.232227,-0.079109,0.457764,1.159668,-0.885010
11.340888,-0.176633,0.383802,10.063872,-0.102936,0.355750,0.011303,-0.793457,1.556396,0.610352
11.350979,-0.148491,0.147294,10.062076,-0.074794,0.119242,0.009507,-1.037598,0.885010,2.227783
11.361069,0.179028,0.055684,10.078242,0.252725,0.027633,0.025673,-0.488281,1.281738,6.347656
11.371159,0.188009,-0.061672,10.169852,0.261706,-0.089723,0.117283,0.030518,0.793457,7.415771
11.381248,0.238903,-0.263452,10.052496,0.312600,-0.291504,-0.000073,0.366211,0.305176,5.004883
11.391338,0.110171,-0.198188,10.005194,0.183868,-0.226240,-0.047375,-0.244141,-0.427246,4.058838
11.401428,0.035327,-0.005389,10.234517,0.109024,-0.033440,0.181948,-0.152588,-1.220703,2.624512
11.411517,0.117356,-0.444875,10.041718,0.191053,-0.472927,-0.010851,0.671387,-1.098633,1.434326
11.421606,0.007784,-0.361648,10.202783,0.081481,-0.389700,0.150214,1.708984,-0.885010,-2.593994
11.431696,-0.537682,0.053888,9.941726,-0.463985,0.025836,-0.110843,1.586914,-1.434326,-1.403809
11.441786,-0.407153,0.031734,10.058483,-0.333456,0.003682,0.005914,0.244141,-1.159668,-0.915527
11.451881,-0.210762,-0.225132,10.039323,-0.137065,-0.253184,-0.013246,0.732422,-0.671387,-2.502441
11.461978,-0.619113,0.538879,9.890832,-0.545416,0.510828,-0.161737,2.105713,0.427246,-2.410889
11.472074,-0.328716,-0.038919,9.935739,-0.255019,-0.066971,-0.116831,1.037598,0.335693,-0.518799
11.482171,-0.128134,0.062271,9.916578,-0.054437,0.034219,-0.135991,-0.488281,0.244141,-1.831055
11.492266,-0.463436,-0.174836,10.155482,-0.389739,-0.202888,0.102912,-0.549316,-0.793457,-5.218506
11.502361,-0.466430,-0.064666,9.847722,-0.392733,-0.092717,-0.204848,0.213623,-0.579834,-6.866455
11.512457,-0.655637,-0.096998,9.948312,-0.581940,-0.125050,-0.104257,-0.488281,-0.427246,-6.713867
11.522552,-0.592169,-0.046703,10.114766,-0.518472,-0.074755,0.062197,-1.251221,0.427246,-4.760742
11.532710,-0.328118,-0.061672,10.151290,-0.254421,-0.089723,0.098721,-0.701904,0.793457,-3.082275
11.542835,-0.307760,-0.038919,10.067465,-0.234063,-0.066971,0.014896,2.197266,0.091553,-3.570557
11.552967,-0.529898,-0.058079,10.056687,-0.456201,-0.086131,0.004118,0.671387,-0.183105,-2.746582
11.563078,-0.358654,-0.273631,10.113569,-0.284957,-0.301683,0.061000,2.014160,0.488281,-0.915527
11.573180,0.040117,0.153281,9.945917,0.113814,0.125230,-0.106652,-0.396729,-0.030518,-2.014160
11.583343,-0.019759,0.016765,9.882449,0.053938,-0.011287,-0.170120,0.488281,-0.396729,-3.509521
11.593483,0.276625,0.017364,10.052496,0.350322,-0.010688,-0.000073,-0.762939,-0.244141,-5.401611
11.603587,-0.051493,0.053888,10.053094,0.022204,0.025836,0.000525,1.403809,0.366211,-5.554199
11.613691,0.032932,-0.426912,9.992021,0.106629,-0.454964,-0.060548,-0.518799,-0.183105,-2.136230
11.623796,0.394579,-0.402962,10.014774,0.468276,-0.431014,-0.037795,0.274658,0.854492,0.122070
11.633929,0.216749,0.000599,10.000404,0.290446,-0.027453,-0.052165,-0.396729,0.854492,-4.302979
11.644028,-0.088616,-0.223336,10.175839,-0.014919,-0.251387,0.123270,-0.610352,1.373291,-4.028320
11.654120,-0.254471,-0.279619,10.399175,-0.180774,-0.307670,0.346606,-1.464844,1.373291,-3.570557
11.664337,0.210762,-0.280217,10.147099,0.284459,-0.308269,0.094530,-1.678467,0.976562,-5.737305
11.674503,-0.009580,-0.035925,10.130334,0.064117,-0.063977,0.077765,-1.159668,1.251221,-8.728027
11.684611,-0.578397,-0.319735,10.118359,-0.504700,-0.347787,0.065790,-1.281738,0.823975,-7.873535
11.694693,-0.630489,-0.209564,10.151290,-0.556792,-0.237616,0.098721,1.434326,-0.061035,-0.732422
11.704765,-0.140109,-0.043709,9.846524,-0.066412,-0.071761,-0.206045,1.647949,-0.061035,2.075195
11.714849,-0.374222,0.414338,10.019564,-0.300525,0.386287,-0.033005,1.739502,0.946045,0.427246
11.724924,-0.441881,0.319136,9.766890,-0.368184,0.291085,-0.285679,-1.403809,-0.305176,0.640869
11.734998,-0.355062,-0.252076,9.968670,-0.281365,-0.280127,-0.083899,-2.410889,0.091553,-0.671387
11.745072,0.016765,-0.230521,9.953102,0.090462,-0.258572,-0.099467,-0.640869,0.213623,-1.739502
11.755165,-0.288600,0.191602,10.226135,-0.214903,0.163550,0.173566,-0.305176,-0.610352,-0.854492
11.765248,-0.033530,0.133522,10.162667,0.040167,0.105471,0.110098,0.274658,-0.946045,-0.732422
11.775330,0.243693,-0.147294,10.059082,0.317390,-0.175345,0.006513,0.000000,-1.342773,-2.471924
11.785412,0.191003,-0.293989,10.199191,0.264700,-0.322040,0.146622,0.061035,-1.434326,-4.058838
11.795496,0.202379,-0.098196,10.071057,0.276076,-0.126247,0.018488,2.410889,-0.427246,-1.495361
11.805578,0.385598,-0.125739,10.074650,0.459295,-0.153790,0.022081,-0.701904,-0.549316,-0.488281
11.815659,0.584385,0.143701,9.980645,0.658082,0.115650,-0.071924,0.549316,-0.244141,0.000000
11.825744,0.488584,-0.122745,10.186617,0.562281,-0.150796,0.134048,-0.091553,-0.274658,-1.892090
11.835833,0.379611,-0.362247,10.136321,0.453308,-0.390298,0.083752,-0.366211,-0.671387,-2.685547
11.845916,0.737666,0.052690,9.522598,0.811363,0.024639,-0.529971,-0.152588,0.396729,-2.349854
11.856010,0.482596,-0.316741,10.038724,0.556293,-0.344793,-0.013845,-2.288818,0.488281,-4.760742
11.866105,0.537682,-0.149090,9.990225,0.611379,-0.177142,-0.062344,-4.058838,0.366211,-7.904053
11.876201,0.531096,0.084424,9.885443,0.604793,0.056373,-0.167126,0.335693,0.671387,-6.988525
11.886299,0.434097,-0.172441,10.178833,0.507794,-0.200493,0.126264,-0.305176,-0.061035,-9.307861
11.896397,0.409548,-0.217947,9.990225,0.483245,-0.245998,-0.062344,-0.183105,-0.122070,-11.077881
11.906494,0.115560,-0.193398,10.366243,0.189257,-0.221449,0.313674,1.281738,-1.495361,-12.420654
11.916589,0.165256,-0.174238,9.835746,0.238953,-0.202289,-0.216823,2.288818,-0.701904,-13.854980
11.926692,-0.241298,-0.045505,9.929152,-0.167601,-0.073557,-0.123417,1.037598,-0.061035,-15.472412
11.936793,-0.566422,-0.291594,10.085427,-0.492725,-0.319645,0.032858,-2.685547,0.457764,-13.122559
11.946892,-0.516127,-0.320334,10.368040,-0.442430,-0.348386,0.315470,-2.685547,0.549316,-11.718750
11.956984,-0.879571,-0.638273,10.087822,-0.805874,-0.666324,0.035253,-0.091553,0.579834,-8.117676
11.967076,-0.717308,-0.048499,10.030941,-0.643611,-0.076551,-0.021629,5.828857,2.258301,-4.974365
11.977167,-0.440085,-0.254471,9.950109,-0.366388,-0.282522,-0.102460,5.187988,1.495361,-3.662109
11.987258,-0.599952,-0.222737,10.066866,-0.526255,-0.250788,0.014297,5.645752,-0.793457,-1.800537
11.997361,-0.650248,0.156275,9.960287,-0.576551,0.128223,-0.092282,5.157471,-0.946045,-0.549316
12.007454,-0.391586,0.294587,10.059082,-0.317889,0.266536,0.006513,-1.373291,-0.610352,2.868652
12.017544,-0.197589,-0.034728,10.049502,-0.123892,-0.062779,-0.003067,-2.593994,-0.030518,6.317139
12.027633,0.091011,-0.376018,10.144105,0.164708,-0.404070,0.091536,-1.129150,0.000000,3.204346
12.037724,-0.243094,0.235909,10.247091,-0.169397,0.207858,0.194522,1.678467,0.213623,3.082275
12.047814,-0.442480,0.511935,10.128538,-0.368783,0.483884,0.075969,0.549316,0.122070,8.300781
12.057904,0.509540,-0.089214,9.956695,0.583237,-0.117266,-0.095874,-0.854492,0.793457,9.277344
12.067995,0.321531,-0.320933,10.134525,0.395228,-0.348984,0.081956,-0.732422,0.793457,4.180908
12.078084,0.182620,-0.048499,10.157877,0.256317,-0.076551,0.105308,-2.166748,-0.701904,-1.312256
12.088174,-0.253273,-0.175435,10.120754,-0.179576,-0.203487,0.068185,0.488281,-1.708984,-1.220703
12.098264,-0.186812,0.372426,10.117161,-0.113115,0.344374,0.064592,-0.885010,-0.305176,1.464844
12.108352,-0.036524,0.016166,10.248887,0.037173,-0.011885,0.196318,-0.183105,-0.946045,0.274658
12.118440,0.115560,0.058079,10.197394,0.189257,0.030028,0.144825,-0.122070,-1.861572,-1.037598
12.128536,-0.283211,0.219743,10.217752,-0.209514,0.191691,0.165183,-1.495361,-1.373291,-2.380371
12.138627,-0.141905,0.242496,10.098600,-0.068208,0.214444,0.046031,-0.366211,-1.159668,-1.159668
12.148718,0.140109,0.316741,9.756711,0.213806,0.288690,-0.295858,-1.495361,0.488281,-1.586914
12.158813,0.049697,0.335303,9.849518,0.123394,0.307251,-0.203051,-1.281738,0.366211,-3.173828
12.168911,0.095801,0.018561,10.080038,0.169498,-0.009490,0.027469,0.518799,0.061035,-5.584717
12.179004,-0.370629,0.346679,10.023157,-0.296932,0.318627,-0.029412,0.122070,-0.671387,-4.943848
12.189102,0.032932,-0.071252,9.952504,0.106629,-0.099303,-0.100065,1.770020,-1.556396,-4.425049
12.199199,-0.399370,0.072449,10.108180,-0.325673,0.044398,0.055611,0.640869,-1.098633,-5.187988
12.209292,-0.637075,0.114362,10.245295,-0.563378,0.086311,0.192726,1.220703,-0.122070,-5.065918
12.219390,-0.050894,0.186213,9.781859,0.022803,0.158161,-0.270711,-0.061035,1.129150,-3.967285
12.229487,-0.255668,0.195793,10.006392,-0.181971,0.167741,-0.046177,-2.136230,0.640869,-5.676270
12.239583,-0.359852,0.062271,9.893826,-0.286155,0.034219,-0.158743,-0.701904,-0.427246,-4.730225
12.249680,-0.496368,0.023950,10.145303,-0.422671,-0.004101,0.092734,-0.091553,-1.129150,-4.394531
12.259769,-0.423918,-0.127535,10.270443,-0.350221,-0.155586,0.217873,0.640869,-0.335693,-1.281738
12.269857,-0.204175,-0.079634,10.199789,-0.130478,-0.107686,0.147220,0.213623,0.305176,-2.288818
12.279945,-0.113165,-0.067659,9.822574,-0.039468,-0.095711,-0.229995,0.396729,1.220703,-3.845215
12.290033,-0.553250,0.000000,10.146500,-0.479553,-0.028052,0.093931,0.061035,0.213623,-0.579834
12.300120,-0.174836,-0.227527,10.121353,-0.101139,-0.255579,0.068783,0.091553,-0.823975,0.579834
12.310225,-0.055684,-0.061672,10.035731,0.018013,-0.089723,-0.016838,2.075195,-0.610352,2.410889
12.320315,-0.153880,-0.116158,10.040521,-0.080183,-0.144210,-0.012048,1.617432,-0.244141,2.960205
12.330404,0.008383,-0.060474,9.897418,0.082080,-0.088526,-0.155151,2.075195,1.007080,2.838135
12.340492,-0.220342,-0.161664,9.977651,-0.146645,-0.189715,-0.074918,0.976562,1.800537,0.427246
12.350583,-0.139510,-0.270637,10.162068,-0.065813,-0.298689,0.109499,1.617432,1.770020,-0.885010
12.360675,-0.151485,0.330513,10.208172,-0.077788,0.302461,0.155603,-1.800537,0.000000,-0.366211
12.370769,0.074246,0.057480,9.881252,0.147943,0.029429,-0.171317,-2.929688,0.335693,-0.671387
12.380864,0.135319,-0.296982,10.036329,0.209016,-0.325034,-0.016240,-1.068115,-2.197266,-2.655029
12.390960,-0.244891,-0.058678,9.926158,-0.171194,-0.086730,-0.126411,-0.030518,-2.624512,-2.441406
12.401053,-0.155676,-0.076042,9.915980,-0.081979,-0.104094,-0.136589,-0.030518,-1.525879,-0.305176
12.411150,0.260458,-0.198787,9.939331,0.334155,-0.226838,-0.113238,-0.640869,-0.793457,-0.213623
12.421243,0.117356,-0.258063,10.150093,0.191053,-0.286115,0.097524,-1.373291,0.183105,-0.976562
12.431355,0.152682,-0.259860,10.186617,0.226379,-0.287911,0.134048,0.885010,1.190186,1.464844
12.441450,0.135319,-0.131127,10.169253,0.209016,-0.159179,0.116684,0.793457,0.488281,2.563477
12.451547,0.187410,-0.136516,10.100995,0.261107,-0.164568,0.048426,2.014160,-0.396729,2.960205
12.461636,0.085622,-0.140707,10.144704,0.159319,-0.168759,0.092135,-0.183105,-1.800537,0.610352
12.471723,0.025148,-0.142504,10.130334,0.098845,-0.170555,0.077765,1.159668,-1.647949,2.838135
12.481810,0.199984,-0.488584,10.082433,0.273681,-0.516636,0.029864,1.281738,-1.495361,2.136230
12.491901,0.191602,-0.446671,10.193203,0.265299,-0.474723,0.140634,1.190186,-1.373291,1.220703
12.501989,-0.221539,-0.580792,10.138118,-0.147842,-0.608844,0.085549,1.861572,-0.610352,3.326416
12.512079,-0.041913,-0.744851,9.911190,0.031784,-0.772903,-0.141379,1.251221,-0.091553,7.446289
12.522167,-0.082029,-0.080832,10.148297,-0.008332,-0.108884,0.095727,1.434326,1.342773,13.122559
12.532257,0.090412,-0.521516,10.308164,0.164109,-0.549567,0.255595,-0.732422,1.068115,12.512207
12.542346,0.173639,-0.170645,10.053094,0.247336,-0.198697,0.000525,1.708984,1.068115,10.681152
12.552435,-0.183219,0.023351,9.892029,-0.109522,-0.004700,-0.160540,0.701904,0.030518,9.643555
12.562544,-0.267643,-0.031135,9.932146,-0.193946,-0.059187,-0.120423,-0.274658,-1.464844,10.437012
12.572642,-0.206570,0.179626,9.610016,-0.132873,0.151575,-0.442553,-0.549316,-1.495361,11.474609
12.582740,-0.056283,0.041913,10.059082,0.017414,0.013861,0.006513,-0.976562,-0.396729,9.948730
12.592834,0.044907,0.139510,9.880653,0.118604,0.111458,-0.171916,-2.868652,1.434326,9.216309
12.602932,0.054487,-0.269440,9.954300,0.128184,-0.297491,-0.098269,-3.295898,2.197266,6.591797
