time,ax_raw,ay_raw,az_raw,ax,ay,az,gx,gy,gz
0.001920,0.051493,1.088536,9.978250,0.009870,-0.003071,-0.003953,0.000000,0.030518,-0.061035
0.012020,0.041314,1.089135,9.980046,-0.000308,-0.002472,-0.002156,0.000000,0.000000,-0.061035
0.022124,0.043110,1.098116,9.981843,0.001488,0.006509,-0.000360,0.000000,0.000000,-0.030518
0.032220,0.041913,1.098715,9.983040,0.000290,0.007108,0.000838,0.030518,0.000000,-0.061035
0.042308,0.053888,1.105900,9.982441,0.012265,0.014293,0.000239,0.030518,0.000000,-0.061035
0.052394,0.056882,1.103505,9.983639,0.015259,0.011898,0.001436,0.030518,0.030518,-0.030518
0.062480,0.051493,1.097518,9.992021,0.009870,0.005910,0.009819,0.000000,0.030518,-0.030518
0.072567,0.053289,1.101110,9.999207,0.011667,0.009503,0.017004,0.030518,0.000000,-0.030518
0.082654,0.053888,1.093925,9.998608,0.012265,0.002318,0.016405,0.030518,0.000000,-0.061035
0.092740,0.046703,1.092129,9.994417,0.005080,0.000522,0.012214,0.030518,0.030518,-0.091553
0.102827,0.047900,1.099913,9.996213,0.006278,0.008305,0.014010,0.000000,-0.030518,-0.061035
0.112913,0.051493,1.100511,9.992620,0.009870,0.008904,0.010418,0.000000,0.000000,-0.061035
0.123000,0.049697,1.099314,9.995614,0.008074,0.007707,0.013411,0.000000,0.030518,-0.030518
0.133158,0.058678,1.095123,9.986633,0.017056,0.003515,0.004430,0.000000,0.030518,-0.030518
0.143252,0.059875,1.095721,9.980645,0.018253,0.004114,-0.001558,0.000000,0.000000,-0.030518
0.153347,0.043110,1.089135,9.975855,0.001488,-0.002472,-0.006348,0.000000,0.030518,-0.030518
0.163440,0.043110,1.093925,9.980645,0.001488,0.002318,-0.001558,0.000000,0.030518,-0.030518
0.173535,0.046703,1.096919,9.992620,0.005080,0.005312,0.010418,0.000000,0.000000,-0.061035
0.183627,0.048499,1.092129,9.994417,0.006877,0.000522,0.012214,0.030518,0.030518,0.000000
0.193721,0.042512,1.093925,9.987830,0.000889,0.002318,0.005628,-0.030518,0.061035,0.000000
0.203814,0.037722,1.098715,9.989028,-0.003901,0.007108,0.006825,-0.030518,0.061035,-0.030518
0.213909,0.041913,1.096919,9.986633,0.000290,0.005312,0.004430,-0.030518,0.030518,0.000000
0.224003,0.046703,1.098715,9.996213,0.005080,0.007108,0.014010,0.000000,0.061035,0.000000
0.234169,0.041314,1.102308,9.997410,-0.000308,0.010700,0.015208,0.000000,0.061035,0.000000
0.244255,0.040715,1.101709,9.987231,-0.000907,0.010102,0.005029,0.000000,0.061035,-0.030518
0.254344,0.049697,1.104104,9.983040,0.008074,0.012497,0.000838,0.000000,0.061035,-0.030518
0.264431,0.055085,1.104104,9.978849,0.013463,0.012497,-0.003354,0.030518,0.061035,-0.061035
0.274519,0.048499,1.100511,9.992021,0.006877,0.008904,0.009819,0.000000,0.030518,-0.030518
0.284606,0.044308,1.098116,9.991423,0.002685,0.006509,0.009220,0.030518,0.030518,-0.030518
0.294694,0.040715,1.092129,9.986034,-0.000907,0.000522,0.003831,0.030518,0.030518,-0.030518
0.304780,0.039518,1.084345,9.980046,-0.002105,-0.007262,-0.002156,0.000000,0.000000,-0.061035
0.314868,0.048499,1.090333,9.984238,0.006877,-0.001275,0.002035,-0.030518,0.030518,0.000000
0.324954,0.049098,1.090931,9.984836,0.007475,-0.000676,0.002634,-0.030518,0.030518,-0.030518
0.335103,0.049697,1.096320,9.985435,0.008074,0.004713,0.003233,0.000000,0.030518,0.000000
0.345197,0.048499,1.099913,9.991423,0.006877,0.008305,0.009220,-0.030518,0.061035,-0.030518
0.355293,0.048499,1.101110,9.989028,0.006877,0.009503,0.006825,-0.030518,0.061035,0.000000
0.365387,0.050894,1.101110,9.996812,0.009272,0.009503,0.014609,-0.030518,0.030518,-0.030518
0.375482,0.052690,1.102906,10.003398,0.011068,0.011299,0.021195,0.000000,0.030518,-0.030518
0.385578,0.052092,1.102906,9.990225,0.010469,0.011299,0.008023,-0.030518,0.000000,-0.030518
0.395675,0.057480,1.107098,9.985435,0.015858,0.015491,0.003233,-0.030518,0.030518,0.000000
0.405771,0.064666,1.105302,9.984836,0.023043,0.013694,0.002634,-0.030518,0.030518,0.000000
0.415867,0.057480,1.105302,9.988429,0.015858,0.013694,0.006226,-0.030518,0.030518,0.000000
0.425962,0.055684,1.105302,9.992620,0.014062,0.013694,0.010418,0.000000,0.030518,-0.030518
0.436127,0.053888,1.090333,9.987231,0.012265,-0.001275,0.005029,-0.030518,0.030518,0.000000
0.446216,0.055684,1.087339,9.983040,0.014062,-0.004268,0.000838,0.000000,0.061035,-0.061035
0.456305,0.043709,1.091530,9.984238,0.002087,-0.000077,0.002035,-0.030518,0.030518,-0.030518
0.466393,0.045505,1.092728,9.985435,0.003883,0.001120,0.003233,-0.030518,0.061035,0.000000
0.476481,0.044308,1.091530,9.990824,0.002685,-0.000077,0.008621,-0.030518,0.000000,-0.061035
0.486569,0.039518,1.093925,9.988429,-0.002105,0.002318,0.006226,-0.061035,-0.030518,-0.061035
0.496660,0.041913,1.091530,9.981843,0.000290,-0.000077,-0.000360,-0.030518,-0.030518,-0.091553
0.506748,0.046104,1.092129,9.974059,0.004482,0.000522,-0.008144,-0.030518,0.000000,-0.061035
0.516838,0.047302,1.091530,9.978849,0.005679,-0.000077,-0.003354,-0.030518,0.000000,-0.061035
0.526927,0.042512,1.090931,9.980046,0.000889,-0.000676,-0.002156,0.000000,-0.030518,-0.061035
0.537105,0.044907,1.087938,9.971065,0.003284,-0.003670,-0.011138,0.000000,-0.030518,-0.061035
0.547204,0.049098,1.095123,9.969868,0.007475,0.003515,-0.012335,-0.030518,0.000000,-0.061035
0.557302,0.045505,1.092129,9.972861,0.003883,0.000522,-0.009341,-0.030518,0.000000,-0.091553
0.567400,0.040715,1.094524,9.977651,-0.000907,0.002917,-0.004551,-0.030518,0.030518,-0.061035
0.577497,0.046703,1.094524,9.983639,0.005080,0.002917,0.001436,-0.030518,0.000000,-0.061035
0.587595,0.043709,1.090931,9.981843,0.002087,-0.000676,-0.000360,0.000000,0.000000,-0.030518
0.597693,0.043709,1.089734,9.980046,0.002087,-0.001873,-0.002156,0.000000,0.061035,-0.030518
0.607790,0.046104,1.088536,9.974059,0.004482,-0.003071,-0.008144,-0.030518,0.061035,-0.030518
0.617888,0.038919,1.086141,9.975256,-0.002703,-0.005466,-0.006946,-0.030518,0.061035,0.000000
0.627986,0.043110,1.081351,9.977053,0.001488,-0.010256,-0.005150,-0.030518,0.061035,0.000000
0.638157,0.046104,1.086740,9.976454,0.004482,-0.004867,-0.005749,0.000000,0.030518,-0.030518
0.648247,0.047900,1.092728,9.979448,0.006278,0.001120,-0.002755,0.030518,0.030518,-0.030518
0.658337,0.046703,1.093326,9.979448,0.005080,0.001719,-0.002755,0.000000,0.030518,-0.030518
0.668428,0.046104,1.092728,9.989028,0.004482,0.001120,0.006825,-0.030518,0.000000,-0.030518
0.678519,0.044308,1.089135,9.988429,0.002685,-0.002472,0.006226,-0.030518,0.030518,-0.030518
0.688608,0.049098,1.092129,9.983040,0.007475,0.000522,0.000838,-0.030518,0.030518,0.000000
0.698696,0.050894,1.093925,9.984238,0.009272,0.002318,0.002035,-0.030518,0.030518,-0.030518
0.708786,0.055085,1.096320,9.987231,0.013463,0.004713,0.005029,-0.061035,0.000000,-0.030518
0.718878,0.053888,1.093326,9.992620,0.012265,0.001719,0.010418,-0.030518,0.030518,-0.030518
0.728968,0.047302,1.087339,9.990225,0.005679,-0.004268,0.008023,-0.061035,0.030518,0.000000
0.739121,0.041314,1.083148,9.985435,-0.000308,-0.008460,0.003233,-0.030518,0.030518,0.030518
0.749218,0.039518,1.076561,9.981843,-0.002105,-0.015046,-0.000360,-0.030518,0.030518,0.030518
0.759315,0.040715,1.081950,9.981843,-0.000907,-0.009657,-0.000360,0.000000,0.000000,0.061035
0.769412,0.042512,1.084345,9.986034,0.000889,-0.007262,0.003831,0.000000,0.000000,0.061035
0.779509,0.044907,1.088536,9.981843,0.003284,-0.003071,-0.000360,-0.030518,0.030518,0.030518
0.789607,0.044308,1.086740,9.978250,0.002685,-0.004867,-0.003953,-0.030518,0.030518,0.030518
0.799703,0.038320,1.084944,9.982441,-0.003302,-0.006663,0.000239,0.000000,-0.030518,0.000000
0.809799,0.040715,1.092728,9.983040,-0.000907,0.001120,0.000838,0.000000,-0.030518,0.000000
0.819897,0.041314,1.089734,9.989028,-0.000308,-0.001873,0.006825,0.030518,-0.030518,0.000000
0.829995,0.033530,1.092129,9.995614,-0.008092,0.000522,0.013411,0.000000,0.000000,-0.061035
0.840160,0.037123,1.096919,9.990824,-0.004500,0.005312,0.008621,-0.030518,-0.030518,-0.061035
0.850250,0.036524,1.096320,9.984238,-0.005098,0.004713,0.002035,0.000000,0.000000,-0.061035
0.860340,0.043709,1.097518,9.982441,0.002087,0.005910,0.000239,0.000000,0.000000,-0.030518
0.870431,0.038320,1.095721,9.994417,-0.003302,0.004114,0.012214,-0.030518,-0.030518,-0.061035
0.880521,0.042512,1.090333,9.987231,0.000889,-0.001275,0.005029,-0.030518,-0.030518,-0.091553
0.890616,0.036524,1.086740,9.986034,-0.005098,-0.004867,0.003831,-0.030518,0.000000,-0.091553
0.900707,0.043110,1.090931,9.984238,0.001488,-0.000676,0.002035,0.000000,0.000000,-0.030518
0.910796,0.047302,1.090333,9.982441,0.005679,-0.001275,0.000239,-0.030518,0.030518,-0.061035
0.920887,0.051493,1.092728,9.985435,0.009870,0.001120,0.003233,-0.030518,0.030518,0.000000
0.930977,0.052690,1.091530,9.981244,0.011068,-0.000077,-0.000959,-0.030518,0.000000,-0.030518
0.941100,0.051493,1.092728,9.978849,0.009870,0.001120,-0.003354,-0.091553,-0.061035,-0.030518
0.951191,0.043110,1.095721,9.975256,0.001488,0.004114,-0.006946,-0.061035,-0.030518,0.000000
0.961281,0.041913,1.098715,9.977651,0.000290,0.007108,-0.004551,-0.030518,-0.030518,-0.030518
0.971371,0.038320,1.095721,9.990225,-0.003302,0.004114,0.008023,-0.061035,0.000000,-0.030518
0.981462,0.037123,1.092728,9.988429,-0.004500,0.001120,0.006226,-0.061035,0.030518,-0.061035
0.991552,0.039518,1.090931,9.985435,-0.002105,-0.000676,0.003233,-0.061035,0.000000,-0.061035
1.001638,0.044907,1.094524,9.989028,0.003284,0.002917,0.006825,-0.061035,0.000000,-0.061035
1.011728,0.041913,1.092129,9.993818,0.000290,0.000522,0.011615,-0.061035,0.000000,0.000000
1.021814,0.046104,1.087339,9.993219,0.004482,-0.004268,0.011016,-0.061035,0.000000,-0.030518
1.031899,0.047302,1.078956,9.990824,0.005679,-0.012651,0.008621,-0.061035,0.030518,0.000000
1.041989,0.040715,1.081950,9.995015,-0.000907,-0.009657,0.012813,-0.030518,0.061035,0.000000
1.052082,0.043110,1.081351,9.992620,0.001488,-0.010256,0.010418,-0.030518,0.030518,-0.030518
1.062173,0.043709,1.083746,9.993818,0.002087,-0.007861,0.011615,-0.061035,0.030518,-0.030518
1.072270,0.038320,1.087938,9.994417,-0.003302,-0.003670,0.012214,-0.030518,0.061035,0.000000
1.082368,0.044907,1.091530,9.995614,0.003284,-0.000077,0.013411,-0.030518,0.061035,-0.030518
1.092459,0.041913,1.090931,9.991423,0.000290,-0.000676,0.009220,-0.030518,0.091553,-0.030518
1.102545,0.046104,1.096320,9.992021,0.004482,0.004713,0.009819,-0.030518,0.030518,0.000000
1.112637,0.048499,1.093925,9.986633,0.006877,0.002318,0.004430,-0.030518,0.061035,0.030518
1.122729,0.050295,1.089734,9.986034,0.008673,-0.001873,0.003831,0.000000,0.061035,0.000000
1.132820,0.048499,1.090931,9.984836,0.006877,-0.000676,0.002634,-0.061035,0.061035,0.000000
1.142982,0.047900,1.090333,9.986633,0.006278,-0.001275,0.004430,-0.061035,0.061035,-0.030518
1.153069,0.046703,1.096320,9.984238,0.005080,0.004713,0.002035,-0.030518,0.030518,0.000000
1.163156,0.043110,1.089135,9.991423,0.001488,-0.002472,0.009220,-0.030518,0.030518,0.000000
1.173245,0.043709,1.091530,9.995614,0.002087,-0.000077,0.013411,-0.030518,0.000000,-0.030518
1.183332,0.047900,1.094524,9.995015,0.006278,0.002917,0.012813,0.000000,0.030518,0.000000
1.193422,0.046703,1.095123,9.987830,0.005080,0.003515,0.005628,0.000000,0.000000,0.030518
1.203507,0.044308,1.101709,9.982441,0.002685,0.010102,0.000239,-0.030518,0.030518,0.000000
1.213596,0.049098,1.099913,9.987830,0.007475,0.008305,0.005628,-0.030518,0.000000,0.030518
1.223682,0.044907,1.096919,9.991423,0.003284,0.005312,0.009220,0.000000,0.030518,0.000000
1.233770,0.048499,1.098715,9.993818,0.006877,0.007108,0.011615,0.030518,0.030518,0.000000
1.243927,0.047302,1.096919,9.995015,0.005679,0.005312,0.012813,0.000000,0.061035,0.000000
1.254023,0.049697,1.083746,9.987231,0.008074,-0.007861,0.005029,0.000000,0.061035,0.000000
1.264116,0.049697,1.083746,9.984836,0.008074,-0.007861,0.002634,0.000000,0.061035,-0.030518
1.274210,0.046104,1.084345,9.986633,0.004482,-0.007262,0.004430,0.000000,0.061035,-0.030518
1.284302,0.040715,1.085543,9.989626,-0.000907,-0.006065,0.007424,0.000000,0.061035,-0.030518
1.294396,0.040715,1.084944,9.983040,-0.000907,-0.006663,0.000838,0.030518,0.030518,-0.030518
1.304488,0.042512,1.083746,9.982441,0.000889,-0.007861,0.000239,0.030518,0.030518,-0.061035
1.314579,0.041314,1.092129,9.986633,-0.000308,0.000522,0.004430,0.030518,0.030518,-0.061035
1.324671,0.038320,1.088536,9.987231,-0.003302,-0.003071,0.005029,0.061035,0.030518,-0.030518
1.334765,0.032333,1.081950,9.984238,-0.009290,-0.009657,0.002035,0.000000,0.000000,-0.030518
1.344925,0.026345,1.084944,9.980046,-0.015277,-0.006663,-0.002156,0.030518,0.000000,0.000000
1.355013,0.034129,1.080154,9.978849,-0.007493,-0.011453,-0.003354,0.061035,0.000000,0.030518
1.365099,0.028740,1.081351,9.989626,-0.012882,-0.010256,0.007424,0.000000,-0.030518,0.000000
1.375186,0.031135,1.080154,9.991423,-0.010487,-0.011453,0.009220,0.030518,-0.030518,0.000000
1.385274,0.035925,1.085543,9.983040,-0.005697,-0.006065,0.000838,0.000000,0.000000,-0.030518
1.395362,0.032932,1.083746,9.984836,-0.008691,-0.007861,0.002634,0.030518,0.000000,-0.030518
1.405450,0.039518,1.083746,9.986034,-0.002105,-0.007861,0.003831,0.030518,0.030518,-0.061035
1.415537,0.037722,1.089135,9.994417,-0.003901,-0.002472,0.012214,0.000000,0.030518,0.000000
1.425625,0.038320,1.087938,9.992021,-0.003302,-0.003670,0.009819,0.000000,0.000000,-0.030518
1.435713,0.038320,1.089734,9.989626,-0.003302,-0.001873,0.007424,0.030518,0.030518,-0.030518
1.445863,0.035327,1.090931,9.990225,-0.006296,-0.000676,0.008023,0.030518,0.030518,-0.061035
1.455958,0.041314,1.089734,9.986034,-0.000308,-0.001873,0.003831,0.061035,0.000000,-0.061035
1.466053,0.037123,1.093925,9.983639,-0.004500,0.002318,0.001436,0.030518,0.000000,-0.061035
1.476148,0.041314,1.089734,9.978250,-0.000308,-0.001873,-0.003953,0.000000,0.000000,-0.061035
1.486244,0.043709,1.090931,9.977651,0.002087,-0.000676,-0.004551,0.000000,0.000000,-0.061035
1.496340,0.041913,1.095721,9.974059,0.000290,0.004114,-0.008144,0.030518,0.000000,-0.061035
1.506438,0.036524,1.091530,9.980046,-0.005098,-0.000077,-0.002156,0.030518,0.000000,-0.030518
1.516534,0.040117,1.086141,9.984836,-0.001506,-0.005466,0.002634,0.000000,0.000000,-0.030518
1.526628,0.043110,1.081950,9.982441,0.001488,-0.009657,0.000239,-0.030518,0.030518,-0.030518
1.536739,0.047302,1.082549,9.979448,0.005679,-0.009058,-0.002755,0.000000,0.000000,-0.030518
1.546909,0.047900,1.081351,9.971664,0.006278,-0.010256,-0.010539,0.000000,0.030518,-0.030518
1.557000,0.044308,1.082549,9.971664,0.002685,-0.009058,-0.010539,-0.030518,0.030518,-0.030518
1.567089,0.039518,1.087938,9.976454,-0.002105,-0.003670,-0.005749,-0.061035,0.030518,0.000000
1.577179,0.038320,1.094524,9.982441,-0.003302,0.002917,0.000239,-0.030518,0.000000,-0.030518
1.587269,0.036524,1.096320,9.984238,-0.005098,0.004713,0.002035,-0.030518,0.000000,0.000000
1.597358,0.031734,1.096320,9.974059,-0.009888,0.004713,-0.008144,0.000000,0.000000,-0.030518
1.607448,0.027543,1.093925,9.972861,-0.014080,0.002318,-0.009341,0.000000,0.000000,0.000000
1.617539,0.031135,1.092129,9.972263,-0.010487,0.000522,-0.009940,0.000000,0.030518,-0.030518
1.627628,0.025148,1.086141,9.972861,-0.016475,-0.005466,-0.009341,0.030518,0.030518,-0.061035
1.637718,0.027543,1.086141,9.966874,-0.014080,-0.005466,-0.015329,0.000000,0.030518,-0.091553
1.647867,0.035327,1.089135,9.968071,-0.006296,-0.002472,-0.014131,-0.030518,0.000000,-0.061035
1.657964,0.035327,1.091530,9.966275,-0.006296,-0.000077,-0.015928,-0.030518,0.030518,-0.030518
1.668061,0.031734,1.082549,9.978250,-0.009888,-0.009058,-0.003953,-0.030518,0.000000,-0.061035
1.678158,0.029938,1.077759,9.981244,-0.011685,-0.013848,-0.000959,-0.030518,0.000000,0.000000
1.688254,0.033530,1.083148,9.969269,-0.008092,-0.008460,-0.012934,-0.030518,-0.061035,-0.030518
1.698348,0.036524,1.080753,9.969269,-0.005098,-0.010855,-0.012934,-0.030518,-0.061035,0.000000
1.708445,0.037123,1.086141,9.970466,-0.004500,-0.005466,-0.011736,-0.030518,-0.030518,-0.030518
1.718540,0.041314,1.092728,9.976454,-0.000308,0.001120,-0.005749,0.000000,-0.030518,0.000000
1.728637,0.032932,1.098116,9.971065,-0.008691,0.006509,-0.011138,0.000000,0.000000,-0.030518
1.738734,0.027543,1.099913,9.967473,-0.014080,0.008305,-0.014730,-0.030518,0.000000,-0.030518
1.748900,0.032932,1.092728,9.966874,-0.008691,0.001120,-0.015329,0.000000,0.000000,0.000000
1.758990,0.029938,1.090333,9.965078,-0.011685,-0.001275,-0.017125,0.000000,-0.030518,0.000000
1.769081,0.037722,1.095721,9.970466,-0.003901,0.004114,-0.011736,0.030518,0.000000,-0.030518
1.779172,0.040117,1.088536,9.972263,-0.001506,-0.003071,-0.009940,0.061035,0.030518,-0.030518
1.789262,0.041913,1.085543,9.978849,0.000290,-0.006065,-0.003354,0.030518,0.000000,-0.030518
1.799352,0.044308,1.090333,9.978849,0.002685,-0.001275,-0.003354,0.061035,0.030518,-0.030518
1.809443,0.041913,1.091530,9.989626,0.000290,-0.000077,0.007424,0.000000,0.061035,0.000000
1.819533,0.038320,1.089734,9.989626,-0.003302,-0.001873,0.007424,-0.030518,0.030518,0.000000
1.829623,0.047900,1.089734,9.989626,0.006278,-0.001873,0.007424,-0.030518,0.030518,-0.030518
1.839713,0.047900,1.089135,9.983639,0.006278,-0.002472,0.001436,-0.030518,0.030518,-0.030518
1.849868,0.049697,1.090333,9.969269,0.008074,-0.001275,-0.012934,-0.061035,0.030518,-0.030518
1.859961,0.048499,1.088536,9.966275,0.006877,-0.003071,-0.015928,-0.091553,0.030518,-0.061035
1.870059,0.043110,1.086141,9.967473,0.001488,-0.005466,-0.014730,-0.061035,0.030518,-0.030518
1.880155,0.038919,1.086141,9.966275,-0.002703,-0.005466,-0.015928,-0.061035,0.030518,-0.030518
1.890253,0.036524,1.090931,9.966874,-0.005098,-0.000676,-0.015329,-0.030518,0.030518,-0.030518
1.900350,0.034129,1.090333,9.971664,-0.007493,-0.001275,-0.010539,0.030518,0.030518,-0.061035
1.910447,0.044308,1.085543,9.972861,0.002685,-0.006065,-0.009341,0.000000,0.061035,-0.030518
1.920540,0.042512,1.082549,9.975256,0.000889,-0.009058,-0.006946,0.000000,0.030518,-0.030518
1.930637,0.043709,1.080154,9.972861,0.002087,-0.011453,-0.009341,0.000000,0.000000,-0.030518
1.940734,0.043110,1.084944,9.969269,0.001488,-0.006663,-0.012934,0.000000,0.000000,0.030518
1.950900,0.039518,1.084345,9.968071,-0.002105,-0.007262,-0.014131,0.000000,0.000000,0.030518
1.960989,0.037123,1.086141,9.973460,-0.004500,-0.005466,-0.008743,-0.091553,0.000000,0.000000
1.971079,0.028740,1.081950,9.977651,-0.012882,-0.009657,-0.004551,-0.091553,0.000000,0.000000
1.981169,0.033530,1.080753,9.980046,-0.008092,-0.010855,-0.002156,-0.091553,0.000000,0.000000
1.991258,0.040715,1.077160,9.981843,-0.000907,-0.014447,-0.000360,-0.091553,0.030518,0.030518
2.001347,0.046703,1.074166,9.971664,0.005080,-0.017441,-0.010539,-0.061035,0.030518,0.000000
2.011437,0.044308,1.078358,9.977053,0.002685,-0.013250,-0.005150,-0.091553,0.030518,-0.030518
2.021527,0.046703,1.087339,9.975256,0.005080,-0.004268,-0.006946,-0.091553,0.030518,-0.030518
2.031613,0.043110,1.091530,9.971664,0.001488,-0.000077,-0.010539,-0.061035,0.030518,-0.061035
2.041703,0.039518,1.086141,9.963880,-0.002105,-0.005466,-0.018323,-0.030518,0.000000,-0.030518
2.051790,0.044907,1.086141,9.972263,0.003284,-0.005466,-0.009940,-0.030518,0.000000,-0.030518
2.061881,0.041314,1.079555,9.983040,-0.000308,-0.012052,0.000838,-0.030518,0.000000,-0.030518
2.071973,0.046703,1.080154,9.980645,0.005080,-0.011453,-0.001558,-0.030518,0.000000,-0.061035
2.082064,0.043110,1.079555,9.974658,0.001488,-0.012052,-0.007545,0.000000,0.000000,0.000000
2.092155,0.038919,1.081950,9.971065,-0.002703,-0.009657,-0.011138,-0.030518,0.030518,0.030518
2.102247,0.042512,1.077160,9.970466,0.000889,-0.014447,-0.011736,0.061035,0.061035,0.030518
2.112337,0.043110,1.081351,9.968071,0.001488,-0.010256,-0.014131,0.061035,0.030518,0.030518
2.122429,0.045505,1.078956,9.981843,0.003883,-0.012651,-0.000360,0.061035,0.030518,0.000000
2.132521,0.046703,1.090333,9.967473,0.005080,-0.001275,-0.014730,0.152588,0.000000,-0.030518
2.142615,0.049098,1.085543,9.977651,0.007475,-0.006065,-0.004551,0.122070,-0.030518,-0.030518
2.152782,0.044308,1.089734,9.971065,0.002685,-0.001873,-0.011138,0.183105,0.000000,-0.061035
2.162868,0.043709,1.095123,9.982441,0.002087,0.003515,0.000239,0.122070,-0.030518,-0.030518
2.172954,0.049697,1.092129,9.980046,0.008074,0.000522,-0.002156,0.091553,0.000000,-0.030518
2.183040,0.043110,1.092728,9.971065,0.001488,0.001120,-0.011138,0.061035,0.030518,-0.030518
2.193127,0.041314,1.094524,9.969269,-0.000308,0.002917,-0.012934,0.091553,0.030518,-0.061035
2.203210,0.040715,1.096320,9.973460,-0.000907,0.004713,-0.008743,0.030518,0.030518,-0.030518
2.213300,0.048499,1.096919,9.933942,0.006877,0.005312,-0.048260,0.061035,0.030518,-0.061035
2.223385,0.057480,0.677791,10.266251,0.015858,-0.413817,0.284049,-0.335693,-0.030518,-1.037598
2.233473,-0.016765,0.739462,10.241702,-0.058388,-0.352145,0.259500,2.166748,-1.098633,-2.990723
2.243559,-0.368234,0.478405,10.117760,-0.409857,-0.613202,0.135557,4.241943,-1.617432,-3.417969
2.253711,-0.207169,0.701741,9.843530,-0.248792,-0.389867,-0.138672,3.509521,-1.586914,-3.448486
2.263803,0.133522,1.196312,9.801019,0.091900,0.104705,-0.181184,-0.183105,-0.976562,-6.530762
2.273899,0.226329,1.547183,9.925560,0.184707,0.455575,-0.056643,-1.312256,-0.366211,-5.584717
2.283991,0.192200,1.435215,9.968071,0.150578,0.343608,-0.014131,-1.098633,-0.213623,-4.364014
2.294087,0.147892,1.277144,9.948312,0.106270,0.185537,-0.033890,-0.976562,0.000000,-2.990723
2.304183,0.138312,1.200504,9.948312,0.096690,0.108896,-0.033890,-1.037598,0.061035,-2.807617
2.314281,0.103585,1.237028,9.931547,0.061962,0.145420,-0.050655,-1.342773,0.274658,-3.082275
2.324374,0.097597,1.242416,9.895622,0.055975,0.150809,-0.086581,-1.922607,0.488281,-2.868652
2.334470,0.125739,1.253793,9.875264,0.084116,0.162185,-0.106938,-4.302979,1.129150,-3.143311
2.344563,0.096998,1.246608,9.783655,0.055376,0.155000,-0.198548,-6.195068,1.647949,-3.540039
2.354753,0.058079,1.227448,9.745334,0.016457,0.135840,-0.236868,-8.789062,2.410889,-3.326416
2.364839,0.080832,1.249003,9.644744,0.039209,0.157395,-0.337459,-16.174316,4.699707,-2.441406
2.374929,0.070653,1.202899,9.665700,0.029031,0.111291,-0.316503,-20.751953,6.011963,-2.227783
2.385015,0.028141,0.947230,9.863289,-0.013481,-0.144377,-0.118913,-27.679443,8.026123,-2.288818
2.395104,-0.066462,0.649050,10.276430,-0.108084,-0.442557,0.294227,-29.144287,8.361816,-2.899170
2.405192,-0.085023,0.337099,10.378218,-0.126646,-0.754508,0.396016,-20.965576,5.065918,-6.286621
2.415281,-0.062271,0.494572,10.201586,-0.103893,-0.597036,0.219383,-17.974854,4.119873,-8.178711
2.425369,-0.094005,0.667013,10.311757,-0.135627,-0.424594,0.329554,-16.174316,3.631592,-9.704590
2.435459,-0.106578,0.871188,10.172845,-0.148201,-0.220419,0.190643,-9.704590,2.105713,-6.683350
2.445548,-0.099992,0.854423,10.125544,-0.141615,-0.237184,0.143341,-7.446289,1.678467,-5.218506
2.455700,-0.095202,0.817300,10.085427,-0.136824,-0.274307,0.103225,-4.516602,0.976562,-3.173828
2.465796,-0.091011,0.808918,10.080038,-0.132633,-0.282689,0.097836,-3.570557,0.732422,-2.502441
2.475892,-0.101788,0.799338,10.069860,-0.143411,-0.292269,0.087657,-2.258301,0.427246,-1.708984
2.485988,-0.340093,0.806523,10.060878,-0.381715,-0.285084,0.078676,-1.831055,0.274658,-1.892090
2.496084,-0.503553,0.801733,10.053693,-0.545175,-0.289874,0.071491,-1.434326,-0.274658,-4.516602
2.506181,-0.481399,0.758024,10.046508,-0.523021,-0.333584,0.064306,-1.129150,-0.518799,-6.072998
2.516278,-0.422122,0.749042,10.039922,-0.463745,-0.342565,0.057719,-0.976562,-0.671387,-6.866455
2.526375,-0.403561,0.710123,10.039323,-0.445183,-0.381484,0.057120,-0.518799,-0.793457,-6.988525
2.536472,-0.564027,0.735870,10.036928,-0.605650,-0.355737,0.054725,-0.488281,-0.854492,-6.927490
2.546569,-0.452659,0.864003,10.035731,-0.494281,-0.227604,0.053528,-0.396729,-0.854492,-5.889893
2.556737,-0.301772,0.904719,10.008188,-0.343395,-0.186889,0.025985,-0.030518,-0.732422,-5.187988
2.566828,-0.205972,0.963397,9.986034,-0.247594,-0.128211,0.003831,0.457764,-0.305176,-2.685547
2.576919,-0.376018,0.747845,10.029743,-0.417641,-0.343762,0.047540,0.518799,-0.396729,-2.838135
2.587008,-0.552052,0.838856,10.021959,-0.593674,-0.252752,0.039757,0.610352,-0.518799,-3.387451
2.597098,-0.495769,0.652643,10.041718,-0.537391,-0.438964,0.059515,0.610352,-0.396729,-2.716064
2.607188,-0.452060,0.636476,10.065070,-0.493682,-0.455131,0.082867,0.335693,-0.335693,-2.716064
2.617278,-0.438289,0.708926,10.023157,-0.479911,-0.382681,0.040954,0.213623,-0.152588,-2.807617
2.627367,-0.527503,0.765807,10.027947,-0.569125,-0.325800,0.045744,-0.091553,-0.061035,-2.624512
2.637459,-0.487386,0.763412,10.035731,-0.529009,-0.328195,0.053528,-0.030518,0.122070,-1.953125
2.647552,-0.471220,0.719703,10.038724,-0.512843,-0.371904,0.056522,0.244141,0.244141,-1.464844
2.657722,-0.562830,0.714315,10.006392,-0.604452,-0.377293,0.024189,0.671387,0.396729,-1.556396
2.667819,-0.518522,0.573008,10.065668,-0.560144,-0.518599,0.083466,0.701904,0.305176,-2.746582
2.677917,-0.458047,0.558040,10.032138,-0.499670,-0.533568,0.049935,0.885010,0.305176,-3.204346
2.688014,-0.399370,0.522114,10.060878,-0.440992,-0.569493,0.078676,1.037598,0.274658,-3.967285
2.698112,-0.425116,0.528102,10.049502,-0.466738,-0.563505,0.067299,0.610352,0.183105,-3.845215
2.708209,-0.454455,0.555046,10.029144,-0.496077,-0.536561,0.046942,0.244141,0.152588,-3.540039
2.718302,-0.438289,0.607137,10.075248,-0.479911,-0.484470,0.093046,0.244141,0.335693,-2.227783
2.728398,-0.518522,0.576601,9.995015,-0.560144,-0.515006,0.012813,-0.152588,0.427246,-0.274658
2.738510,-0.459844,0.517324,10.082433,-0.501466,-0.574283,0.100231,-0.152588,0.518799,-0.488281
2.748607,-0.493374,0.738864,10.023755,-0.534996,-0.352744,0.041553,-0.457764,0.793457,0.610352
2.758787,-0.198188,0.760419,9.999207,-0.239810,-0.331189,0.017004,0.061035,1.098633,4.211426
2.768878,-0.210163,0.840652,10.033336,-0.251785,-0.250955,0.051133,0.579834,1.434326,4.425049
2.778968,-0.285606,1.193917,10.003398,-0.327229,0.102310,0.021195,1.190186,1.586914,5.157471
2.789058,-0.581391,1.260379,9.616003,-0.623013,0.168772,-0.366199,1.892090,2.227783,6.713867
2.799149,-0.514929,0.922083,9.777068,-0.556552,-0.169525,-0.205134,-0.335693,1.159668,0.762939
2.809239,-0.147892,0.774789,10.014774,-0.189515,-0.316818,0.032572,-0.244141,0.335693,-2.685547
2.819329,-0.189805,0.762814,10.061477,-0.231428,-0.328794,0.079274,-0.396729,0.244141,-1.953125
2.829420,-0.253872,0.650847,9.979448,-0.295495,-0.440761,-0.002755,-0.427246,-0.427246,-4.241943
2.839509,-0.132325,0.747246,10.026151,-0.173947,-0.344361,0.043948,0.457764,-0.457764,-5.432129
2.849599,0.020358,0.610131,10.117760,-0.021265,-0.481476,0.135557,1.495361,-0.579834,-7.781982
2.859750,-0.426313,0.956212,10.024953,-0.467936,-0.135396,0.042750,0.671387,-0.549316,-8.636475
2.869846,-0.510139,1.128054,9.875264,-0.551762,0.036447,-0.106938,-0.488281,-0.579834,-7.354736
2.879942,-0.021555,0.958607,10.021959,-0.063178,-0.133001,0.039757,-2.105713,-0.976562,-7.446289
2.890039,-0.129331,1.022075,10.039922,-0.170954,-0.069533,0.057719,-2.716064,-1.159668,-7.904053
2.900135,-0.326920,0.717907,10.067465,-0.368543,-0.373700,0.085262,-3.204346,-1.373291,-9.979248
2.910232,-0.191003,0.698148,10.002200,-0.232625,-0.393459,0.019998,-2.258301,-1.434326,-11.138916
2.920329,0.092208,0.847837,10.048903,0.050586,-0.243770,0.066701,-1.098633,-1.251221,-9.857178
2.930424,0.129331,0.787961,10.068662,0.087709,-0.303646,0.086459,-0.579834,-1.007080,-8.392334
2.940521,-0.170046,0.990939,10.038724,-0.211669,-0.100668,0.056522,-0.335693,-0.823975,-5.615234
2.950617,-0.262853,0.678988,10.056687,-0.304476,-0.412619,0.074484,0.610352,-0.793457,-4.913330
2.960781,-0.134121,0.601749,10.089619,-0.175744,-0.489859,0.107416,1.861572,-0.885010,-3.967285
2.970870,-0.068857,0.792153,10.038724,-0.110479,-0.299455,0.056522,1.831055,-0.579834,-2.624512
2.980961,-0.037123,0.780776,9.971664,-0.078745,-0.310831,-0.010539,1.708984,-0.244141,0.610352
2.991051,-0.077838,0.601749,10.066866,-0.119461,-0.489859,0.084663,1.220703,0.183105,-0.579834
3.001140,0.034728,0.753832,10.006990,-0.006895,-0.337775,0.024788,1.098633,0.244141,-1.800537
3.011230,0.016166,0.722098,9.931547,-0.025456,-0.369509,-0.050655,1.861572,1.190186,1.342773
3.021316,-0.073647,0.613724,10.066866,-0.115269,-0.477883,0.084663,2.838135,1.251221,-0.976562
3.031405,-0.067061,0.470023,10.072853,-0.108683,-0.621585,0.090651,2.563477,1.342773,-3.967285
3.041495,-0.327519,0.643063,10.053094,-0.369141,-0.448544,0.070892,1.647949,1.312256,-4.547119
3.051580,-0.726888,0.949026,10.014774,-0.768511,-0.142581,0.032572,-0.793457,1.007080,-4.302979
3.061775,-0.214953,0.753234,10.066866,-0.256575,-0.338374,0.084663,-2.349854,0.762939,-1.861572
3.071867,-0.343685,0.656834,10.035731,-0.385308,-0.434773,0.053528,-3.173828,0.549316,-1.373291
3.081957,-0.682581,0.629890,10.042317,-0.724203,-0.461717,0.060114,-2.777100,-0.183105,-1.525879
3.092050,-0.595162,0.856219,9.948911,-0.636785,-0.235388,-0.033292,-2.288818,-0.305176,-1.159668
3.102141,-0.477208,0.778980,10.026151,-0.518830,-0.312627,0.043948,-0.762939,-1.037598,-0.671387
3.112233,-0.369432,0.805325,10.012978,-0.411054,-0.286282,0.030775,-0.549316,-1.129150,1.342773
3.122325,-0.442480,0.816702,10.057885,-0.484102,-0.274906,0.075682,-1.037598,-1.190186,2.502441
3.132416,-0.149090,0.572410,10.108779,-0.190712,-0.519198,0.126576,0.762939,-1.312256,1.800537
3.142547,-0.261656,0.868793,9.999207,-0.303278,-0.222814,0.017004,1.495361,-0.854492,2.532959
3.152678,-0.316741,0.646655,10.054292,-0.358364,-0.444952,0.072089,0.854492,-0.427246,3.509521
3.162912,-0.619113,0.610730,10.124346,-0.660735,-0.480877,0.142144,0.213623,-0.640869,0.488281
3.173013,-0.393382,0.580792,10.042916,-0.435004,-0.510815,0.060713,0.305176,0.274658,-1.190186
3.183100,-0.343087,0.735870,10.091415,-0.384709,-0.355737,0.109212,-0.518799,0.640869,-0.152588
3.193192,-0.317340,1.134042,9.772278,-0.358963,0.042435,-0.209924,-2.380371,1.129150,2.563477
3.203282,-0.443079,0.778980,10.098001,-0.484701,-0.312627,0.115798,-1.434326,0.579834,0.701904
3.213372,-0.567620,0.655038,10.247091,-0.609242,-0.436569,0.264888,-0.640869,0.091553,-0.915527
3.223462,-0.407153,0.637075,10.051298,-0.448776,-0.454532,0.069096,-0.640869,-0.366211,-2.258301
3.233550,-0.483195,0.720302,9.966275,-0.524818,-0.371305,-0.015928,-0.274658,-0.305176,-2.777100
3.243639,-0.675994,0.646057,10.048903,-0.717617,-0.445551,0.066701,-1.220703,-0.091553,-3.295898
3.253728,-0.590372,0.789758,10.182426,-0.631995,-0.301850,0.200223,-3.295898,-0.793457,-4.028320
3.263853,-0.735271,0.847238,10.356663,-0.776893,-0.244369,0.374461,0.396729,-1.281738,-2.532959
3.273940,-0.567620,0.947829,9.877061,-0.609242,-0.143778,-0.105142,1.708984,-0.396729,-1.800537
3.284030,-0.685574,1.039438,9.839339,-0.727197,-0.052169,-0.142864,1.281738,-1.159668,-3.173828
3.294119,-0.608934,0.835862,10.072255,-0.650556,-0.255745,0.090052,1.403809,-1.129150,-4.608154
3.304209,-0.479603,0.902922,10.018965,-0.521225,-0.188685,0.036763,2.349854,-0.488281,-4.669189
3.314298,-0.455652,1.127455,9.888437,-0.497275,0.035848,-0.093766,0.823975,-0.518799,-4.638672
3.324388,-0.513732,0.705932,9.791439,-0.555354,-0.385675,-0.190764,0.488281,0.640869,-4.211426
3.334477,-0.591570,0.962798,9.787846,-0.633192,-0.128809,-0.194357,-1.342773,1.190186,-6.927490
3.344568,-0.295785,0.920286,10.074051,-0.337407,-0.171321,0.091848,-1.403809,0.488281,-7.324219
3.354657,-0.259860,0.468226,9.954899,-0.301482,-0.623381,-0.027304,-1.647949,-0.152588,-7.751465
3.364818,-0.759221,0.861010,9.942325,-0.800844,-0.230598,-0.039878,-1.556396,-0.793457,-9.368896
3.374915,-0.226928,0.825683,10.099199,-0.268551,-0.265924,0.116996,-1.281738,-0.701904,-7.141113
3.385012,-0.635279,0.777783,9.951905,-0.676901,-0.313825,-0.030298,-1.831055,-0.610352,-5.493164
3.395109,-0.720302,0.557441,10.201586,-0.761925,-0.534166,0.219383,-0.152588,-0.640869,-4.211426
3.405206,-0.390987,0.359852,10.121353,-0.432609,-0.731756,0.139150,0.701904,-0.640869,-2.227783
3.415302,-0.126337,0.810714,10.033934,-0.167960,-0.280893,0.051732,1.525879,-0.061035,0.000000
3.425399,-0.306563,0.896935,9.978250,-0.348185,-0.194672,-0.003953,1.647949,-0.457764,1.342773
3.435496,-0.179626,0.719703,9.862690,-0.221249,-0.371904,-0.119512,1.556396,-0.396729,1.983643
3.445594,-0.196392,0.813708,9.992021,-0.238014,-0.277899,0.009819,-0.518799,-0.610352,3.204346
3.455690,-0.559237,0.893941,10.314750,-0.600860,-0.197666,0.332548,-0.976562,0.000000,2.563477
3.465813,-0.288001,0.142504,10.065070,-0.329624,-0.949104,0.082867,-1.190186,-0.579834,7.049561
3.475910,-0.385598,0.252675,10.154284,-0.427221,-0.838933,0.172081,0.457764,0.946045,6.805420
3.486007,-0.122146,0.380808,10.141710,-0.163768,-0.710799,0.159508,0.579834,0.854492,6.805420
3.496103,-0.198188,0.619711,10.139315,-0.239810,-0.471896,0.157113,0.213623,1.007080,5.798340
3.506202,-0.516127,0.535886,9.968670,-0.557749,-0.555722,-0.013533,0.305176,0.396729,4.333496
3.516298,-0.303569,0.454455,9.950707,-0.345191,-0.637152,-0.031495,0.183105,-0.427246,3.936768
3.526395,-0.239502,0.441881,10.133926,-0.281124,-0.649726,0.151724,-1.251221,-0.091553,5.493164
3.536491,-0.226329,0.644859,10.220147,-0.267952,-0.446748,0.237944,-1.434326,-0.183105,5.981445
3.546588,-0.396974,0.580193,10.124346,-0.438597,-0.511414,0.142144,-0.610352,0.671387,8.178711
3.556685,-0.295785,0.462838,10.025552,-0.337407,-0.628770,0.043349,0.366211,0.823975,7.263184
3.566811,-0.267643,0.464634,10.081835,-0.309266,-0.626973,0.099632,0.213623,0.701904,2.288818
3.576907,-0.399968,0.674198,10.045909,-0.441591,-0.417409,0.063707,0.518799,0.518799,1.007080
3.587003,-0.532293,0.626298,10.091415,-0.573916,-0.465310,0.109212,0.122070,0.396729,-0.305176
3.597099,-0.673599,0.966390,9.915381,-0.715222,-0.125217,-0.066822,0.427246,1.464844,-0.823975
3.607196,-0.296384,0.622705,9.815988,-0.338006,-0.468902,-0.166215,0.579834,1.892090,-1.739502
3.617292,-0.676593,0.634081,10.078841,-0.718215,-0.457526,0.096638,0.183105,0.701904,-4.425049
3.627389,-0.446671,0.838257,10.096205,-0.488294,-0.253350,0.114002,0.213623,-0.122070,-4.486084
3.637486,-0.232317,0.761616,10.148297,-0.273939,-0.329991,0.166094,-0.396729,-1.037598,-6.683350
3.647582,-0.050894,0.756826,10.062076,-0.092517,-0.334781,0.079873,0.274658,-1.708984,-9.826660
3.657679,-0.225132,0.809517,10.044113,-0.266754,-0.282091,0.061911,1.495361,-1.312256,-8.880615
3.667800,-0.255668,0.723895,10.097402,-0.297291,-0.367713,0.115200,1.739502,-0.518799,-8.697510
3.677897,-0.605940,0.589175,9.920770,-0.647562,-0.502432,-0.061433,1.861572,-0.244141,-8.941650
3.687993,-0.735870,0.507145,10.014175,-0.777492,-0.584462,0.031973,-0.549316,-0.915527,-11.474609
3.698089,-0.690364,0.665217,10.053094,-0.731987,-0.426391,0.070892,-1.068115,-1.129150,-12.420654
3.708185,-0.398771,0.971180,10.079440,-0.440393,-0.120427,0.097237,-1.708984,-0.091553,-9.338379
3.718280,-0.675994,0.816103,10.085427,-0.717617,-0.275504,0.103225,-2.044678,-1.190186,-9.155273
3.728376,-0.532892,0.708926,10.044712,-0.574514,-0.382681,0.062509,-0.427246,-1.129150,-10.650635
3.738472,-0.168250,0.906515,9.842333,-0.209873,-0.185092,-0.139870,-0.274658,-0.122070,-8.392334
3.748569,-0.347877,0.856219,10.017169,-0.389499,-0.235388,0.034967,0.457764,0.396729,-9.490967
3.758665,-0.226928,0.982557,10.053693,-0.268551,-0.109050,0.071491,0.061035,0.335693,-9.277344
3.768787,-0.442480,0.860411,9.912387,-0.484102,-0.231196,-0.069816,-0.854492,-0.579834,-8.148193
3.778883,-0.313748,0.823887,10.010583,-0.355370,-0.267721,0.028380,-0.244141,-1.403809,-8.270264
3.788980,-0.322729,0.832269,10.147698,-0.364351,-0.259338,0.165495,0.244141,-1.586914,-6.835938
3.799075,-0.222737,1.028661,10.103989,-0.264359,-0.062946,0.121786,-0.762939,-0.671387,-1.922607
3.809171,-0.588576,0.771795,9.907597,-0.630198,-0.319812,-0.074606,0.579834,-0.976562,-0.549316
3.819268,-0.241298,0.705333,9.975256,-0.282921,-0.386274,-0.006946,2.197266,-1.770020,2.502441
3.829364,-0.468825,1.056802,10.192006,-0.510448,-0.034805,0.209803,1.708984,-0.549316,4.455566
3.839460,-0.419128,0.662223,9.990824,-0.460751,-0.429384,0.008621,-0.030518,-0.823975,3.448486
3.849556,-0.216151,0.731080,10.059082,-0.257773,-0.360528,0.076879,0.152588,-1.007080,-0.366211
3.859653,-0.096400,0.773591,10.234517,-0.138022,-0.318016,0.252315,0.091553,-0.061035,-1.403809
3.869772,-0.073048,0.801733,10.174043,-0.114671,-0.289874,0.191840,1.434326,1.312256,-4.058838
3.879869,-0.330513,1.013692,9.942325,-0.372135,-0.077915,-0.039878,1.586914,1.251221,-3.234863
3.889966,-0.556243,1.054407,9.942325,-0.597866,-0.037200,-0.039878,-0.701904,0.213623,-2.990723
3.900062,-0.608934,0.871787,9.845925,-0.650556,-0.219820,-0.136277,-2.593994,-0.030518,-0.885010
3.910159,-0.437690,0.831671,10.038724,-0.479312,-0.259937,0.056522,-2.075195,-0.122070,0.732422
3.920255,-0.859213,1.002316,10.031539,-0.900836,-0.089292,0.049337,-3.479004,1.159668,6.713867
3.930352,-0.326321,0.727487,10.032737,-0.367944,-0.364120,0.050534,-2.441406,1.647949,8.178711
3.940445,-0.420326,0.808918,10.098001,-0.461948,-0.282689,0.115798,-0.640869,0.793457,9.918213
3.950542,-0.361648,0.847238,9.821376,-0.403270,-0.244369,-0.160826,0.091553,1.098633,8.544922
3.960637,-0.465233,0.859213,10.042916,-0.506855,-0.232394,0.060713,-0.457764,1.678467,6.103516
3.970760,-0.435295,0.779579,9.854308,-0.476917,-0.312028,-0.127895,-0.640869,2.288818,4.150391
3.980856,0.101190,0.490380,10.115964,0.059567,-0.601227,0.133761,-0.823975,2.014160,3.143311
3.990952,-0.395178,0.919089,9.918375,-0.436801,-0.172518,-0.063828,1.220703,0.061035,-1.678467
4.001049,-0.254471,0.570015,9.984238,-0.296093,-0.521593,0.002035,-0.152588,-0.793457,-3.448486
4.011145,0.662223,1.244811,10.027348,0.620600,0.153204,0.045145,-0.366211,0.030518,-1.007080
4.021241,0.200583,1.169368,9.972861,0.158960,0.077761,-0.009341,0.457764,0.488281,0.396729
4.031338,-0.298779,1.160387,9.895023,-0.340401,0.068780,-0.087179,-1.586914,-1.190186,-3.173828
4.041434,0.144300,0.540676,9.924961,0.102677,-0.550932,-0.057242,2.105713,-2.014160,-4.455566
4.051531,0.307161,0.568218,9.953102,0.265539,-0.523389,-0.029100,2.899170,-2.197266,-4.058838
4.061627,-0.178429,0.969384,9.897418,-0.220051,-0.122223,-0.084784,1.159668,-0.427246,-1.953125
4.071749,-0.095801,0.741259,9.963281,-0.137423,-0.350349,-0.018921,0.549316,-0.152588,0.457764
4.081845,0.343685,-0.224533,10.528506,0.302063,-1.316140,0.546303,-3.479004,-0.366211,-3.204346
4.091941,0.733475,0.431104,9.904603,0.691852,-0.660504,-0.077599,-1.007080,-1.739502,-8.117676
4.102038,-0.800535,1.207689,9.984836,-0.842158,0.116081,0.002634,0.183105,-1.495361,-9.674072
4.112135,-0.541873,0.699944,10.053094,-0.583496,-0.391663,0.070892,0.335693,0.244141,-5.371094
4.122231,-0.314346,0.406555,10.012978,-0.355969,-0.685053,0.030775,-0.854492,1.800537,-0.640869
4.132327,-0.194595,0.481399,10.023157,-0.236218,-0.610208,0.040954,-0.244141,1.678467,-0.579834
4.142424,-0.538281,0.445474,10.163864,-0.579903,-0.646134,0.181661,0.427246,1.312256,-1.525879
4.152520,-0.314945,0.737666,9.939930,-0.356568,-0.353941,-0.042273,2.319336,0.701904,4.028320
4.162619,-0.683179,0.827479,9.902807,-0.724802,-0.264128,-0.079396,1.739502,0.518799,4.119873
4.172744,-0.527503,0.370031,10.057885,-0.569125,-0.721577,0.075682,0.335693,0.854492,4.882812
4.182841,0.154479,0.002395,10.189012,0.112856,-1.089212,0.206809,2.075195,1.129150,3.509521
4.192932,-0.364642,0.726888,10.280621,-0.406264,-0.364719,0.298419,1.556396,1.678467,3.295898
4.203028,-0.414937,0.792153,10.087822,-0.456560,-0.299455,0.105620,1.495361,3.173828,7.171631
4.213125,-0.117356,0.253872,10.286609,-0.158978,-0.837735,0.304406,0.915527,2.929688,7.232666
4.223222,-0.671803,0.049098,9.917776,-0.713425,-1.042509,-0.064427,-0.823975,1.708984,5.065918
4.233318,-0.840053,0.047302,9.953102,-0.881676,-1.044306,-0.029100,-0.885010,0.335693,3.204346
4.243415,-0.079036,0.717907,9.944720,-0.120658,-0.373700,-0.037483,-1.068115,1.312256,7.904053
4.253506,-0.718506,0.690364,10.147698,-0.760128,-0.401243,0.165495,-2.624512,0.915527,5.859375
4.263603,-0.730481,0.584385,10.099199,-0.772103,-0.507222,0.116996,-2.777100,-0.244141,10.223389
4.273724,-0.445474,0.520318,10.377021,-0.487096,-0.571289,0.394818,-2.258301,-0.946045,12.268066
4.283821,-0.658032,0.561033,10.147698,-0.699654,-0.530574,0.165495,0.427246,-0.518799,10.375977
4.293917,-0.721500,1.035846,9.840536,-0.763122,-0.055761,-0.141666,0.518799,0.061035,13.031006
4.304014,-0.431702,0.420326,10.135723,-0.473325,-0.671281,0.153520,0.549316,-1.495361,10.742188
4.314110,-0.546663,0.617915,10.133328,-0.588286,-0.473692,0.151125,0.946045,0.366211,8.239746
4.324206,-0.383802,1.229843,9.769883,-0.425424,0.138235,-0.212319,1.098633,2.563477,8.117676
4.334303,-0.440684,0.952020,10.136920,-0.482306,-0.139587,0.154718,0.244141,2.471924,8.697510
4.344400,-0.761616,1.170566,9.988429,-0.803239,0.078959,0.006226,1.007080,2.380371,11.718750
4.354496,-0.570015,0.987946,9.957294,-0.611637,-0.103662,-0.024909,1.251221,1.007080,14.801025
4.364592,-0.244891,0.581990,9.951905,-0.286513,-0.509617,-0.030298,2.777100,-0.152588,12.268066
4.374719,-1.059197,1.052012,9.803414,-1.100820,-0.039595,-0.178789,0.976562,1.312256,13.244629
4.384816,0.026345,0.453856,9.663305,-0.015277,-0.637751,-0.318898,-2.227783,2.166748,10.955811
4.394913,-0.199385,0.838856,10.017768,-0.241008,-0.252752,0.035565,-1.312256,3.051758,10.314941
4.405009,-0.490380,0.755629,9.836944,-0.532003,-0.335979,-0.145259,-2.044678,2.655029,7.537842
4.415104,-0.377814,0.983754,10.180031,-0.419437,-0.107853,0.197828,-1.403809,2.410889,10.406494
4.425200,-0.302371,0.624501,9.991423,-0.343994,-0.467106,0.009220,0.701904,1.708984,10.528564
4.435295,-0.058079,1.049019,9.690249,-0.099702,-0.042589,-0.291954,1.770020,2.777100,14.312744
4.445388,-0.213755,1.102906,9.902208,-0.255378,0.011299,-0.079994,3.814697,4.669189,23.010254
4.455485,0.204774,0.060474,10.300380,0.163152,-1.031133,0.318178,-0.854492,1.464844,12.969971
4.465582,0.040117,0.435894,10.178234,-0.001506,-0.655714,0.196032,-0.335693,0.335693,9.216309
4.475703,-0.229323,1.312471,9.913585,-0.270946,0.220863,-0.068618,0.366211,-1.037598,3.112793
4.485800,0.295186,0.710722,10.024953,0.253564,-0.380885,0.042750,-0.640869,0.061035,10.192871
4.495897,-0.031734,0.229922,10.096804,-0.073356,-0.861685,0.114601,-3.082275,0.671387,4.943848
4.505993,-0.253273,0.267643,10.148297,-0.294896,-0.823964,0.166094,-1.098633,1.342773,-0.549316
4.516090,-0.338297,0.350272,10.112371,-0.379919,-0.741336,0.130169,0.457764,0.152588,0.671387
4.526186,0.347278,0.473016,10.291998,0.305655,-0.618591,0.309795,-1.281738,-0.366211,1.342773
4.536281,0.096998,0.420925,9.762698,0.055376,-0.670683,-0.219504,1.098633,0.000000,-0.579834
4.546377,-0.405357,0.613724,10.060280,-0.446980,-0.477883,0.078077,-2.410889,-1.800537,-1.708984
4.556473,0.547861,-0.105980,10.220147,0.506238,-1.197587,0.237944,-1.464844,-1.678467,-2.807617
4.566569,0.171244,0.375419,10.389595,0.129621,-0.716188,0.407392,0.122070,-0.213623,4.516602
4.576690,0.429906,1.498683,9.925560,0.388284,0.407076,-0.056643,0.396729,1.190186,13.916016
4.586787,0.560435,0.747845,9.716594,0.518812,-0.343762,-0.265608,-0.335693,2.044678,10.833740
4.596883,0.511337,0.323328,10.050101,0.469714,-0.768280,0.067898,-1.312256,1.403809,2.136230
4.606976,0.600551,0.773591,10.118359,0.558929,-0.318016,0.136156,1.098633,0.915527,0.488281
4.617072,0.008981,1.622626,9.765692,-0.032641,0.531018,-0.216511,2.502441,0.396729,3.295898
4.627168,-0.144899,1.088536,10.019564,-0.186521,-0.003071,0.037362,-1.953125,0.488281,5.554199
4.637264,0.076641,0.978964,10.030342,0.035018,-0.112643,0.048139,-2.655029,1.007080,5.310059
4.647360,-0.032333,1.003513,10.263856,-0.073955,-0.088094,0.281654,-2.838135,0.366211,5.676270
4.657456,0.085622,0.724493,10.109976,0.044000,-0.367114,0.127774,-0.701904,-0.518799,0.732422
4.667551,-0.474813,0.825683,9.820778,-0.516435,-0.265924,-0.161425,-1.037598,-0.274658,0.762939
4.677672,-0.387993,0.799937,9.832154,-0.429616,-0.291671,-0.150049,-1.983643,-1.251221,1.037598
4.687768,-0.255668,0.886157,10.095007,-0.297291,-0.205450,0.112805,-1.007080,-1.617432,1.312256
4.697865,-0.183818,0.655637,10.009984,-0.225440,-0.435971,0.027781,-0.274658,-0.732422,2.563477
4.707960,-0.290396,0.850831,9.771081,-0.332019,-0.240777,-0.211122,0.885010,1.922607,3.479004
4.718056,-0.534089,0.769999,9.981244,-0.575712,-0.321608,-0.000959,-1.953125,1.281738,2.197266
4.728152,-0.499960,0.958008,9.889036,-0.541583,-0.133599,-0.093167,-0.518799,0.305176,-1.434326
4.738249,-0.309556,0.695753,9.714798,-0.351179,-0.395854,-0.267405,0.122070,-0.579834,-1.251221
4.748344,-0.217947,0.256267,10.146500,-0.259569,-0.835340,0.164298,-0.640869,-0.976562,-1.770020
4.758440,-0.240101,0.891546,9.972861,-0.281723,-0.200061,-0.009341,-1.007080,-2.319336,0.854492
4.768533,-0.101190,0.987946,10.032138,-0.142812,-0.103662,0.049935,-0.579834,-1.953125,-0.213623
4.778655,0.153880,1.035247,9.889036,0.112258,-0.056360,-0.093167,0.671387,0.457764,5.249023
4.788750,-0.385598,0.826282,9.960287,-0.427221,-0.265326,-0.021915,0.274658,1.007080,5.157471
4.798847,-0.105980,0.785566,9.923165,-0.147602,-0.306041,-0.059038,0.518799,0.793457,8.148193
4.808943,0.059277,0.556842,10.223141,0.017654,-0.534765,0.240938,-0.793457,0.488281,8.361816
4.819039,0.296384,0.828677,10.186617,0.254761,-0.262930,0.204414,0.030518,1.892090,9.063721
4.829136,0.212558,0.917292,9.692644,0.170936,-0.174315,-0.289559,-2.105713,2.685547,11.260986
4.839232,0.416733,0.743055,9.929152,0.375111,-0.348552,-0.053050,-4.272461,2.685547,11.505127
4.849328,0.131726,0.794548,9.910591,0.090104,-0.297060,-0.071612,0.061035,3.021240,9.307861
4.859424,-0.137714,0.676593,10.102192,-0.179336,-0.415014,0.119990,-0.305176,1.434326,10.528564
4.869520,0.332908,0.559836,10.091415,0.291285,-0.531771,0.109212,1.403809,2.197266,12.817383
4.879640,0.345482,0.864003,10.071656,0.303859,-0.227604,0.089453,3.356934,2.014160,13.061523
4.889735,0.266446,0.567021,10.059681,0.224823,-0.524586,0.077478,2.960205,1.739502,14.343262
4.899832,0.131127,0.744851,9.737551,0.089505,-0.346756,-0.244652,1.342773,2.258301,12.603760
4.909929,0.049098,0.991538,10.074650,0.007475,-0.100069,0.092447,1.373291,2.258301,10.162354
4.920025,1.244811,-0.359852,11.177556,1.203189,-1.451459,1.195353,-1.129150,0.885010,-1.953125
4.930121,-0.210762,0.931663,10.309960,-0.252384,-0.159945,0.327758,0.671387,-1.098633,-6.927490
4.940217,-0.202379,0.876577,9.924362,-0.244002,-0.215030,-0.057840,1.556396,-1.831055,-3.692627
4.950314,-0.449665,0.569416,10.118359,-0.491287,-0.522191,0.136156,0.366211,-1.220703,-4.608154
4.960410,-0.134121,0.744252,9.991423,-0.175744,-0.347355,0.009220,-0.183105,1.098633,-5.554199
4.970505,-0.065863,0.790356,10.121951,-0.107485,-0.301251,0.139749,-1.922607,0.152588,-3.662109
4.980625,0.267643,0.670007,9.814191,0.226021,-0.421601,-0.168011,1.953125,-0.244141,-7.537842
4.990718,0.272433,0.574206,9.897418,0.230811,-0.517401,-0.084784,4.882812,1.037598,-4.028320
5.000815,0.168849,0.218546,10.038724,0.127226,-0.873062,0.056522,-0.335693,0.640869,-8.911133
5.010912,-0.544268,1.156794,9.935739,-0.585891,0.065187,-0.046464,-2.166748,-0.793457,-10.986328
5.021008,-0.561632,0.477806,9.884246,-0.603255,-0.613801,-0.097957,-3.845215,-0.152588,-7.446289
5.031105,-0.038320,0.414937,10.051897,-0.079943,-0.676670,0.069694,-4.058838,-0.823975,-5.889893
5.041198,0.037722,0.802332,9.981843,-0.003901,-0.289276,-0.000360,-0.946045,-1.617432,-4.547119
5.051291,-0.138312,0.762215,10.067465,-0.179935,-0.329392,0.085262,-0.885010,-1.953125,-1.892090
5.061388,-0.082628,0.779579,9.993818,-0.124251,-0.312028,0.011615,-1.007080,-1.159668,-1.190186
5.071482,-0.600551,0.768801,10.197993,-0.642174,-0.322806,0.215791,-1.556396,0.335693,0.000000
5.081576,0.556842,0.356259,10.002200,0.515220,-0.735348,0.019998,-2.166748,1.342773,2.532959
5.091671,0.074844,0.807720,10.047107,0.033222,-0.283887,0.064904,-2.075195,1.892090,0.335693
5.101763,0.364043,0.913700,9.886042,0.322421,-0.177907,-0.096161,-2.197266,0.915527,0.732422
5.111859,0.048499,0.608335,10.168055,0.006877,-0.483272,0.185853,-2.014160,0.152588,-1.525879
5.121956,0.229323,0.778381,10.029144,0.187701,-0.313226,0.046942,-0.152588,-0.366211,0.061035
5.132052,-0.279619,0.700543,9.827963,-0.321241,-0.391064,-0.154240,0.122070,-1.037598,-3.509521
5.142149,0.544268,0.646057,9.661509,0.502646,-0.445551,-0.320694,-1.159668,-0.091553,-3.356934
5.152246,-0.089214,0.739462,9.954899,-0.130837,-0.352145,-0.027304,0.061035,0.183105,-1.831055
5.162339,-0.148491,0.696352,9.901609,-0.190114,-0.395255,-0.080593,1.434326,-1.068115,-4.913330
5.172436,-0.053888,0.677192,10.013577,-0.095510,-0.414415,0.031374,3.143311,-1.953125,-3.540039
5.182528,-0.225132,1.040037,9.938732,-0.266754,-0.051570,-0.043470,2.471924,-1.373291,-2.624512
5.192625,-0.237107,0.815504,9.980645,-0.278729,-0.276103,-0.001558,1.312256,-3.082275,-4.669189
5.202721,0.065863,0.621508,9.969269,0.024241,-0.470100,-0.012934,-1.251221,-2.166748,-3.112793
5.212817,0.150287,0.906515,9.886641,0.108665,-0.185092,-0.095562,-0.915527,-1.708984,-4.272461
5.222913,0.119152,0.160466,9.875264,0.077530,-0.931141,-0.106938,-1.098633,0.244141,-7.659912
5.233009,0.170645,0.343685,10.197993,0.129023,-0.747922,0.215791,-2.868652,0.152588,-13.275146
5.243109,0.253273,-0.146695,10.192604,0.211651,-1.238302,0.210402,-1.739502,-0.457764,-9.338379
5.253206,0.264650,0.886756,10.113569,0.223027,-0.204851,0.131366,7.843018,0.091553,-11.718750
5.263302,0.336500,0.693358,10.233320,0.294878,-0.398249,0.251117,-1.312256,-2.960205,-6.744385
5.273399,-0.342488,0.959804,10.083032,-0.384110,-0.131803,0.100830,-4.547119,-2.685547,-6.835938
5.283525,0.223336,0.729283,10.385403,0.181713,-0.362324,0.403201,-1.770020,-0.549316,-9.429932
5.293621,-0.456850,1.278342,9.945917,-0.498472,0.186734,-0.036285,0.518799,0.244141,-6.378174
5.303717,-0.503553,1.613644,10.081236,-0.545175,0.522037,0.099033,-0.976562,-0.213623,-5.401611
5.313812,0.168849,1.125060,10.184821,0.127226,0.033453,0.202618,-1.159668,-1.251221,1.464844
5.323908,0.308958,0.825683,10.029743,0.267335,-0.265924,0.047540,0.915527,-1.922607,-4.089355
5.334004,0.190404,0.892744,10.170450,0.148782,-0.198864,0.188248,1.647949,-1.708984,-8.209229
5.344099,0.128134,0.071252,9.850715,0.086511,-1.020355,-0.131487,-0.762939,-1.037598,-5.493164
5.354193,-0.314346,0.367635,10.308763,-0.355969,-0.723972,0.326560,-2.166748,-1.708984,-9.918213
5.364288,-0.284409,0.881966,9.807605,-0.326031,-0.209641,-0.174598,-1.892090,0.610352,-10.864258
5.374383,-0.584385,1.020877,9.954899,-0.626007,-0.070730,-0.027304,-0.823975,1.434326,-8.178711
5.384504,-0.098795,-0.141306,10.013577,-0.140417,-1.232913,0.031374,-1.800537,0.885010,-7.934570
5.394600,-0.618514,0.819097,10.087822,-0.660136,-0.272511,0.105620,-2.044678,-0.854492,-15.136719
5.404695,-0.946631,1.086740,10.021360,-0.988254,-0.004867,0.039158,0.061035,-1.983643,-13.732910
5.414791,-0.254471,0.929866,10.076446,-0.296093,-0.161741,0.094243,-0.701904,-0.762939,-10.192871
5.424886,-0.371228,0.487386,9.961485,-0.412850,-0.604221,-0.020718,0.152588,1.770020,-12.237549
5.434982,-0.462239,0.033530,10.049502,-0.503861,-1.058077,0.067299,0.091553,0.793457,-14.678955
5.445077,-1.052611,1.027463,10.065668,-1.094234,-0.064144,0.083466,-1.556396,0.244141,-12.329102
5.455172,-0.098196,0.499960,10.127939,-0.139818,-0.591647,0.145736,-2.532959,-0.244141,-4.089355
5.465269,-0.066462,0.088017,10.288405,-0.108084,-1.003590,0.306202,-0.732422,-1.495361,-7.415771
5.475363,-0.691562,0.074246,10.187814,-0.733184,-1.017362,0.205612,0.213623,0.091553,-8.850098
5.485484,-0.695154,0.471819,10.167457,-0.736777,-0.619788,0.185254,-0.427246,0.305176,-7.141113
5.495579,-0.513133,0.413740,10.183024,-0.554755,-0.677868,0.200822,-0.213623,-0.427246,-3.540039
5.505673,-0.319136,0.259261,10.057286,-0.360759,-0.832346,0.075083,-0.366211,-0.518799,-2.502441
5.515769,-0.441282,0.508343,10.232721,-0.482905,-0.583264,0.250518,-0.640869,-0.488281,-1.983643
5.525865,-0.258063,0.561632,10.082433,-0.299686,-0.529975,0.100231,2.136230,-1.007080,-1.861572
5.535960,-0.417931,0.558040,9.801617,-0.459553,-0.533568,-0.180585,2.624512,-1.464844,-0.457764
5.546055,-0.437091,0.410147,9.922566,-0.478714,-0.681460,-0.059637,-0.427246,-0.610352,-1.403809
5.556149,-0.247286,0.572410,9.715397,-0.288908,-0.519198,-0.266806,-0.274658,0.854492,-2.441406
5.566245,-0.046104,0.800535,10.001602,-0.087727,-0.291072,0.019399,-2.319336,0.762939,-5.737305
5.576340,0.145497,0.865800,10.251881,0.103875,-0.225808,0.269678,-0.183105,-0.213623,-7.324219
5.586460,0.090412,0.747845,9.972263,0.048790,-0.343762,-0.009940,0.152588,-1.098633,-6.500244
5.596556,-0.126936,0.774789,9.992620,-0.168558,-0.316818,0.010418,2.441406,-0.213623,-5.371094
5.606651,0.398172,0.731080,9.986633,0.356550,-0.360528,0.004430,2.044678,0.518799,-4.699707
5.616747,-0.044907,1.284329,10.053693,-0.086529,0.192722,0.071491,2.105713,-0.061035,-8.331299
5.626842,0.411345,0.537682,9.906998,0.369722,-0.553925,-0.075204,5.340576,1.831055,-5.584717
5.636937,0.065264,0.822689,9.632170,0.023642,-0.268918,-0.350033,0.854492,-0.946045,-16.174316
5.647032,-0.285007,1.162782,9.979448,-0.326630,0.071175,-0.002755,-1.037598,-2.288818,-19.378662
5.657127,0.068258,1.164578,9.902208,0.026636,0.072971,-0.079994,-2.044678,-1.770020,-15.319824
5.667222,0.002994,0.701741,10.038126,-0.038629,-0.389867,0.055923,-1.159668,-2.227783,-13.061523
5.677318,0.052690,0.434097,10.062076,0.011068,-0.657510,0.079873,-0.213623,-2.746582,-12.420654
5.687438,-0.375419,0.706531,10.012978,-0.417042,-0.385076,0.030775,2.136230,-0.732422,-6.713867
5.697534,-0.384999,0.518522,9.887838,-0.426622,-0.573086,-0.094365,-1.007080,0.946045,-1.617432
5.707630,0.240101,0.422122,9.969269,0.198478,-0.669485,-0.012934,-2.960205,0.488281,5.340576
5.717725,0.376018,0.571212,10.125544,0.334396,-0.520395,0.143341,-2.014160,-0.152588,4.028320
5.727820,-0.055684,0.728685,10.117161,-0.097307,-0.362923,0.134959,3.326416,0.579834,6.652832
5.737928,0.301772,0.792153,9.812395,0.260150,-0.299455,-0.169808,-0.030518,-0.396729,8.056641
5.748019,0.010778,0.721500,9.985435,-0.030845,-0.370108,0.003233,-1.068115,0.488281,7.324219
5.758112,0.303569,0.221539,10.212962,0.261946,-0.870068,0.230759,-3.295898,1.159668,3.143311
5.768207,0.229922,0.963995,9.872869,0.188299,-0.127612,-0.109333,-0.427246,1.831055,4.180908
5.778303,-0.176633,0.543071,10.206376,-0.218255,-0.548537,0.224173,-2.624512,0.549316,6.011963
5.788500,0.112566,0.542472,10.253677,0.070943,-0.549135,0.271475,-3.204346,0.671387,4.974365
5.798590,0.141306,0.423320,9.952504,0.099684,-0.668288,-0.029699,0.976562,0.183105,6.195068
5.808681,-0.199385,0.795745,10.006990,-0.241008,-0.295862,0.024788,-0.030518,0.610352,5.737305
5.818771,0.070054,0.414937,10.038126,0.028432,-0.676670,0.055923,-1.342773,0.488281,4.302979
5.828860,0.044308,0.562830,9.913585,0.002685,-0.528778,-0.068618,0.946045,0.610352,2.807617
5.838949,0.077838,0.802332,9.896221,0.036216,-0.289276,-0.085982,1.831055,1.068115,3.387451
5.849040,-0.010179,0.764011,10.093211,-0.051801,-0.327596,0.111008,0.366211,1.892090,4.150391
5.859130,0.040715,0.708327,10.162068,-0.000907,-0.383280,0.179865,2.197266,1.861572,3.631592
5.869220,0.331710,0.403561,9.879456,0.290088,-0.688046,-0.102747,0.152588,2.197266,0.610352
5.879309,-0.211959,0.786165,10.263856,-0.253582,-0.305442,0.281654,-0.823975,1.434326,1.770020
5.889465,0.416135,0.440085,10.636282,0.374512,-0.651522,0.654079,-1.342773,-0.183105,4.669189
5.899561,0.295186,0.780776,9.529783,0.253564,-0.310831,-0.452420,1.678467,0.061035,0.152588
5.909657,-0.043709,1.111289,9.976454,-0.085332,0.019682,-0.005749,-0.793457,1.129150,-0.457764
5.919750,-0.039518,0.769999,10.005793,-0.081140,-0.321608,0.023590,-3.204346,-0.488281,0.793457
5.929846,-0.196392,0.836461,9.810599,-0.238014,-0.255147,-0.171604,-1.770020,-1.281738,-0.244141
5.939941,0.125739,0.698747,9.976454,0.084116,-0.392860,-0.005749,0.213623,-1.831055,0.366211
5.950037,0.047900,0.968187,9.884246,0.006278,-0.123421,-0.097957,0.518799,-1.983643,3.265381
5.960133,-0.074246,0.649649,10.082433,-0.115868,-0.441958,0.100231,0.976562,-1.708984,3.753662
5.970229,-0.182021,0.770598,10.147698,-0.223644,-0.321010,0.165495,1.617432,-1.220703,2.960205
5.980326,0.256267,0.752036,9.990824,0.214645,-0.339571,0.008621,1.373291,-0.762939,2.807617
5.990446,-0.050295,0.693358,10.033934,-0.091918,-0.398249,0.051732,-1.159668,-0.152588,3.662109
6.000542,0.210762,0.659229,9.875863,0.169139,-0.432378,-0.106340,1.373291,0.305176,4.730225
6.010638,-0.311353,0.563428,10.035132,-0.352975,-0.528179,0.052929,-1.770020,0.305176,4.211426
6.020735,0.085622,0.662822,10.175839,0.044000,-0.428786,0.193637,-0.274658,0.518799,6.347656
6.030831,-0.221539,0.486189,9.954899,-0.263162,-0.605418,-0.027304,-0.366211,0.854492,5.554199
6.040927,-0.345482,0.710722,10.198592,-0.387104,-0.380885,0.216389,-0.122070,1.159668,8.209229
6.051024,-0.265847,0.596360,9.977651,-0.307470,-0.495247,-0.004551,-0.518799,1.556396,7.232666
6.061121,-0.325723,0.675994,10.189012,-0.367345,-0.415613,0.206809,-0.885010,0.885010,5.798340
6.071217,-0.390987,0.896336,9.801617,-0.432609,-0.195271,-0.180585,1.251221,0.885010,6.378174
6.081313,-0.170046,0.698747,10.140513,-0.211669,-0.392860,0.158310,1.251221,0.885010,8.331299
6.091433,-0.234113,0.510738,10.110575,-0.275736,-0.580869,0.128372,0.366211,0.732422,5.645752
6.101530,-0.064666,0.468825,10.065070,-0.106288,-0.622782,0.082867,0.305176,1.312256,3.570557
6.111620,-0.167053,0.898132,10.052496,-0.208675,-0.193475,0.070293,1.861572,2.410889,3.387451
6.121719,-0.256866,0.874781,9.823173,-0.298488,-0.216826,-0.159030,0.946045,2.258301,1.831055
6.131815,0.221539,0.719105,10.165660,0.179917,-0.372503,0.183458,-1.281738,0.854492,0.427246
6.141911,-0.220941,0.881367,10.069261,-0.262563,-0.210240,0.087058,-2.258301,0.122070,0.335693
6.152007,-0.212558,0.887355,9.922566,-0.254180,-0.204253,-0.059637,-0.274658,-1.312256,-0.823975
6.162102,-0.023351,0.562830,10.017169,-0.064974,-0.528778,0.034967,-0.091553,-2.075195,-1.159668
6.172197,-0.167053,0.709525,9.941726,-0.208675,-0.382083,-0.040477,-1.159668,-1.586914,-1.190186
6.182292,-0.153880,0.658630,10.098001,-0.195502,-0.432977,0.115798,-1.129150,-0.885010,0.122070
6.192419,-0.253872,0.716111,10.073452,-0.295495,-0.375496,0.091249,1.312256,0.701904,0.671387
6.202514,-0.377216,0.700543,10.126143,-0.418838,-0.391064,0.143940,1.190186,0.000000,-0.213623
6.212612,-0.437091,0.722098,10.065070,-0.478714,-0.369509,0.082867,0.030518,-0.183105,-0.305176
6.222708,-0.439486,0.857417,9.844129,-0.481109,-0.234190,-0.138074,-0.366211,1.007080,4.669189
6.232805,-0.358654,0.634680,9.857900,-0.400277,-0.456927,-0.124302,-0.518799,1.037598,6.072998
6.242901,0.037722,0.759820,10.030941,-0.003901,-0.331787,0.048738,-0.335693,1.678467,8.514404
6.252997,0.068258,0.834664,9.911788,0.026636,-0.256943,-0.070414,-0.213623,1.556396,8.758545
6.263094,0.392184,0.476609,9.872271,0.350562,-0.614998,-0.109932,-0.366211,0.274658,6.164551
6.273190,0.001796,0.780178,9.966275,-0.039826,-0.311430,-0.015928,-1.922607,-1.007080,5.065918
6.283285,0.210762,0.673599,10.041718,0.169139,-0.418008,0.059515,-1.037598,-0.732422,7.049561
6.293468,0.037123,0.906515,10.103989,-0.004500,-0.185092,0.121786,0.488281,1.098633,7.476807
6.303556,0.091011,0.863405,9.869875,0.049388,-0.228203,-0.112327,0.366211,1.647949,9.185791
6.313646,0.561033,0.950823,9.790840,0.519411,-0.140784,-0.191363,-1.800537,2.655029,10.040283
6.323735,0.401166,0.743654,9.801019,0.359543,-0.347954,-0.181184,-4.760742,3.082275,9.216309
6.333824,0.435894,0.392184,10.232721,0.394271,-0.699423,0.250518,-0.427246,3.021240,6.866455
6.343911,0.521516,0.650248,10.229727,0.479893,-0.441359,0.247525,0.732422,1.892090,5.981445
6.354000,-0.033530,0.760419,10.249486,-0.075153,-0.331189,0.267283,-0.701904,1.678467,6.408691
6.364090,0.349074,0.543669,9.897418,0.307452,-0.547938,-0.084784,-0.701904,1.495361,6.652832
6.374180,0.146695,0.500559,10.179432,0.105073,-0.591048,0.197229,0.030518,-0.091553,6.988525
6.384269,0.114961,0.688568,9.975855,0.073338,-0.403039,-0.006348,3.997803,-0.335693,12.359619
6.394423,-0.029938,0.495170,10.038126,-0.071560,-0.596437,0.055923,3.265381,0.793457,13.763428
6.404520,0.001796,0.522713,9.896221,-0.039826,-0.568894,-0.085982,0.885010,3.295898,11.962891
6.414616,-0.002994,0.433499,9.989626,-0.044616,-0.658109,0.007424,1.373291,3.051758,10.803223
6.424712,-0.417332,0.656834,9.938732,-0.458955,-0.434773,-0.043470,-1.037598,1.007080,10.040283
6.434808,-0.147294,0.761616,9.968670,-0.188916,-0.329991,-0.013533,-1.312256,0.549316,9.216309
6.444904,-0.344883,0.856219,9.999805,-0.386505,-0.235388,0.017603,-1.373291,1.495361,10.467529
6.455000,-0.310155,0.807720,10.113569,-0.351777,-0.283887,0.131366,-1.068115,3.540039,11.444092
6.465096,-0.271835,1.072969,9.912387,-0.313457,-0.018638,-0.069816,-1.953125,2.227783,11.413574
6.475192,-0.037123,0.731080,10.032138,-0.078745,-0.360528,0.049935,-1.373291,0.823975,7.324219
6.485287,-0.112566,0.804727,9.929751,-0.154188,-0.286881,-0.052452,1.647949,0.335693,7.202148
6.495447,-0.196392,0.758024,9.986633,-0.238014,-0.333584,0.004430,3.295898,0.274658,8.911133
6.505537,-0.193997,0.981359,10.067465,-0.235619,-0.110248,0.085262,4.516602,1.373291,10.803223
6.515626,-0.195793,0.911904,9.874067,-0.237415,-0.179704,-0.108136,2.075195,1.647949,12.603760
6.525717,0.077838,0.743654,10.115964,0.036216,-0.347954,0.133761,-2.105713,-0.213623,7.476807
6.535806,0.235909,0.701142,10.119556,0.194287,-0.390465,0.137354,-3.631592,-0.854492,6.805420
6.545895,0.119751,0.764610,9.819580,0.078129,-0.326997,-0.162623,-4.241943,0.457764,7.812500
6.555985,-0.004191,0.535886,10.022558,-0.045814,-0.555722,0.040355,-4.333496,0.762939,11.901855
6.566074,0.080233,0.366438,10.167457,0.038611,-0.725169,0.185254,-1.953125,0.335693,15.441895
6.576164,0.675994,0.193997,10.312355,0.634372,-0.897611,0.330153,0.091553,0.061035,15.411377
6.586253,0.585582,0.217947,10.062076,0.543960,-0.873660,0.079873,2.075195,0.579834,12.329102
6.596407,0.265248,0.437690,9.863888,0.223626,-0.653917,-0.118315,2.746582,1.190186,12.603760
6.606504,0.055684,0.382604,9.992620,0.014062,-0.709003,0.010418,0.762939,1.953125,13.671875
6.616600,0.144899,0.735870,9.862690,0.103276,-0.355737,-0.119512,0.579834,1.708984,10.589600
6.626696,0.437690,0.441881,10.126741,0.396067,-0.649726,0.144539,0.061035,1.556396,8.239746
6.636791,-0.098795,0.567021,9.858499,-0.140417,-0.524586,-0.123704,-0.030518,-0.091553,1.281738
6.646887,0.222138,0.850831,9.843530,0.180516,-0.240777,-0.138672,1.068115,-1.129150,2.899170
6.656983,0.493973,0.929866,9.963880,0.452350,-0.161741,-0.018323,1.647949,-1.312256,4.577637
6.667078,0.287402,0.752635,10.015373,0.245780,-0.338972,0.033170,1.342773,-1.495361,0.335693
6.677173,0.184417,1.061592,9.960886,0.142794,-0.030015,-0.021316,1.586914,-1.403809,0.183105
6.687270,0.082029,0.863405,10.015972,0.040407,-0.228203,0.033769,-0.183105,-0.823975,-3.234863
6.697389,0.347877,0.658630,9.985435,0.306254,-0.432977,0.003233,-1.037598,-0.183105,-3.723145
6.707485,0.094603,0.846041,10.082433,0.052981,-0.245567,0.100231,-0.305176,-0.122070,-4.882812
6.717582,0.396376,0.474813,9.996812,0.354753,-0.616795,0.014609,-0.030518,-0.183105,-5.004883
6.727678,0.045505,0.620909,9.988429,0.003883,-0.470698,0.006226,-1.068115,-0.366211,-6.378174
6.737774,0.220941,0.359253,10.235715,0.179318,-0.732354,0.253512,-1.464844,-0.030518,-5.981445
6.747871,0.010778,0.525707,10.119556,-0.030845,-0.565900,0.137354,-1.281738,0.122070,-4.791260
6.757967,0.053289,0.580792,10.147099,0.011667,-0.510815,0.164896,-0.854492,0.183105,-0.915527
6.768063,0.205373,0.223934,10.262060,0.163750,-0.867673,0.279857,0.244141,-0.366211,-1.556396
6.778159,0.428110,0.557441,10.212962,0.386487,-0.534166,0.230759,3.631592,-1.007080,-2.319336
6.788255,0.047900,0.934058,9.898616,0.006278,-0.157550,-0.083587,2.349854,-1.434326,-3.692627
6.798375,0.168849,0.898132,9.889634,0.127226,-0.193475,-0.092568,2.075195,-1.190186,1.678467
6.808471,0.517324,0.540077,9.884844,0.475702,-0.551530,-0.097358,1.525879,-1.098633,1.708984
6.818568,0.385598,0.641266,10.155482,0.343976,-0.450341,0.173279,0.793457,-1.190186,-0.488281
6.828664,0.616119,0.753234,10.074051,0.574496,-0.338374,0.091848,0.732422,-1.098633,-0.457764
6.838760,0.571811,0.771795,9.886641,0.530188,-0.319812,-0.095562,2.044678,-0.885010,-0.030518
6.848856,0.535287,0.737067,9.923763,0.493664,-0.354540,-0.058439,1.800537,-1.312256,1.647949
6.858952,0.237706,0.703537,9.935739,0.196083,-0.388070,-0.046464,-0.244141,-1.220703,3.234863
6.869048,0.824485,0.610730,9.864487,0.782863,-0.480877,-0.117716,-1.556396,-0.183105,3.204346
6.879143,0.780178,0.768203,9.912986,0.738555,-0.323405,-0.069217,-1.739502,0.122070,1.678467
6.889239,0.693358,0.920885,9.893227,0.651736,-0.170722,-0.088976,-1.464844,0.091553,0.518799
6.899360,0.865201,0.854423,10.031539,0.823578,-0.237184,0.049337,-0.183105,-0.732422,-1.770020
6.909455,0.510738,0.968187,10.021959,0.469115,-0.123421,0.039757,-0.030518,-1.159668,-4.058838
6.919550,0.622106,0.843047,10.135723,0.580484,-0.248560,0.153520,-0.213623,-1.342773,-3.265381
6.929646,0.387394,0.693358,10.181827,0.345772,-0.398249,0.199624,-0.244141,-1.617432,-1.953125
6.939742,0.471220,0.836461,10.020762,0.429598,-0.255147,0.038559,-0.183105,-1.922607,0.457764
6.949837,0.281415,0.653242,9.953701,0.239792,-0.438366,-0.028501,-0.091553,-1.831055,1.678467
6.959933,0.220342,0.475411,9.990824,0.178719,-0.616196,0.008621,2.502441,-0.976562,5.249023
6.970028,-0.014370,0.608934,9.940529,-0.055993,-0.482674,-0.041674,0.305176,-1.464844,5.462646
6.980124,0.308958,0.607137,9.944720,0.267335,-0.484470,-0.037483,-0.793457,-2.380371,2.502441
6.990222,0.741259,0.372426,10.077643,0.699636,-0.719182,0.095441,-2.624512,-4.180908,1.892090
7.000396,0.952020,0.547262,10.206974,0.910398,-0.544345,0.224772,-1.098633,-3.875732,1.190186
7.010487,0.806523,0.316741,10.032737,0.764900,-0.774866,0.050534,-1.525879,-3.906250,-2.624512
7.020576,0.966390,0.341290,10.056088,0.924768,-0.750317,0.073886,-2.044678,-4.119873,-2.258301
7.030666,1.177152,0.662223,10.030941,1.135530,-0.429384,0.048738,-1.678467,-3.326416,-2.960205
7.040753,1.112487,0.595162,9.968670,1.070864,-0.496445,-0.013533,-1.495361,-3.448486,-5.615234
7.050843,1.254990,0.652643,9.975855,1.213368,-0.438964,-0.006348,-1.068115,-3.173828,-6.103516
7.060932,1.118474,0.380209,10.038724,1.076852,-0.711398,0.056522,1.007080,-2.624512,-12.512207
7.071021,0.944835,0.850831,10.086026,0.903213,-0.240777,0.103823,0.457764,-2.838135,-14.678955
7.081110,0.444875,0.981359,10.069261,0.403252,-0.110248,0.087058,1.495361,-3.173828,-20.172119
7.091200,0.425715,0.692161,9.930350,0.384092,-0.399447,-0.051853,2.502441,-2.716064,-19.042969
7.101359,0.283810,0.673000,10.017169,0.242187,-0.418607,0.034967,1.342773,-3.692627,-18.646240
7.111454,0.177830,0.702938,10.039323,0.136208,-0.388669,0.057120,1.129150,-3.479004,-17.608643
7.121552,0.167053,0.673000,10.148895,0.125430,-0.418607,0.166693,0.549316,-3.112793,-16.448975
7.131647,0.426912,0.933459,9.970466,0.385290,-0.158148,-0.011736,1.342773,-1.495361,-12.725830
7.141743,0.720302,0.577798,9.998608,0.678680,-0.513809,0.016405,2.410889,-0.366211,-7.965088
7.151838,0.521516,0.734672,10.046508,0.479893,-0.356935,0.064306,1.037598,-0.396729,-7.080078
7.161935,0.268242,0.569416,9.985435,0.226620,-0.522191,0.003233,-0.701904,-0.915527,-7.476807
7.172030,0.892744,0.777184,10.129136,0.851121,-0.314423,0.146934,-1.831055,-0.946045,-4.119873
7.182126,1.020877,0.414937,10.020163,0.979255,-0.676670,0.037960,-1.495361,-1.190186,-5.950928
7.192222,0.739462,0.084424,10.010583,0.697840,-1.007183,0.028380,-0.427246,-1.403809,-7.751465
7.202384,1.275947,0.349673,10.068063,1.234324,-0.741934,0.085861,-1.495361,-2.044678,-6.439209
7.212473,0.780178,0.587977,10.023755,0.738555,-0.503630,0.041553,-1.861572,-2.197266,-6.378174
7.222563,1.157393,0.379611,10.051897,1.115771,-0.711997,0.069694,-1.037598,-1.892090,-9.307861
7.232649,1.302891,0.622705,9.992021,1.261268,-0.468902,0.009819,-0.122070,-1.251221,-10.375977
7.242738,0.889151,0.902922,9.975256,0.847529,-0.188685,-0.006946,0.030518,-1.739502,-14.526367
7.252827,1.134641,0.778980,10.006392,1.093018,-0.312627,0.024189,-0.640869,-2.227783,-16.693115
7.262916,1.104104,0.731080,9.989028,1.062482,-0.360528,0.006825,-0.549316,-2.410889,-17.822266
7.273005,0.805325,0.724493,10.014175,0.763703,-0.367114,0.031973,-0.366211,-2.075195,-16.662598
7.283094,0.716710,0.622705,9.999805,0.675087,-0.468902,0.017603,-0.518799,-2.044678,-17.089844
7.293183,0.546663,0.523911,10.032737,0.505041,-0.567697,0.050534,-0.274658,-1.464844,-12.176514
7.303337,0.430505,0.558638,10.038126,0.388882,-0.532969,0.055923,-0.213623,-1.190186,-9.490967
7.313434,0.259261,0.589774,10.030941,0.217638,-0.501834,0.048738,-0.274658,-0.793457,-5.767822
7.323530,0.202978,0.601150,10.021360,0.161355,-0.490457,0.039158,-0.335693,-0.671387,-4.486084
7.333626,0.156275,0.612526,10.012379,0.114653,-0.479081,0.030176,-0.335693,-0.488281,-2.716064
7.343722,0.089214,0.626298,10.021360,0.047592,-0.465310,0.039158,-0.305176,-0.427246,-2.105713
7.353817,0.063468,0.629890,10.026151,0.021846,-0.461717,0.043948,-0.305176,-0.366211,-1.647949
7.363913,0.032932,0.644260,10.025552,-0.008691,-0.447347,0.043349,-0.274658,-0.274658,-0.946045
7.374008,0.031734,0.644859,10.027348,-0.009888,-0.446748,0.045145,-0.305176,-0.274658,-0.762939
7.384103,0.017963,0.653242,10.022558,-0.023660,-0.438366,0.040355,-0.274658,-0.152588,-0.488281
7.394199,0.013771,0.650248,10.029144,-0.027851,-0.441359,0.046942,-0.213623,-0.122070,-0.366211
7.404360,0.015568,0.656235,10.022558,-0.026055,-0.435372,0.040355,-0.183105,-0.030518,-0.244141
7.414449,0.020358,0.651445,10.015972,-0.021265,-0.440162,0.033769,-0.122070,0.000000,-0.213623
7.424536,0.017364,0.656235,10.011182,-0.024259,-0.435372,0.028979,0.000000,0.061035,-0.152588
7.434625,0.016765,0.655637,10.015972,-0.024857,-0.435971,0.033769,0.030518,0.122070,-0.122070
7.444715,0.013173,0.658630,10.021959,-0.028450,-0.432977,0.039757,0.030518,0.122070,-0.122070
7.454799,0.014370,0.654439,10.024953,-0.027252,-0.437168,0.042750,0.061035,0.152588,-0.061035
7.464888,0.011376,0.655038,10.032138,-0.030246,-0.436569,0.049935,0.030518,0.091553,-0.061035
7.474977,0.013173,0.656235,10.032138,-0.028450,-0.435372,0.049935,-0.061035,0.030518,-0.030518
7.485067,0.016166,0.661025,10.033336,-0.025456,-0.430582,0.051133,-0.122070,-0.061035,-0.061035
7.495156,0.019759,0.660427,10.037527,-0.021864,-0.431181,0.055324,-0.274658,-0.091553,-0.030518
7.505317,0.016765,0.658032,10.035132,-0.024857,-0.433576,0.052929,-0.305176,-0.122070,-0.030518
7.515413,0.022154,0.655637,10.033934,-0.019469,-0.435971,0.051732,-0.305176,-0.152588,-0.030518
7.525509,0.016166,0.664618,10.031539,-0.025456,-0.426989,0.049337,-0.274658,-0.122070,0.000000
7.535605,0.019160,0.656235,10.029144,-0.022462,-0.435372,0.046942,-0.244141,-0.122070,0.000000
7.545700,0.014370,0.655637,10.035731,-0.027252,-0.435971,0.053528,-0.152588,-0.091553,0.000000
7.555795,0.019759,0.655038,10.032138,-0.021864,-0.436569,0.049935,-0.152588,-0.091553,-0.030518
7.565891,0.014370,0.653840,10.029144,-0.027252,-0.437767,0.046942,-0.183105,-0.030518,-0.030518
7.575987,0.004191,0.652044,10.024354,-0.037431,-0.439563,0.042152,-0.152588,-0.061035,0.000000
7.586082,0.009580,0.651445,10.024354,-0.032042,-0.440162,0.042152,-0.091553,-0.061035,-0.030518
7.596178,0.004191,0.652643,10.030941,-0.037431,-0.438964,0.048738,-0.030518,0.000000,-0.030518
7.606342,0.002395,0.650248,10.033934,-0.039227,-0.441359,0.051732,-0.091553,-0.030518,-0.030518
7.616431,0.002395,0.653242,10.027348,-0.039227,-0.438366,0.045145,-0.091553,-0.030518,-0.061035
7.626520,0.004191,0.661025,10.024354,-0.037431,-0.430582,0.042152,-0.061035,-0.091553,-0.091553
7.636609,0.002994,0.653840,10.024354,-0.038629,-0.437767,0.042152,-0.152588,-0.152588,-0.152588
7.646698,0.016765,0.640668,10.042317,-0.024857,-0.450940,0.060114,-0.213623,-0.183105,-0.183105
7.656787,0.111967,0.602946,10.063273,0.070345,-0.488661,0.081071,-0.793457,-0.457764,-0.518799
7.666875,0.490979,-0.924478,10.215357,0.449357,-2.016085,0.233154,-5.432129,-3.112793,-10.192871
7.676964,0.375419,-0.943039,10.092014,0.333797,-2.034646,0.109811,-3.479004,-3.509521,-23.437500
7.687053,0.249681,-0.251477,10.043514,0.208058,-1.343084,0.061312,-3.387451,-5.462646,-46.478271
7.697142,0.074844,0.188608,10.099199,0.033222,-0.902999,0.116996,-3.417969,-6.072998,-52.825928
7.707297,0.185614,-0.135917,10.024953,0.143992,-1.227525,0.042750,-4.028320,-7.141113,-61.523438
7.717393,0.107177,0.129930,9.949510,0.065555,-0.961677,-0.032693,-2.655029,-6.927490,-66.223145
7.727488,0.049098,0.247286,10.081835,0.007475,-0.844321,0.099632,-1.373291,-6.530762,-72.235107
7.737584,0.165855,-0.113763,10.030342,0.124233,-1.205371,0.048139,-0.885010,-6.713867,-76.721191
7.747680,0.067659,0.467628,10.118359,0.026037,-0.623980,0.136156,-0.244141,-6.530762,-82.550049
7.757776,-0.450264,1.929787,9.939331,-0.491886,0.838180,-0.042872,-6.561279,-8.087158,-71.380615
7.767871,-0.146096,1.359772,9.990225,-0.187719,0.268165,0.008023,-4.852295,-6.927490,-60.363770
7.777966,0.091011,0.249082,9.959090,0.049388,-0.842525,-0.023113,-2.258301,-6.958008,-60.699463
7.788061,0.024549,0.340692,10.150692,-0.017073,-0.750916,0.168489,-2.410889,-7.629395,-63.690186
7.798157,-0.026345,0.544867,10.077045,-0.067968,-0.546740,0.094842,-2.441406,-7.995605,-64.636230
7.808318,0.074246,0.148491,9.969868,0.032623,-0.943116,-0.012335,-3.967285,-8.300781,-65.307617
7.818407,-0.023950,0.445474,10.046508,-0.065573,-0.646134,0.064306,-3.784180,-8.483887,-68.481445
7.828497,-0.009580,0.332908,10.041119,-0.051203,-0.758700,0.058917,-3.631592,-8.300781,-72.204590
7.838584,0.045505,0.359253,10.071656,0.003883,-0.732354,0.089453,-2.990723,-8.056641,-73.913574
7.848682,0.144300,0.358055,9.918375,0.102677,-0.733552,-0.063828,-2.349854,-7.812500,-77.301025
7.858771,0.155078,0.374222,10.066267,0.113455,-0.717385,0.084064,-2.227783,-7.690430,-80.291748
7.868860,0.110770,0.365839,9.994417,0.069147,-0.725768,0.012214,0.305176,-7.324219,-85.266113
7.878949,-0.014969,0.914299,9.959689,-0.056591,-0.177309,-0.022514,1.220703,-7.324219,-84.899902
7.889038,0.044907,0.808319,10.048304,0.003284,-0.283288,0.066102,2.441406,-6.774902,-81.756592
7.899127,-0.012574,1.147813,9.933942,-0.054196,0.056206,-0.048260,5.096436,-5.584717,-73.608398
7.909278,0.022154,1.113684,9.972861,-0.019469,0.022077,-0.009341,6.256104,-5.157471,-71.960449
7.919374,-0.107776,1.346600,10.015373,-0.149398,0.254992,0.033170,3.967285,-6.347656,-74.523926
7.929469,-0.142504,1.217269,9.952504,-0.184126,0.125661,-0.029699,2.960205,-6.408691,-72.265625
7.939564,-0.192799,1.268762,9.927955,-0.234422,0.177154,-0.054248,1.037598,-7.080078,-71.990967
7.949659,-0.062869,1.064586,10.017768,-0.104492,-0.027021,0.035565,0.427246,-7.629395,-73.791504
7.959754,0.021555,1.050216,10.006392,-0.020067,-0.041391,0.024189,-0.183105,-7.843018,-76.873779
7.969849,0.184417,0.918490,9.945319,0.142794,-0.173117,-0.036884,-0.762939,-8.300781,-79.956055
7.979944,0.137115,1.047821,9.993219,0.095492,-0.043786,0.011016,-1.525879,-8.605957,-85.021973
7.990040,-0.083826,0.784968,10.042317,-0.125448,-0.306640,0.060114,-2.258301,-8.575439,-82.153320
8.000134,-0.043110,0.681982,10.049502,-0.084733,-0.409625,0.067299,-2.105713,-8.209229,-77.972412
8.010293,-0.009580,0.740660,9.998009,-0.051203,-0.350947,0.015806,-3.143311,-7.568359,-76.690674
8.020382,-0.176633,0.855621,10.018965,-0.218255,-0.235987,0.036763,-2.868652,-7.690430,-75.592041
8.030471,-0.071252,1.011896,10.005793,-0.112874,-0.079711,0.023590,-2.777100,-7.385254,-72.204590
8.040560,0.016166,1.134042,10.014774,-0.025456,0.042435,0.032572,-2.685547,-7.080078,-69.763184
8.050648,0.070653,1.154998,9.990225,0.029031,0.063391,0.008023,-2.319336,-6.896973,-67.718506
8.060738,0.077838,1.107697,10.005793,0.036216,0.016089,0.023590,-1.342773,-6.683350,-66.802979
8.070827,0.210163,0.920286,9.989626,0.168541,-0.171321,0.007424,-1.129150,-6.408691,-65.521240
8.080916,0.396974,0.761017,10.076446,0.355352,-0.330590,0.094243,-0.976562,-5.950928,-64.910889
8.091005,0.478405,0.843047,10.070458,0.436783,-0.248560,0.088256,-0.915527,-6.286621,-66.436768
8.101094,0.359253,0.865800,10.009385,0.317630,-0.225808,0.027183,-0.122070,-6.256104,-68.054199
8.111248,0.637075,0.829276,10.030342,0.595453,-0.262332,0.048139,0.152588,-5.798340,-68.206787
8.121343,0.801134,0.739462,10.047706,0.759512,-0.352145,0.065503,0.579834,-6.469727,-67.810059
8.131439,0.160466,0.680784,10.088421,0.118844,-0.410823,0.106218,0.732422,-7.324219,-67.047119
8.141535,0.101788,0.738864,10.043514,0.060166,-0.352744,0.061312,0.244141,-7.873535,-67.687988
8.151633,0.302970,0.835862,9.986034,0.261348,-0.255745,0.003831,-1.220703,-7.019043,-69.671631
8.161727,0.293989,0.798140,10.004595,0.252366,-0.293467,0.022393,-3.295898,-4.577637,-72.113037
8.171822,0.414338,0.713716,10.089020,0.372716,-0.377891,0.106817,-3.814697,-4.547119,-78.155518
8.181917,0.450264,0.473615,10.036329,0.408641,-0.617992,0.054127,-3.265381,-4.974365,-80.383301
8.192010,0.389789,0.599354,10.025552,0.348167,-0.492254,0.043349,-3.143311,-5.859375,-86.120605
8.202103,0.206570,0.437091,10.105186,0.164948,-0.654516,0.122984,-2.136230,-7.537842,-88.623047
8.212269,0.304167,0.437690,10.020163,0.262545,-0.653917,0.037960,-2.044678,-7.720947,-90.667725
8.222356,0.117955,0.496368,10.117760,0.076332,-0.595239,0.135557,-1.831055,-7.904053,-95.794678
8.232445,0.389191,0.546663,10.006392,0.347568,-0.544944,0.024189,-1.586914,-8.605957,-98.937988
8.242611,0.379012,0.395777,9.972861,0.337389,-0.695830,-0.009341,-1.739502,-8.911133,-105.560303
8.252700,0.352667,0.560435,10.040521,0.311044,-0.531173,0.058318,-2.197266,-8.697510,-108.459473
8.262790,0.231718,0.679587,9.956096,0.190096,-0.412020,-0.026106,-1.251221,-9.979248,-109.771729
8.272879,0.041913,0.582589,10.018965,0.000290,-0.509019,0.036763,-1.129150,-10.101318,-108.276367
8.282968,0.266446,0.651445,10.029144,0.224823,-0.440162,0.046942,-1.251221,-9.735107,-108.428955
8.293057,0.302371,0.418530,10.018965,0.260749,-0.673078,0.036763,0.122070,-11.901855,-115.753174
8.303146,0.150287,0.568817,10.157278,0.108665,-0.522790,0.175075,1.922607,-14.587402,-119.781494
8.313297,-0.071252,0.868195,10.018965,-0.112874,-0.223413,0.036763,2.777100,-16.021729,-123.382568
8.323393,-0.123344,0.765209,9.998608,-0.164966,-0.326399,0.016405,2.532959,-15.686035,-123.809814
8.333522,0.101788,0.796943,9.988429,0.060166,-0.294664,0.006226,2.258301,-16.479492,-127.563477
8.343619,0.191602,0.895737,10.005194,0.149979,-0.195870,0.022991,1.007080,-15.563965,-130.645752
8.353714,0.019160,0.804727,10.060280,-0.022462,-0.286881,0.078077,0.305176,-14.709473,-131.866455
8.363811,-0.108375,0.713716,10.026151,-0.149997,-0.377891,0.043948,-1.495361,-13.092041,-131.439209
8.373906,0.005389,0.644260,10.023157,-0.036234,-0.447347,0.040954,-2.532959,-12.023926,-130.798340
8.384002,-0.070653,0.591570,10.098001,-0.112276,-0.500037,0.115798,-3.570557,-10.589600,-129.974365
8.394099,-0.096998,0.638871,9.961485,-0.138621,-0.452736,-0.020718,-5.065918,-8.453369,-129.699707
8.404194,-0.223934,0.509540,10.132130,-0.265557,-0.582067,0.149927,-4.577637,-8.636475,-125.061035
8.414356,-0.079036,0.489183,9.963880,-0.120658,-0.602425,-0.018323,-4.211426,-8.758545,-121.795654
8.424445,0.085622,0.542472,10.071656,0.044000,-0.549135,0.089453,-4.974365,-8.697510,-120.147705
8.434535,0.131726,0.579595,10.103989,0.090104,-0.512013,0.121786,-3.906250,-9.368896,-119.415283
8.444624,0.264650,0.767604,10.003997,0.223027,-0.324003,0.021794,-2.502441,-10.192871,-118.041992
8.454713,0.235311,1.008303,9.944720,0.193688,-0.083304,-0.037483,-1.464844,-11.199951,-118.164062
8.464802,-0.010179,0.760419,9.985435,-0.051801,-0.331189,0.003233,-3.112793,-10.589600,-118.713379
8.474891,0.068258,0.729882,10.026151,0.026636,-0.361725,0.043948,-2.685547,-10.772705,-118.835449
8.484980,0.134720,0.898731,10.032138,0.093097,-0.192876,0.049935,-1.403809,-11.779785,-117.675781
8.495070,-0.096998,0.725691,9.971065,-0.138621,-0.365916,-0.011138,-4.119873,-9.368896,-112.030029
8.505160,-0.001198,0.711321,10.022558,-0.042820,-0.380286,0.040355,-3.387451,-9.399414,-107.971191
8.515305,0.098196,0.661624,10.021360,0.056573,-0.429983,0.039158,-2.929688,-9.063721,-102.539062
8.525402,0.113763,0.466430,10.024354,0.072141,-0.625177,0.042152,-1.617432,-8.911133,-94.116211
8.535497,0.156275,0.329315,10.047706,0.114653,-0.762292,0.065503,-1.831055,-8.789062,-91.552734
8.545596,0.065264,0.343685,10.081236,0.023642,-0.747922,0.099033,-1.464844,-8.605957,-86.730957
8.555692,0.311951,0.302970,10.068063,0.270329,-0.788637,0.085861,-1.007080,-7.965088,-82.885742
8.565788,0.373623,0.513133,10.037527,0.332001,-0.578474,0.055324,-0.457764,-7.232666,-75.164795
8.575884,0.124541,0.439486,10.066267,0.082919,-0.652121,0.084064,-0.183105,-7.232666,-72.784424
8.585980,0.064666,0.364043,10.031539,0.023043,-0.727564,0.049337,-0.457764,-7.080078,-71.655273
8.596075,-0.107177,0.551453,10.034533,-0.148800,-0.540154,0.052330,-0.488281,-6.347656,-63.812256
8.606170,-0.282014,0.478405,10.057286,-0.323636,-0.613202,0.075083,-0.640869,-5.737305,-58.685303
8.616332,-0.040715,0.625100,10.030941,-0.082338,-0.466507,0.048738,-0.518799,-4.760742,-49.743652
8.626421,0.018561,0.577798,10.039922,-0.023061,-0.513809,0.057719,-0.610352,-4.364014,-46.936035
8.636511,0.000000,0.653840,10.025552,-0.041622,-0.437767,0.043349,-0.671387,-3.906250,-41.625977
8.646600,0.015568,0.739462,10.004595,-0.026055,-0.352145,0.022393,-0.915527,-3.509521,-39.276123
8.656689,0.062271,0.779579,10.012978,0.020648,-0.312028,0.030775,-0.671387,-3.112793,-34.942627
8.666778,0.140707,1.117277,9.983639,0.099085,0.025669,0.001436,-0.396729,-2.929688,-32.440186
8.676867,0.131127,0.904120,9.993219,0.089505,-0.187487,0.011016,-0.030518,-2.685547,-28.472900
8.686956,0.180225,1.031655,9.994417,0.138603,-0.059953,0.012214,0.000000,-2.227783,-23.437500
8.697048,0.161664,0.979563,9.989028,0.120041,-0.112044,0.006825,0.183105,-2.136230,-20.843506
8.707137,0.195194,1.041235,9.982441,0.153572,-0.050372,0.000239,0.183105,-1.739502,-17.211914
8.717292,0.235311,0.986748,9.987231,0.193688,-0.104859,0.005029,0.305176,-1.556396,-14.862061
8.727388,0.226329,0.926873,10.001602,0.184707,-0.164735,0.019399,0.274658,-1.190186,-11.352539
8.737524,0.204175,0.893342,10.002200,0.162553,-0.198265,0.019998,0.274658,-1.068115,-9.948730
8.747621,0.188608,0.864003,10.011182,0.146985,-0.227604,0.028979,0.274658,-0.946045,-8.789062
8.757715,0.171244,0.830473,10.036928,0.129621,-0.261134,0.054725,0.335693,-0.610352,-6.774902
8.767811,0.176034,0.843047,10.006392,0.134411,-0.248560,0.024189,0.640869,-0.732422,-6.011963
8.777906,0.138312,0.821492,10.003997,0.096690,-0.270116,0.021794,0.457764,-0.579834,-5.065918
8.788002,0.142504,0.823288,10.003398,0.100881,-0.268319,0.021195,0.213623,-0.427246,-4.974365
8.798098,0.156874,0.802930,10.009385,0.115251,-0.288677,0.027183,-0.274658,-0.122070,-5.096436
8.808193,0.205972,0.861608,10.001602,0.164349,-0.229999,0.019399,-0.183105,-0.091553,-4.333496
8.818358,0.197589,0.843047,10.002200,0.155967,-0.248560,0.019998,-0.091553,-0.061035,-3.448486
8.828448,0.176633,0.813708,10.014774,0.135010,-0.277899,0.032572,0.213623,-0.091553,-2.075195
8.838537,0.163460,0.801134,10.018965,0.121838,-0.290473,0.036763,0.518799,-0.183105,-1.556396
8.848626,0.039518,0.775388,10.030941,-0.002105,-0.316220,0.048738,1.129150,-0.427246,-0.885010
8.858715,-0.102387,0.750240,10.022558,-0.144010,-0.341367,0.040355,1.190186,-0.488281,-0.701904
8.868805,-0.248483,0.716710,10.023157,-0.290106,-0.374898,0.040954,1.037598,-0.305176,-0.152588
8.878895,-0.111368,0.813109,10.001602,-0.152991,-0.278498,0.019399,0.762939,-0.122070,-0.274658
8.888984,0.012574,0.808918,10.033934,-0.029049,-0.282689,0.051732,0.518799,-0.091553,-1.403809
8.899073,-0.080233,0.847837,10.024953,-0.121856,-0.243770,0.042750,0.518799,-0.061035,-1.556396
8.909162,0.102387,0.872386,10.024953,0.060765,-0.219221,0.042750,0.183105,0.061035,-1.647949
8.919309,0.208965,0.850831,10.008787,0.167343,-0.240777,0.026584,0.030518,0.122070,-2.014160
8.929405,0.150886,0.829874,10.014774,0.109264,-0.261733,0.032572,-0.335693,0.244141,-1.953125
8.939500,0.318538,0.799338,10.013577,0.276915,-0.292269,0.031374,-0.823975,0.305176,-2.014160
8.949598,0.296384,0.813708,10.012978,0.254761,-0.277899,0.030775,-0.579834,0.122070,-1.525879
8.959693,0.340093,0.819695,10.010583,0.298470,-0.271912,0.028380,-0.244141,-0.061035,-0.732422
8.969789,0.317939,0.832269,10.010583,0.276316,-0.259338,0.028380,-0.122070,-0.061035,-0.549316
8.979884,0.299976,0.835862,10.011780,0.258354,-0.255745,0.029578,-0.030518,-0.091553,-0.396729
8.989980,0.276026,0.838856,10.021360,0.234404,-0.252752,0.039158,-0.061035,-0.030518,-0.152588
9.000076,0.269440,0.836461,10.017768,0.227817,-0.255147,0.035565,-0.152588,0.030518,-0.061035
9.010172,0.246687,0.834066,10.011780,0.205065,-0.257542,0.029578,-0.396729,0.213623,0.061035
9.020332,0.232916,0.845442,10.003997,0.191293,-0.246165,0.021794,-0.671387,0.366211,0.061035
9.030422,0.205373,0.827479,10.011780,0.163750,-0.264128,0.029578,-1.007080,0.518799,0.152588
9.040511,0.192200,0.826880,10.023157,0.150578,-0.264727,0.040954,-1.037598,0.457764,0.274658
9.050601,0.190404,0.858016,10.022558,0.148782,-0.233591,0.040355,-1.037598,0.427246,0.549316
9.060689,0.186213,0.856219,10.008787,0.144590,-0.235388,0.026584,-0.946045,0.457764,2.075195
9.070779,0.225132,0.944236,9.993219,0.183509,-0.147371,0.011016,-0.915527,0.518799,2.929688
9.080864,0.178429,0.868195,10.011780,0.136807,-0.223413,0.029578,-0.610352,0.823975,6.072998
9.090951,0.217947,0.965193,10.002200,0.176324,-0.126414,0.019998,-0.518799,0.946045,7.171631
9.101042,0.199385,0.916095,10.009984,0.157763,-0.175512,0.027781,-0.396729,1.098633,9.155273
9.111131,0.283211,0.927471,9.999805,0.241589,-0.164136,0.017603,-0.213623,1.068115,9.460449
9.121294,0.286804,1.022673,9.990824,0.245181,-0.068934,0.008621,0.061035,1.068115,9.826660
9.131390,0.220342,1.129252,9.986034,0.178719,0.037644,0.003831,-0.061035,1.220703,8.880615
9.141485,0.164059,1.206491,9.975256,0.122436,0.114884,-0.006946,-0.488281,1.373291,7.659912
9.151580,0.042512,1.309477,9.954899,0.000889,0.217870,-0.027304,-0.396729,1.159668,5.706787
9.161675,-0.007185,1.353785,9.951306,-0.048808,0.262178,-0.030897,0.000000,0.854492,5.340576
9.171770,0.047302,1.413062,9.952504,0.005679,0.321454,-0.029699,0.122070,0.701904,5.310059
9.181925,0.112566,1.461561,9.992620,0.070943,0.369953,0.010418,0.000000,0.671387,4.272461
9.192059,0.235909,1.608256,9.926158,0.194287,0.516648,-0.056044,0.244141,0.732422,2.349854
9.202166,0.275427,1.625021,9.960886,0.233805,0.533414,-0.021316,0.427246,0.701904,1.831055
9.212273,0.314346,1.639391,9.944121,0.272724,0.547784,-0.038082,0.122070,0.549316,0.579834
9.222497,0.360450,1.704655,9.920171,0.318828,0.613048,-0.062032,0.518799,0.183105,-0.976562
9.232604,0.309556,1.732198,9.942325,0.267934,0.640591,-0.039878,0.976562,-0.122070,-1.403809
9.242713,0.364642,1.791475,9.869277,0.323019,0.699867,-0.112926,1.556396,0.122070,-1.861572
9.252824,0.298779,1.844165,9.886042,0.257156,0.752558,-0.096161,1.708984,0.183105,-2.838135
9.262927,0.263452,1.983076,9.871672,0.221830,0.891469,-0.110531,0.854492,0.152588,-4.638672
9.273103,0.136516,1.878893,9.829160,0.094894,0.787286,-0.153042,0.030518,0.213623,-5.279541
9.283206,0.131127,1.905238,9.906400,0.089505,0.813631,-0.075803,-0.244141,-0.061035,-6.042480
9.293304,0.036524,1.908831,9.918973,-0.005098,0.817223,-0.063229,-0.885010,-0.061035,-4.516602
9.303414,-0.108973,2.016606,10.023157,-0.150596,0.924999,0.040954,-0.915527,-0.671387,-4.608154
9.313529,0.093406,1.868115,9.905202,0.051783,0.776508,-0.077001,0.183105,-1.190186,-3.112793
9.323631,-0.066462,1.820215,9.933942,-0.108084,0.728608,-0.048260,1.098633,-0.701904,-2.716064
9.333704,-0.017364,1.831591,9.903406,-0.058986,0.739984,-0.078797,1.525879,0.854492,-1.953125
9.343770,-0.117356,1.830394,9.899813,-0.158978,0.738786,-0.082389,1.190186,1.159668,-1.098633
9.353835,-0.020358,1.833387,9.877659,-0.061980,0.741780,-0.104543,1.068115,1.373291,-0.488281
9.363900,0.078437,1.692680,9.962682,0.036814,0.601073,-0.019520,1.617432,0.396729,-2.075195
9.373965,0.178429,1.801653,9.886641,0.136807,0.710046,-0.095562,2.380371,0.274658,-3.051758
9.384030,0.003593,1.717828,9.913585,-0.038030,0.626221,-0.068618,2.563477,0.671387,-3.021240
9.394095,-0.070054,1.911226,9.744736,-0.111677,0.819618,-0.237467,1.403809,0.946045,-3.112793
9.404161,-0.042512,1.773512,9.798025,-0.084134,0.681905,-0.184178,-1.739502,0.274658,-5.432129
9.414226,0.167053,1.681902,10.011780,0.125430,0.590295,0.029578,-2.471924,-0.305176,-8.178711
9.424290,-0.138312,1.889670,9.908196,-0.179935,0.798063,-0.074007,-1.464844,-0.701904,-9.887695
9.434360,-0.309556,0.533491,10.048304,-0.351179,-0.558117,0.066102,2.044678,0.885010,6.835938
9.444425,0.149090,0.574206,10.131531,0.107468,-0.517401,0.149329,2.380371,1.403809,12.115479
9.454500,0.293989,0.620909,10.089619,0.252366,-0.470698,0.107416,-0.946045,0.793457,11.993408
9.464565,0.752635,0.846041,9.911190,0.711012,-0.245567,-0.071013,-3.082275,1.190186,12.329102
9.474630,0.349074,0.909509,9.936936,0.307452,-0.182099,-0.045267,-1.617432,1.495361,10.833740
9.484694,0.206570,1.090931,10.154883,0.164948,-0.000676,0.172680,-1.739502,1.647949,11.291504
9.494759,0.270637,0.980162,10.132729,0.229015,-0.111445,0.150526,-0.457764,0.946045,12.115479
9.504824,0.028141,1.402284,9.865684,-0.013481,0.310677,-0.116518,0.701904,0.274658,10.925293
9.514889,-0.040715,1.358575,9.971664,-0.082338,0.266968,-0.010539,-0.976562,0.671387,10.131836
9.524954,-0.044907,1.729803,9.763297,-0.086529,0.638196,-0.218906,-0.762939,0.701904,7.598877
9.535021,0.210163,1.741778,9.710607,0.168541,0.650171,-0.271596,-3.356934,0.213623,2.960205
9.545086,0.282014,1.414259,10.030941,0.240391,0.322652,0.048738,-1.831055,0.671387,-0.030518
9.555151,-0.055684,1.369951,9.937535,-0.097307,0.278344,-0.044668,-2.777100,0.701904,-0.518799
9.565216,0.260458,1.345402,9.992021,0.218836,0.253795,0.009819,-3.509521,0.457764,-2.136230
9.575291,0.053888,1.395698,10.041718,0.012265,0.304090,0.059515,-0.885010,-0.030518,-2.960205
9.585357,0.004191,0.956810,10.056088,-0.037431,-0.134797,0.073886,-0.793457,-0.427246,-2.258301
9.595422,-0.213157,1.160986,10.005793,-0.254779,0.069378,0.023590,1.373291,-0.061035,1.159668
9.605487,0.143701,1.281934,9.916578,0.102079,0.190327,-0.065624,1.312256,-0.061035,2.075195
9.615551,0.225132,1.109493,9.840536,0.183509,0.017886,-0.141666,-1.068115,-0.793457,1.647949
9.625616,-0.076042,0.822689,9.987231,-0.117664,-0.268918,0.005029,-4.821777,-1.617432,0.610352
9.635681,0.162861,1.198707,10.046508,0.121239,0.107100,0.064306,-4.516602,-1.525879,0.030518
9.645746,0.153880,1.153202,9.915381,0.112258,0.061595,-0.066822,-2.868652,-1.434326,-0.396729
9.655811,-0.020358,1.343606,9.817185,-0.061980,0.251999,-0.165018,-1.098633,-1.159668,0.640869
9.665875,-0.021555,1.190923,9.964479,-0.063178,0.099316,-0.017724,-4.913330,-2.868652,0.305176
9.675940,0.211959,1.434617,9.914183,0.170337,0.343009,-0.068019,-3.051758,-2.838135,-0.061035
9.686004,-0.123344,1.174757,10.190209,-0.164966,0.083150,0.208007,-2.044678,-1.525879,-0.457764
9.696068,-0.010179,2.017205,9.909992,-0.051801,0.925598,-0.072211,0.030518,-0.579834,-3.845215
9.706132,-0.332309,2.322570,10.017768,-0.373931,1.230963,0.035565,-5.004883,-1.251221,-16.876221
9.716207,-0.267045,2.053729,9.674083,-0.308667,0.962122,-0.308120,-7.354736,-1.892090,-20.568848
9.726272,-0.244891,1.936972,9.847722,-0.286513,0.845365,-0.134481,-7.751465,-2.044678,-20.935059
9.736412,-0.150287,1.620231,9.916578,-0.191910,0.528623,-0.065624,-6.072998,-1.464844,-17.639160
9.746477,-0.167053,1.642983,9.856703,-0.208675,0.551376,-0.125500,-3.723145,-1.068115,-15.014648
9.756541,-0.258063,1.451382,9.867480,-0.299686,0.359775,-0.114722,0.854492,-1.647949,-10.040283
9.766607,-0.087418,1.309477,9.843530,-0.129041,0.217870,-0.138672,0.488281,-2.349854,-8.758545
9.776673,0.108973,1.188528,9.818383,0.067351,0.096921,-0.163820,-0.762939,-1.647949,-2.685547
9.786738,0.332908,0.860411,9.943522,0.291285,-0.231196,-0.038680,1.770020,-1.922607,-2.227783
9.796803,0.481399,1.185535,9.683064,0.439776,0.093927,-0.299139,6.866455,0.274658,0.610352
9.806868,-0.057480,0.796344,10.110575,-0.099103,-0.295263,0.128372,3.112793,0.946045,3.753662
9.816933,0.255668,0.737067,10.077643,0.214046,-0.354540,0.095441,-1.251221,0.061035,2.624512
9.826998,0.558638,0.667013,9.968071,0.517016,-0.424594,-0.014131,4.852295,0.518799,2.197266
9.837072,0.179028,0.359253,10.088421,0.137405,-0.732354,0.106218,5.187988,1.007080,3.082275
9.847138,0.374821,0.602946,10.148895,0.333198,-0.488661,0.166693,3.295898,1.342773,5.126953
9.857203,0.146695,0.047302,10.126143,0.105073,-1.044306,0.143940,2.563477,1.892090,7.324219
9.867268,0.171843,0.213157,10.042916,0.130220,-0.878451,0.060713,-0.030518,1.892090,7.995605
9.877334,0.141306,0.249082,9.993219,0.099684,-0.842525,0.011016,-3.479004,0.885010,7.690430
9.887399,0.053888,-0.214354,10.230925,0.012265,-1.305961,0.248722,-3.540039,1.800537,8.789062
9.897466,0.115560,0.274828,9.974059,0.073937,-0.816779,-0.008144,4.180908,3.509521,13.336182
9.907531,0.099393,0.151485,10.139914,0.057771,-0.940122,0.157711,2.593994,3.723145,12.634277
9.917597,0.277224,0.452060,10.130933,0.235601,-0.639547,0.148730,-3.021240,1.190186,9.674072
9.927662,0.245490,0.452060,9.978849,0.203867,-0.639547,-0.003354,-6.744385,-0.091553,6.683350
9.937727,0.495170,0.379611,10.209370,0.453548,-0.711997,0.227167,-5.798340,-1.342773,3.845215
9.947792,0.003593,0.849034,10.136920,-0.038030,-0.242573,0.154718,-0.823975,-0.518799,3.448486
9.957865,0.722697,1.019081,10.078841,0.681075,-0.072526,0.096638,-0.488281,-0.427246,4.028320
9.967931,0.514929,1.008303,9.959090,0.473307,-0.083304,-0.023113,1.159668,-0.457764,0.823975
9.977997,0.417332,0.813109,9.946516,0.375710,-0.278498,-0.035687,-0.305176,-0.152588,0.305176
9.988062,0.257465,0.914897,10.087224,0.215842,-0.176710,0.105021,-5.920410,-1.373291,-3.906250
9.998127,0.647853,0.737067,9.936337,0.606230,-0.354540,-0.045865,-4.302979,-1.373291,-6.408691
10.008192,0.273032,0.347278,10.203981,0.231410,-0.744329,0.221778,1.892090,-0.305176,-4.821777
10.018257,0.500559,0.528701,10.104587,0.458937,-0.562907,0.122385,10.314941,0.732422,2.166748
10.028322,0.021555,0.004790,10.069860,-0.020067,-1.086817,0.087657,7.690430,1.007080,1.831055
10.038389,0.301772,0.319735,10.090217,0.260150,-0.771872,0.108015,5.401611,-0.640869,1.770020
10.048456,-0.129331,0.207169,10.132729,-0.170954,-0.884438,0.150526,2.288818,-0.854492,1.068115
10.058522,-0.044907,0.314346,10.145303,-0.086529,-0.777261,0.163100,-1.495361,-1.953125,-1.037598
10.068587,-0.055085,0.215552,9.951905,-0.096708,-0.876055,-0.030298,-4.486084,-2.532959,0.000000
10.078661,0.077838,0.076641,10.241702,0.036216,-1.014967,0.259500,-6.469727,-3.479004,0.579834
10.088727,0.225731,0.655038,9.979448,0.184108,-0.436569,-0.002755,0.915527,-1.739502,4.058838
10.098792,0.014370,0.568817,10.045909,-0.027252,-0.522790,0.063707,1.861572,-0.488281,7.171631
10.108858,0.394579,0.500559,10.014175,0.352957,-0.591048,0.031973,0.610352,0.396729,9.002686
10.118924,0.493973,0.716710,9.977651,0.452350,-0.374898,-0.004551,2.258301,0.640869,8.819580
10.128989,0.346679,0.862207,9.969269,0.305057,-0.229400,-0.012934,1.586914,1.617432,9.155273
10.139064,0.307760,0.785566,10.251881,0.266138,-0.306041,0.269678,0.427246,3.356934,7.171631
10.149130,0.490979,0.969384,9.981843,0.449357,-0.122223,-0.000360,-0.732422,3.204346,3.479004
10.159195,0.649649,1.114283,9.965676,0.608027,0.022676,-0.016526,1.068115,1.861572,-0.579834
10.169261,0.470621,1.000519,10.011780,0.428999,-0.091088,0.029578,1.708984,0.854492,-1.281738
10.179327,0.851429,0.868195,9.728569,0.809807,-0.223413,-0.253633,-0.610352,0.244141,-4.730225
10.189392,0.915496,0.535886,9.889634,0.873874,-0.555722,-0.092568,-0.885010,0.122070,-6.866455
10.199457,0.658032,0.661025,9.984238,0.616409,-0.430582,0.002035,2.166748,0.701904,-6.347656
10.209524,0.664019,0.667612,9.923165,0.622397,-0.423996,-0.059038,1.464844,0.183105,-7.019043
10.219590,0.526904,0.610730,9.945319,0.485282,-0.480877,-0.036884,-0.061035,-0.518799,-7.995605
10.229656,0.471819,0.762215,9.911788,0.430196,-0.329392,-0.070414,-5.249023,-2.044678,-9.735107
10.239723,0.641266,0.716111,9.966874,0.599644,-0.375496,-0.015329,-4.913330,-2.777100,-11.749268
10.249789,0.600551,0.568218,9.747729,0.558929,-0.523389,-0.234473,-2.532959,-2.105713,-12.054443
10.259855,0.424517,1.104104,10.041119,0.382895,0.012497,0.058917,4.791260,0.213623,-9.979248
10.269921,0.232317,0.890349,10.015373,0.190694,-0.201259,0.033170,2.502441,-0.396729,-9.582520
10.279987,0.284409,1.169368,9.986034,0.242786,0.077761,0.003831,1.953125,-0.366211,-11.230469
10.290053,0.328716,0.868793,10.067465,0.287094,-0.222814,0.085262,-0.427246,-0.823975,-11.657715
10.300119,0.658630,1.037642,9.948911,0.617008,-0.053965,-0.033292,-0.366211,-1.525879,-13.305664
10.310185,0.509540,1.211281,9.810000,0.467918,0.119674,-0.172203,-0.671387,-1.556396,-13.885498
10.320250,0.614921,1.062191,9.943522,0.573299,-0.029416,-0.038680,-0.427246,-1.617432,-16.357422
10.330317,0.390987,1.029858,9.999805,0.349364,-0.061749,0.017603,0.030518,-1.678467,-15.411377
10.340383,0.247885,0.707728,10.294991,0.206262,-0.383879,0.312789,0.000000,-0.061035,-14.251709
10.350449,0.317340,0.704136,9.984836,0.275718,-0.387471,0.002634,-1.495361,-0.427246,-15.075684
10.360515,0.443677,0.885558,10.035132,0.402055,-0.206049,0.052929,-0.549316,-0.305176,-16.479492
10.370581,0.241897,0.574805,9.866882,0.200275,-0.516803,-0.115321,0.885010,-0.396729,-15.411377
10.380647,0.071252,0.615520,10.044113,0.029629,-0.476087,0.061911,0.518799,-0.701904,-12.634277
10.390713,0.194595,0.685574,10.086625,0.152973,-0.406033,0.104422,-1.129150,-0.976562,-11.840820
10.400778,0.086819,0.681982,10.029743,0.045197,-0.409625,0.047540,1.647949,-0.244141,-9.521484
10.410853,-0.010778,0.567021,9.884246,-0.052400,-0.524586,-0.097957,1.892090,0.823975,-7.080078
10.420919,-0.252675,0.540077,10.095606,-0.294297,-0.551530,0.113403,1.556396,0.427246,-5.615234
10.430984,-0.101190,0.493374,10.093211,-0.142812,-0.598233,0.111008,0.488281,0.030518,-4.852295
10.441053,-0.095801,0.573607,10.075248,-0.137423,-0.518000,0.093046,1.220703,0.274658,-2.655029
10.451119,-0.152084,0.637075,9.919572,-0.193706,-0.454532,-0.062631,1.861572,0.518799,-2.197266
10.461184,-0.205972,0.624501,10.032138,-0.247594,-0.467106,0.049935,-1.403809,0.671387,-1.007080
10.471250,-0.170645,0.716111,10.033336,-0.212268,-0.375496,0.051133,-1.831055,-0.030518,0.396729
10.481314,-0.051493,0.810115,9.935140,-0.093115,-0.281492,-0.047063,-0.854492,-0.854492,0.854492
10.491380,-0.277822,0.799338,10.106384,-0.319445,-0.292269,0.124181,-0.549316,0.946045,3.112793
10.501446,0.005988,0.817300,9.975855,-0.035635,-0.274307,-0.006348,-0.244141,0.732422,4.394531
10.511510,-0.112566,1.140628,9.884246,-0.154188,0.049021,-0.097957,-3.051758,1.281738,4.119873
10.521575,-0.149090,0.622705,9.811198,-0.190712,-0.468902,-0.171005,-1.892090,0.640869,3.234863
10.531639,0.588576,1.845363,9.868678,0.546954,0.753755,-0.113525,2.319336,0.000000,8.483887
10.541703,-0.085622,1.559756,9.878258,-0.127244,0.468149,-0.103945,0.671387,-0.732422,3.906250
10.551768,0.012574,1.333427,10.041718,-0.029049,0.241820,0.059515,3.601074,-2.044678,3.631592
10.561832,0.047302,1.523232,10.198592,0.005679,0.431625,0.216389,2.593994,-0.366211,2.471924
10.571896,0.214953,1.310674,9.828561,0.173331,0.219067,-0.153641,1.281738,-0.274658,-1.556396
10.581968,-0.019759,1.244213,10.026749,-0.061381,0.152605,0.044547,2.014160,-0.549316,-3.814697
10.592036,-0.105980,0.839454,10.113569,-0.147602,-0.252153,0.131366,1.190186,-0.366211,-3.417969
10.602102,-0.040715,1.124462,10.056088,-0.082338,0.032854,0.073886,2.166748,0.305176,-3.295898
10.612166,-0.237107,1.005908,10.022558,-0.278729,-0.085699,0.040355,3.570557,0.152588,-1.831055
10.622230,-0.364043,0.932261,10.072853,-0.405665,-0.159346,0.090651,2.288818,1.220703,-0.122070
10.632294,-0.199984,0.992736,10.042317,-0.241607,-0.098872,0.060114,2.532959,1.556396,-0.274658
10.642359,-0.319735,0.870590,9.984836,-0.361358,-0.221018,0.002634,1.861572,1.251221,-0.152588
10.652424,-0.506547,1.281934,9.869277,-0.548169,0.190327,-0.112926,0.000000,1.892090,-0.122070
10.662488,-0.446671,1.239423,10.300979,-0.488294,0.147815,0.318776,-2.960205,2.136230,-1.800537
10.672552,-0.273032,1.344205,9.896221,-0.314655,0.252597,-0.085982,-3.265381,0.335693,-7.598877
10.682617,-0.340692,0.994532,10.059082,-0.382314,-0.097075,0.076879,-6.530762,-0.762939,-9.094238
10.692681,-0.230521,1.453777,9.998009,-0.272143,0.362170,0.015806,-3.356934,-1.312256,-10.253906
10.702753,-0.067061,1.380729,9.847722,-0.108683,0.289122,-0.134481,-2.014160,-1.525879,-9.765625
10.712817,0.101788,1.236429,9.982441,0.060166,0.144822,0.000239,1.220703,-1.647949,-8.666992
10.722882,0.267045,1.033451,9.906400,0.225422,-0.058156,-0.075803,-0.854492,-1.434326,-10.833740
10.732946,0.234113,1.143622,9.844129,0.192491,0.052015,-0.138074,-1.312256,-1.342773,-11.657715
10.743011,0.213157,1.187930,9.939930,0.171534,0.096322,-0.042273,1.617432,-1.617432,-7.812500
10.753076,0.049098,1.249601,9.960287,0.007475,0.157994,-0.021915,2.014160,-1.281738,-8.087158
10.763140,0.066462,1.205892,9.962682,0.024839,0.114285,-0.019520,-0.183105,-0.793457,-9.338379
10.773206,0.189805,1.138233,9.866283,0.148183,0.046626,-0.115920,0.885010,0.091553,-7.995605
10.783270,0.267643,1.010698,10.083631,0.226021,-0.080909,0.101428,1.312256,0.244141,-8.605957
10.793334,-0.135319,0.665217,9.954899,-0.176941,-0.426391,-0.027304,0.122070,-0.274658,-9.460449
10.803398,0.046104,0.760419,9.929751,0.004482,-0.331189,-0.052452,0.823975,0.610352,-7.354736
10.813463,-0.061672,0.768801,10.073452,-0.103294,-0.322806,0.091249,0.091553,1.037598,-4.089355
10.823534,-0.268242,0.702938,9.998009,-0.309865,-0.388669,0.015806,-1.159668,0.000000,-2.807617
10.833600,0.010179,0.980162,9.824370,-0.031444,-0.111445,-0.157833,0.671387,-1.922607,-1.831055
10.843664,-0.028740,0.814307,10.327923,-0.070363,-0.277301,0.345720,0.030518,-0.915527,-1.617432
10.853729,0.055085,1.105302,10.071057,0.013463,0.013694,0.088854,1.770020,-1.098633,-0.701904
10.863794,0.052690,1.054407,9.865085,0.011068,-0.037200,-0.117117,-1.037598,0.335693,-1.190186
10.873858,0.121547,1.336421,10.053094,0.079925,0.244814,0.070892,-0.793457,0.762939,-1.129150
10.883922,-0.071252,1.021476,9.934541,-0.112874,-0.070131,-0.047662,2.441406,-0.915527,-3.479004
10.893988,-0.247885,0.799338,10.139914,-0.289507,-0.292269,0.157711,-0.518799,-0.244141,-5.737305
10.904052,0.146695,0.921484,10.172845,0.105073,-0.170123,0.190643,-0.976562,-0.274658,-12.451172
10.914117,-0.501757,0.781974,10.006990,-0.543379,-0.309633,0.024788,-0.152588,1.342773,-11.352539
10.924182,-0.307760,0.431702,10.194999,-0.349382,-0.659905,0.212797,1.586914,0.671387,-14.404297
10.934247,-0.399968,0.394579,10.165660,-0.441591,-0.697028,0.183458,-1.159668,-0.091553,-14.648438
10.944312,-0.447869,0.374821,9.917776,-0.489491,-0.716787,-0.064427,-0.701904,-1.007080,-15.960693
10.954386,0.011376,0.099992,10.181827,-0.030246,-0.991615,0.199624,-2.319336,-2.197266,-15.472412
10.964450,0.040715,0.308958,10.111772,-0.000907,-0.782650,0.129570,2.593994,-2.624512,-16.113281
10.974515,-0.034129,-0.058079,10.133328,-0.075751,-1.149686,0.151125,0.305176,-1.281738,-14.282227
10.984579,-0.050295,0.177830,10.490784,-0.091918,-0.913777,0.508582,-0.030518,-0.122070,-16.052246
10.994644,0.059875,0.814307,9.964479,0.018253,-0.277301,-0.017724,0.610352,-1.525879,-11.901855
11.004709,0.173040,0.667013,9.963281,0.131418,-0.424594,-0.018921,-0.640869,-0.152588,-12.145996
11.014775,0.502355,0.497565,10.015972,0.460733,-0.594042,0.033769,-1.464844,-0.152588,-11.291504
11.024839,0.649649,0.952619,9.784852,0.608027,-0.138988,-0.197350,0.976562,0.213623,-9.460449
11.034905,0.409548,0.626298,9.980645,0.367926,-0.465310,-0.001558,-0.854492,0.152588,-7.659912
11.044969,0.723296,0.781375,9.655521,0.681673,-0.310232,-0.326681,1.983643,0.213623,-3.082275
11.055035,0.577200,1.336421,10.330917,0.535577,0.244814,0.348714,5.462646,0.457764,-1.373291
11.065100,0.104782,1.283730,10.114766,0.063160,0.192123,0.132564,1.251221,0.000000,-3.417969
11.075173,0.373623,1.680705,9.711804,0.332001,0.589098,-0.270398,2.319336,0.823975,-5.004883
11.085239,0.365839,1.622626,9.840536,0.324217,0.531018,-0.141666,2.593994,0.671387,-5.523682
11.095304,0.474214,1.305286,9.900412,0.432591,0.213678,-0.081791,0.579834,-0.549316,-8.178711
11.105369,0.155078,1.670526,9.456136,0.113455,0.578919,-0.526067,1.312256,1.098633,-6.439209
11.115433,0.698148,1.577120,10.018367,0.656526,0.485513,0.036164,-1.068115,-1.403809,-12.725830
11.125499,-0.075443,1.302891,10.048903,-0.117066,0.211283,0.066701,0.183105,-1.586914,-13.000488
11.135564,0.063468,1.368754,10.024354,0.021846,0.277146,0.042152,-1.190186,-2.014160,-12.054443
11.145629,0.250280,1.250799,9.926757,0.208657,0.159192,-0.055445,-1.525879,-1.617432,-11.749268
11.155694,-0.006586,1.483715,9.862690,-0.048209,0.392107,-0.119512,-0.946045,-0.915527,-9.216309
11.165759,0.182021,1.340013,10.035731,0.140399,0.248406,0.053528,0.244141,-0.457764,-8.300781
11.175824,0.003593,1.003513,9.838740,-0.038030,-0.088094,-0.143462,-0.610352,-0.305176,-9.246826
11.185888,0.114362,1.539399,10.203382,0.072740,0.447792,0.221179,2.197266,0.030518,-7.659912
11.196005,0.083826,1.060994,9.972861,0.042203,-0.030614,-0.009341,1.708984,0.152588,-5.767822
11.206071,0.128732,0.785566,10.135124,0.087110,-0.306041,0.152921,2.349854,1.281738,-7.507324
11.216136,-0.431104,0.738864,9.779464,-0.472726,-0.352744,-0.202739,-0.946045,-0.274658,-9.643555
11.226201,0.500559,1.089734,9.727372,0.458937,-0.001873,-0.254831,-3.265381,-0.183105,-8.911133
11.236265,-0.196392,1.382525,9.777068,-0.238014,0.290918,-0.205134,-3.082275,-0.762939,-7.202148
11.246330,-0.073647,1.047222,10.196197,-0.115269,-0.044385,0.213994,-4.577637,-1.617432,-8.178711
11.256396,-0.052092,0.814905,10.151889,-0.093714,-0.276702,0.169686,-4.547119,-1.159668,-10.650635
11.266461,0.306563,0.792153,10.024953,0.264940,-0.299455,0.042750,-2.838135,-1.220703,-9.857178
11.276525,0.159269,0.871787,9.902807,0.117646,-0.219820,-0.079396,1.373291,-1.373291,-7.507324
11.286590,0.007784,1.111289,10.017169,-0.033839,0.019682,0.034967,1.953125,-1.068115,-6.683350
11.296658,-0.162263,1.232836,10.032737,-0.203885,0.141229,0.050534,4.028320,0.152588,-4.577637
11.306724,0.290396,1.389710,9.989028,0.248774,0.298103,0.006825,5.859375,-0.457764,-2.685547
11.316789,0.090412,0.583786,10.105186,0.048790,-0.507821,0.122984,4.211426,-0.762939,-4.211426
11.326854,0.591570,0.517324,10.415341,0.549947,-0.574283,0.433139,-0.793457,1.220703,-3.479004
11.336928,0.379611,0.383203,9.989028,0.337988,-0.708404,0.006825,2.227783,1.251221,-1.220703
11.346993,-0.001198,0.464035,10.036928,-0.042820,-0.627572,0.054725,-3.692627,2.655029,1.464844
11.357059,0.135319,0.938249,10.312355,0.093696,-0.153358,0.330153,-2.746582,1.556396,1.251221
11.367124,-0.153281,1.567540,9.366323,-0.194904,0.475933,-0.615880,-1.220703,1.861572,1.037598
11.377190,0.108375,1.222657,9.945917,0.066752,0.131050,-0.036285,-3.479004,1.159668,-0.518799
11.387255,0.259860,1.353186,9.861493,0.218237,0.261579,-0.120710,2.258301,0.854492,-1.373291
11.397320,-0.377814,0.379012,10.662028,-0.419437,-0.712595,0.679826,-2.624512,2.197266,-5.767822
11.407385,0.646057,1.025068,10.035731,0.604434,-0.066539,0.053528,0.701904,-1.281738,-9.490967
11.417450,-0.405357,0.523312,10.321337,-0.446980,-0.568295,0.339134,2.655029,-1.068115,-9.094238
11.427515,0.156874,0.368833,10.262060,0.115251,-0.722774,0.279857,-0.183105,-0.762939,-8.453369
11.437580,0.326920,-0.118553,10.311158,0.285298,-1.210161,0.328955,2.441406,-1.281738,-9.033203
11.447645,0.047302,-0.175435,10.246492,0.005679,-1.267042,0.264290,2.502441,0.274658,-3.784180
11.457718,0.395178,-0.213157,9.863888,0.353556,-1.304764,-0.118315,1.708984,-0.427246,-3.173828
11.467782,0.279619,-0.545466,10.148297,0.237996,-1.637073,0.166094,-2.288818,-2.044678,-6.042480
11.477848,0.202379,-0.214354,10.377620,0.160757,-1.305961,0.395417,-1.403809,-3.723145,-6.622314
11.487913,0.159269,0.110171,10.254276,0.117646,-0.981436,0.272073,1.708984,-0.762939,-2.014160
11.497979,-0.327519,0.285606,10.113569,-0.369141,-0.806001,0.131366,0.152588,0.091553,-0.061035
11.508044,-0.044907,0.127535,10.156080,-0.086529,-0.964072,0.173878,-0.885010,-0.061035,1.586914
11.518110,-0.052690,0.516127,9.942325,-0.094313,-0.575481,-0.039878,1.678467,1.007080,4.730225
11.528175,0.222737,0.842448,9.901609,0.181114,-0.249159,-0.080593,2.044678,0.213623,3.662109
11.538240,-0.044308,0.599354,10.232122,-0.085930,-0.492254,0.249920,-2.197266,-0.061035,-1.495361
11.548306,0.347877,0.904719,9.975855,0.306254,-0.186889,-0.006348,-0.518799,-0.122070,-2.349854
11.558372,0.199984,0.556842,10.077045,0.158362,-0.534765,0.094842,-4.180908,0.000000,-6.225586
11.568436,0.464035,0.035327,10.254875,0.422413,-1.056281,0.272672,-3.814697,-0.122070,-8.056641
11.578510,0.305365,0.136516,9.988429,0.263743,-0.955091,0.006226,-1.434326,-0.549316,-8.850098
11.588575,0.202379,-0.232916,10.153685,0.160757,-1.324523,0.171483,-1.831055,0.091553,-7.995605
11.598641,0.123942,-0.137115,10.097402,0.082320,-1.228722,0.115200,-0.793457,-0.518799,-7.080078
11.608706,-0.029938,-0.138312,10.272239,-0.071560,-1.229920,0.290036,2.532959,0.396729,-3.509521
11.618773,0.160466,-0.402962,10.311757,0.118844,-1.494569,0.329554,0.823975,0.396729,-1.861572
11.628838,0.282612,-0.516725,10.158475,0.240990,-1.608333,0.176273,1.220703,0.427246,0.671387
11.638904,0.202978,-0.123344,9.966275,0.161355,-1.214951,-0.015928,1.190186,1.190186,3.753662
11.648973,0.186213,-0.277224,10.217752,0.144590,-1.368831,0.235549,0.305176,1.647949,5.279541
11.659038,0.268242,-0.187410,10.141710,0.226620,-1.279018,0.159508,0.427246,0.823975,7.995605
11.669103,0.186812,-0.020956,10.079440,0.145189,-1.112564,0.097237,0.854492,0.457764,6.713867
11.679168,-0.146096,0.013173,10.193802,-0.187719,-1.078435,0.211599,-2.868652,1.617432,6.225586
11.689234,0.264051,0.444875,10.105785,0.222428,-0.646732,0.123582,-2.227783,1.159668,5.737305
11.699299,0.079634,0.373024,10.095007,0.038012,-0.718583,0.112805,0.488281,1.617432,4.150391
11.709377,0.084424,0.416135,9.984836,0.042802,-0.675473,0.002634,-1.129150,0.946045,3.356934
11.719443,0.323926,0.400567,10.009385,0.282304,-0.691040,0.027183,0.122070,0.122070,2.899170
11.729510,0.319136,0.593366,9.978849,0.277514,-0.498241,-0.003354,0.061035,0.091553,-0.061035
11.739576,0.137714,0.643661,10.076446,0.096091,-0.447946,0.094243,1.007080,0.671387,-0.640869
11.749641,0.308958,0.644260,10.130933,0.267335,-0.447347,0.148730,-0.274658,0.335693,-1.831055
11.759707,0.272433,0.528102,10.001602,0.230811,-0.563505,0.019399,0.823975,0.305176,-0.640869
11.769773,0.392783,0.710123,10.060280,0.351161,-0.381484,0.078077,0.640869,0.122070,-0.854492
11.779839,0.098196,0.658032,10.039323,0.056573,-0.433576,0.057120,-1.037598,0.030518,-1.281738
11.789904,0.201780,0.541873,10.220746,0.160158,-0.549734,0.238543,-1.953125,0.061035,-1.373291
11.799970,0.267643,0.715512,9.974059,0.226021,-0.376095,-0.008144,1.129150,0.335693,-0.152588
11.810035,0.270637,0.764610,10.017768,0.229015,-0.326997,0.035565,0.854492,0.244141,0.061035
11.820100,0.364642,0.856219,10.015373,0.323019,-0.235388,0.033170,0.427246,0.610352,-0.091553
11.830168,0.167651,0.837658,9.934541,0.126029,-0.253949,-0.047662,-1.800537,0.701904,-0.579834
11.840234,0.321531,1.032253,9.848320,0.279909,-0.059354,-0.133882,-1.495361,0.885010,-1.068115
11.850300,0.153880,1.092728,9.946516,0.112258,0.001120,-0.035687,1.129150,0.976562,-0.030518
11.860366,0.294587,0.924478,9.974658,0.252965,-0.167130,-0.007545,-0.579834,0.762939,-0.457764
11.870432,0.126936,0.982557,10.039323,0.085314,-0.109050,0.057120,-0.854492,0.091553,-1.739502
11.880497,0.165855,0.936453,9.957892,0.124233,-0.155155,-0.024310,-0.610352,0.183105,-1.281738
11.890563,0.192200,0.904719,10.289004,0.150578,-0.186889,0.306801,-0.030518,0.122070,-2.349854
11.900629,0.085622,1.255589,9.911788,0.044000,0.163982,-0.070414,3.509521,0.640869,-0.976562
11.910695,0.307161,1.166973,9.972263,0.265539,0.075366,-0.009940,0.213623,-0.061035,-3.417969
11.920760,0.308359,1.242416,9.928553,0.266736,0.150809,-0.053649,0.518799,0.518799,-4.211426
11.930825,0.205972,1.244811,9.760303,0.164349,0.153204,-0.221899,0.061035,1.068115,-4.333496
11.940890,0.182021,1.435215,9.993219,0.140399,0.343608,0.011016,-0.762939,1.495361,-4.882812
11.950956,0.242496,1.392704,10.124945,0.200873,0.301097,0.142742,-1.831055,1.037598,-5.798340
11.961036,0.358055,1.605262,9.868079,0.316433,0.513655,-0.114123,-1.373291,-0.732422,-9.735107
11.971102,0.178429,1.390309,10.132130,0.136807,0.298702,0.149927,-1.434326,-0.579834,-10.864258
11.981168,0.119152,1.498085,9.915980,0.077530,0.406477,-0.066223,-0.701904,0.976562,-8.758545
11.991232,0.195194,1.174757,10.147099,0.153572,0.083150,0.164896,-0.915527,0.427246,-9.796143
12.001298,0.264051,1.381926,10.007589,0.222428,0.290319,0.025386,1.007080,-0.335693,-9.460449
12.011363,0.231119,1.208287,9.973460,0.189497,0.116680,-0.008743,5.798340,-0.488281,-7.659912
12.021427,0.059875,1.175955,9.961485,0.018253,0.084347,-0.020718,5.157471,-0.640869,-7.049561
12.031492,0.211959,1.089135,10.118359,0.170337,-0.002472,0.136156,5.126953,-0.488281,-7.293701
12.041556,0.147892,0.911305,9.918375,0.106270,-0.180302,-0.063828,4.058838,-0.305176,-6.164551
12.051620,0.468825,1.059197,9.978250,0.427203,-0.032410,-0.003953,1.525879,-0.732422,-8.026123
12.061685,0.293390,0.938249,9.961485,0.251767,-0.153358,-0.020718,0.152588,0.183105,-8.087158
12.071756,0.328716,0.938249,9.917177,0.287094,-0.153358,-0.065026,-0.335693,0.701904,-6.439209
12.081821,0.057480,1.007106,10.107581,0.015858,-0.084502,0.125379,-4.180908,-0.518799,-6.896973
12.091885,0.027543,1.004711,10.062675,-0.014080,-0.086897,0.080472,-3.936768,-1.922607,-6.835938
12.101949,0.223336,0.892145,9.971065,0.181713,-0.199462,-0.011138,-2.075195,-1.403809,-4.150391
12.112014,0.178429,1.168171,9.946516,0.136807,0.076564,-0.035687,0.610352,-0.854492,-3.540039
12.122078,0.105980,0.844843,10.041718,0.064357,-0.246764,0.059515,-1.068115,-0.946045,-3.204346
12.132143,0.334105,0.993933,9.957294,0.292483,-0.097674,-0.024909,0.091553,-0.488281,-4.760742
12.142207,0.058678,1.003513,9.798025,0.017056,-0.088094,-0.184178,-0.335693,-0.183105,-5.126953
12.152271,0.358654,1.101110,9.811796,0.317032,0.009503,-0.170406,-1.922607,0.244141,-5.889893
12.162336,0.250280,1.015488,10.273436,0.208657,-0.076119,0.291234,-3.936768,-0.732422,-7.965088
12.172406,0.128732,1.005908,10.027348,0.087110,-0.085699,0.045145,-2.960205,-0.122070,-4.241943
12.182470,0.186812,0.764011,10.242301,0.145189,-0.327596,0.260098,-3.601074,0.000000,-0.549316
12.192544,0.470023,0.968785,9.947714,0.428400,-0.122822,-0.034489,0.305176,0.061035,-0.579834
12.202609,0.309556,1.431024,9.826765,0.267934,0.339417,-0.155438,0.915527,0.305176,-0.061035
12.212720,0.268242,1.190923,9.943522,0.226620,0.099316,-0.038680,3.112793,0.030518,2.441406
12.222785,-0.032932,0.935255,10.059082,-0.074554,-0.156352,0.076879,3.234863,0.244141,4.119873
12.232850,-0.119152,0.969384,10.325528,-0.160775,-0.122223,0.343325,7.202148,1.770020,8.026123
12.242914,-0.480800,1.059796,9.989626,-0.522423,-0.031811,0.007424,2.838135,2.563477,9.368896
12.252990,-0.919089,1.213077,9.823173,-0.960711,0.121470,-0.159030,4.821777,3.509521,11.474609
12.263054,-0.505948,1.210682,10.000404,-0.547570,0.119075,0.018201,2.197266,1.739502,8.300781
12.273119,-0.519719,1.189127,9.815389,-0.561342,0.097520,-0.166814,3.051758,2.563477,7.629395
12.283183,-0.392783,1.180745,9.884844,-0.434406,0.089137,-0.097358,-0.762939,1.312256,2.777100
12.293248,-0.381407,1.222059,10.015373,-0.423029,0.130451,0.033170,-1.892090,1.556396,3.143311
12.303313,-0.114961,0.899929,10.139914,-0.156583,-0.191679,0.157711,-2.105713,0.213623,2.838135
12.313378,-0.471819,1.077160,10.033934,-0.513441,-0.014447,0.051732,-3.295898,0.885010,3.265381
12.323443,0.256267,0.764610,10.066267,0.214645,-0.326997,0.084064,-1.403809,1.800537,3.295898
12.333517,-0.046104,1.056802,9.877659,-0.087727,-0.034805,-0.104543,-2.624512,-0.549316,6.774902
12.343582,-0.047900,1.029260,10.217752,-0.089523,-0.062348,0.235549,-1.525879,-1.037598,8.178711
12.353647,-0.049098,0.956212,10.228530,-0.090720,-0.135396,0.246327,1.892090,0.701904,9.246826
12.363713,-0.162263,1.000519,9.915980,-0.203885,-0.091088,-0.066223,1.312256,1.922607,10.375977
12.373777,-0.223934,0.538879,10.150692,-0.265557,-0.552728,0.168489,-1.708984,2.319336,10.009766
12.383842,0.013771,0.997526,9.947714,-0.027851,-0.094082,-0.034489,3.143311,1.037598,8.880615
12.393907,-0.037123,1.133443,10.260862,-0.078745,0.041836,0.278660,1.495361,1.098633,6.683350
12.403972,-0.128134,0.229922,10.114167,-0.169756,-0.861685,0.131965,-0.457764,1.037598,4.699707
12.414037,-0.270038,0.593366,10.095007,-0.311661,-0.498241,0.112805,1.983643,1.403809,6.896973
12.424102,-0.485590,0.401166,9.943522,-0.527213,-0.690441,-0.038680,0.488281,0.976562,7.965088
12.434166,-0.515528,0.396974,10.009385,-0.557150,-0.694633,0.027183,2.166748,0.427246,7.568359
12.444230,-0.567620,0.539478,10.021360,-0.609242,-0.552129,0.039158,5.462646,0.549316,9.063721
12.454303,-0.340692,0.382604,10.119556,-0.382314,-0.709003,0.137354,0.823975,-0.213623,9.674072
12.464367,-0.279020,0.471220,10.024354,-0.320642,-0.620387,0.042152,-1.068115,0.732422,8.544922
12.474432,-0.189805,0.766406,10.023755,-0.231428,-0.325201,0.041553,-1.495361,0.061035,7.934570
12.484497,-0.201780,0.696352,10.281819,-0.243403,-0.395255,0.299616,-2.044678,-0.152588,6.225586
12.494561,0.045505,0.668210,10.078242,0.003883,-0.423397,0.096040,-2.258301,0.396729,6.774902
12.504625,0.644260,0.524509,9.999805,0.602638,-0.567098,0.017603,0.274658,0.762939,8.117676
12.514690,0.364043,0.580193,10.048304,0.322421,-0.511414,0.066102,0.457764,0.915527,8.239746
12.524756,0.586181,0.519120,10.112970,0.544559,-0.572487,0.130767,-0.366211,1.098633,7.690430
12.534822,0.436492,0.687371,9.996812,0.394870,-0.404237,0.014609,1.007080,1.373291,7.812500
12.544890,0.352068,0.790955,9.940529,0.310445,-0.300652,-0.041674,1.983643,1.220703,7.843018
12.554956,0.365240,0.926873,10.095606,0.323618,-0.164735,0.113403,1.129150,0.671387,5.340576
12.565040,0.028740,0.996927,9.776470,-0.012882,-0.094680,-0.205733,-2.197266,1.403809,0.915527
12.575117,-0.344284,1.159189,9.818981,-0.385907,0.067582,-0.163221,-3.326416,1.770020,1.647949
12.585189,0.050295,1.228046,9.920770,0.008673,0.136439,-0.061433,-4.150391,0.488281,-1.464844
12.595255,-0.287402,0.496967,10.176438,-0.329025,-0.594641,0.194235,-6.378174,-0.640869,-6.622314
12.605328,-0.223336,0.808319,10.167457,-0.264958,-0.283288,0.185254,-3.936768,-1.342773,-7.720947
12.615393,-0.358055,0.628094,10.130933,-0.399678,-0.463513,0.148730,-1.373291,-0.946045,-6.072998
12.625457,-0.073048,0.899929,9.985435,-0.114671,-0.191679,0.003233,0.762939,-1.586914,-7.080078
12.635523,-0.227527,0.843646,9.880054,-0.269149,-0.247962,-0.102148,1.495361,-1.373291,-9.124756
12.645595,-0.127535,0.502954,10.054891,-0.169157,-0.588653,0.072688,2.410889,-0.671387,-9.246826
