time,ax_raw,ay_raw,az_raw,ax,ay,az,gx,gy,gz
0.000504,-0.061672,0.255070,10.045909,-0.011543,0.010199,-0.000434,0.000000,0.061035,0.030518
0.010572,-0.056882,0.256267,10.041119,-0.006753,0.011397,-0.005224,-0.030518,0.061035,0.030518
0.020639,-0.059277,0.253872,10.038724,-0.009148,0.009002,-0.007619,-0.061035,0.030518,0.000000
0.030705,-0.057480,0.242496,10.038126,-0.007352,-0.002375,-0.008218,-0.030518,0.061035,0.030518
0.040801,-0.062271,0.243693,10.044712,-0.012142,-0.001177,-0.001632,-0.030518,0.061035,0.030518
0.050868,-0.064067,0.251477,10.042317,-0.013938,0.006607,-0.004027,0.000000,0.030518,0.030518
0.060934,-0.062869,0.244891,10.045311,-0.012741,0.000020,-0.001033,-0.030518,0.030518,0.030518
0.071000,-0.062271,0.247885,10.044712,-0.012142,0.003014,-0.001632,-0.030518,0.030518,0.030518
0.081065,-0.056882,0.243693,10.045311,-0.006753,-0.001177,-0.001033,-0.030518,0.030518,0.030518
0.091130,-0.055684,0.241897,10.046508,-0.005556,-0.002974,0.000165,-0.061035,0.030518,0.030518
0.101195,-0.059277,0.245490,10.047706,-0.009148,0.000619,0.001362,-0.061035,0.000000,0.000000
0.111269,-0.061073,0.247885,10.048304,-0.010944,0.003014,0.001961,-0.030518,0.030518,-0.030518
0.121336,-0.061073,0.250878,10.042317,-0.010944,0.006008,-0.004027,-0.030518,0.061035,0.030518
0.131402,-0.053888,0.249681,10.045311,-0.003759,0.004810,-0.001033,-0.030518,0.030518,0.000000
0.141468,-0.047900,0.247286,10.050699,0.002228,0.002415,0.004356,-0.061035,0.091553,0.030518
0.151535,-0.053289,0.241897,10.047706,-0.003161,-0.002974,0.001362,-0.061035,0.091553,0.030518
0.161600,-0.055085,0.246687,10.047706,-0.004957,0.001816,0.001362,-0.061035,0.061035,0.030518
0.171673,-0.051493,0.252076,10.047706,-0.001364,0.007205,0.001362,-0.061035,0.030518,0.000000
0.181738,-0.051493,0.250878,10.045909,-0.001364,0.006008,-0.000434,-0.030518,0.030518,0.000000
0.191816,-0.055085,0.250280,10.052496,-0.004957,0.005409,0.006152,-0.030518,0.000000,0.030518
0.201883,-0.053289,0.250280,10.053693,-0.003161,0.005409,0.007350,-0.030518,0.000000,0.030518
0.211949,-0.052690,0.254471,10.053094,-0.002562,0.009600,0.006751,0.000000,0.030518,-0.030518
0.222016,-0.049098,0.243094,10.051897,0.001031,-0.001776,0.005553,0.000000,0.030518,0.000000
0.232084,-0.052092,0.245490,10.050699,-0.001963,0.000619,0.004356,0.000000,0.030518,0.000000
0.242150,-0.052092,0.244891,10.054292,-0.001963,0.000020,0.007948,-0.030518,0.030518,0.000000
0.252218,-0.046703,0.245490,10.057885,0.003426,0.000619,0.011541,-0.030518,0.030518,0.000000
0.262285,-0.042512,0.243693,10.051298,0.007617,-0.001177,0.004955,0.000000,0.061035,0.030518
0.272351,-0.044907,0.241298,10.051298,0.005222,-0.003572,0.004955,0.000000,0.061035,0.030518
0.282418,-0.051493,0.244292,10.051897,-0.001364,-0.000579,0.005553,-0.030518,0.030518,0.030518
0.292484,-0.051493,0.248483,10.050699,-0.001364,0.003613,0.004356,-0.030518,0.061035,0.030518
0.302550,-0.049098,0.251477,10.044712,0.001031,0.006607,-0.001632,0.000000,0.030518,0.000000
0.312617,-0.050295,0.248483,10.042916,-0.000167,0.003613,-0.003428,0.000000,0.061035,0.030518
0.322683,-0.047302,0.247885,10.042317,0.002827,0.003014,-0.004027,-0.030518,0.061035,0.030518
0.332749,-0.044308,0.249681,10.048304,0.005821,0.004810,0.001961,-0.030518,0.030518,0.000000
0.342815,-0.043709,0.240101,10.050101,0.006419,-0.004770,0.003757,-0.030518,0.061035,0.030518
0.352882,-0.044308,0.238304,10.053693,0.005821,-0.006566,0.007350,-0.030518,0.030518,0.000000
0.362948,-0.046703,0.246088,10.050101,0.003426,0.001218,0.003757,-0.030518,0.061035,0.000000
0.373015,-0.046703,0.243094,10.045909,0.003426,-0.001776,-0.000434,-0.030518,0.061035,-0.030518
0.383081,-0.035925,0.240699,10.053094,0.014203,-0.004171,0.006751,0.000000,0.030518,-0.030518
0.393148,-0.037722,0.238304,10.053693,0.012407,-0.006566,0.007350,0.000000,0.030518,0.000000
0.403215,-0.044907,0.239502,10.050101,0.005222,-0.005369,0.003757,-0.030518,0.030518,0.030518
0.413281,-0.044907,0.238903,10.048903,0.005222,-0.005967,0.002560,-0.030518,0.000000,0.030518
0.423348,-0.049098,0.240101,10.042317,0.001031,-0.004770,-0.004027,-0.061035,0.000000,0.030518
0.433414,-0.046703,0.246088,10.053094,0.003426,0.001218,0.006751,-0.061035,0.030518,0.000000
0.443480,-0.051493,0.241298,10.050699,-0.001364,-0.003572,0.004356,-0.061035,0.030518,0.030518
0.453546,-0.048499,0.246687,10.053693,0.001629,0.001816,0.007350,-0.091553,0.000000,0.000000
0.463613,-0.047302,0.246088,10.053693,0.002827,0.001218,0.007350,-0.061035,0.000000,0.000000
0.473742,-0.049098,0.241897,10.051298,0.001031,-0.002974,0.004955,-0.061035,0.000000,0.030518
0.483809,-0.041913,0.247885,10.056687,0.008216,0.003014,0.010343,-0.061035,0.000000,0.030518
0.493876,-0.043110,0.247286,10.065070,0.007018,0.002415,0.018726,-0.091553,0.030518,0.000000
0.503941,-0.050295,0.245490,10.051298,-0.000167,0.000619,0.004955,-0.091553,0.061035,-0.030518
0.514005,-0.051493,0.244891,10.054292,-0.001364,0.000020,0.007948,-0.061035,0.091553,0.030518
0.524072,-0.056283,0.245490,10.048903,-0.006154,0.000619,0.002560,-0.030518,0.091553,0.030518
0.534137,-0.055684,0.247286,10.050699,-0.005556,0.002415,0.004356,-0.030518,0.122070,0.000000
0.544201,-0.049697,0.247885,10.059082,0.000432,0.003014,0.012739,-0.030518,0.061035,0.030518
0.554266,-0.047302,0.242496,10.056687,0.002827,-0.002375,0.010343,0.000000,0.061035,0.030518
0.564333,-0.051493,0.239502,10.056687,-0.001364,-0.005369,0.010343,-0.061035,0.061035,0.030518
0.574397,-0.048499,0.237107,10.051897,0.001629,-0.007764,0.005553,-0.030518,0.061035,0.061035
0.584461,-0.047302,0.239502,10.056687,0.002827,-0.005369,0.010343,-0.061035,0.030518,0.030518
0.594527,-0.052690,0.240699,10.060878,-0.002562,-0.004171,0.014535,-0.030518,0.030518,0.030518
0.604593,-0.056283,0.241298,10.060878,-0.006154,-0.003572,0.014535,-0.061035,0.030518,0.000000
0.614657,-0.046703,0.247286,10.057286,0.003426,0.002415,0.010942,-0.122070,0.030518,0.030518
0.624722,-0.049098,0.250280,10.053094,0.001031,0.005409,0.006751,-0.122070,0.030518,0.030518
0.634786,-0.044907,0.246687,10.054891,0.005222,0.001816,0.008547,-0.122070,0.030518,0.000000
0.644850,-0.041913,0.246687,10.053693,0.008216,0.001816,0.007350,-0.091553,0.030518,0.000000
0.654915,-0.041314,0.247885,10.051897,0.008814,0.003014,0.005553,-0.061035,0.061035,0.000000
0.664979,-0.043709,0.244891,10.039922,0.006419,0.000020,-0.006422,-0.061035,0.061035,0.000000
0.675044,-0.046703,0.244292,10.045909,0.003426,-0.000579,-0.000434,0.000000,0.091553,0.000000
0.685109,-0.046703,0.244292,10.053094,0.003426,-0.000579,0.006751,0.000000,0.091553,0.030518
0.695174,-0.046703,0.243094,10.055490,0.003426,-0.001776,0.009146,-0.061035,0.061035,0.030518
0.705238,-0.044308,0.240699,10.046508,0.005821,-0.004171,0.000165,-0.061035,0.091553,0.030518
0.715303,-0.047302,0.241897,10.039323,0.002827,-0.002974,-0.007020,-0.061035,0.061035,0.030518
0.725369,-0.050894,0.237107,10.040521,-0.000766,-0.007764,-0.005823,-0.061035,0.030518,0.000000
0.735434,-0.053888,0.244292,10.047706,-0.003759,-0.000579,0.001362,-0.030518,0.061035,0.000000
0.745499,-0.054487,0.243693,10.054292,-0.004358,-0.001177,0.007948,-0.061035,0.091553,0.030518
0.755564,-0.052092,0.239502,10.046508,-0.001963,-0.005369,0.000165,-0.061035,0.061035,0.000000
0.765629,-0.052092,0.234712,10.043514,-0.001963,-0.010159,-0.002829,-0.061035,0.030518,0.000000
0.775694,-0.052690,0.244292,10.040521,-0.002562,-0.000579,-0.005823,-0.030518,0.030518,0.030518
0.785759,-0.054487,0.244292,10.047107,-0.004358,-0.000579,0.000763,-0.030518,0.030518,0.030518
0.795824,-0.054487,0.243094,10.056088,-0.004358,-0.001776,0.009745,-0.061035,0.061035,0.030518
0.805889,-0.049098,0.242496,10.057885,0.001031,-0.002375,0.011541,-0.061035,0.091553,0.030518
0.815953,-0.052092,0.244292,10.051897,-0.001963,-0.000579,0.005553,-0.030518,0.091553,0.030518
0.826019,-0.049098,0.252076,10.042317,0.001031,0.007205,-0.004027,-0.030518,0.061035,0.000000
0.836083,-0.048499,0.252675,10.043514,0.001629,0.007804,-0.002829,-0.030518,0.061035,0.000000
0.846148,-0.045505,0.243693,10.051897,0.004623,-0.001177,0.005553,-0.030518,0.061035,-0.030518
0.856213,-0.047900,0.246687,10.047706,0.002228,0.001816,0.001362,-0.061035,0.061035,0.030518
0.866279,-0.048499,0.246088,10.043514,0.001629,0.001218,-0.002829,-0.061035,0.091553,0.000000
0.876344,-0.048499,0.244292,10.048304,0.001629,-0.000579,0.001961,-0.091553,0.091553,0.000000
0.886409,-0.055085,0.245490,10.050101,-0.004957,0.000619,0.003757,-0.061035,0.061035,0.030518
0.896474,-0.057480,0.243693,10.046508,-0.007352,-0.001177,0.000165,-0.061035,0.061035,0.030518
0.906539,-0.059875,0.237706,10.047706,-0.009747,-0.007165,0.001362,-0.091553,0.061035,0.000000
0.916605,-0.061073,0.247286,10.043514,-0.010944,0.002415,-0.002829,-0.152588,0.061035,-0.030518
0.926670,-0.059277,0.249082,10.045311,-0.009148,0.004211,-0.001033,-0.122070,0.061035,-0.030518
0.936735,-0.061073,0.248483,10.046508,-0.010944,0.003613,0.000165,-0.061035,0.091553,-0.030518
0.946800,-0.056882,0.247286,10.050699,-0.006753,0.002415,0.004356,-0.061035,0.091553,-0.030518
0.956865,-0.056882,0.245490,10.049502,-0.006753,0.000619,0.003158,-0.061035,0.091553,-0.030518
0.966930,-0.055085,0.238903,10.044113,-0.004957,-0.005967,-0.002230,-0.061035,0.091553,0.000000
0.976998,-0.047900,0.239502,10.044113,0.002228,-0.005369,-0.002230,-0.091553,0.091553,-0.030518
0.987064,-0.054487,0.246687,10.048304,-0.004358,0.001816,0.001961,-0.061035,0.061035,-0.030518
0.997130,-0.047900,0.243094,10.051897,0.002228,-0.001776,0.005553,-0.030518,0.061035,0.000000
1.007195,-0.056882,0.237706,10.051298,-0.006753,-0.007165,0.004955,0.000000,0.091553,0.030518
1.017263,-0.061672,0.233514,10.047107,-0.011543,-0.011356,0.000763,0.000000,0.061035,0.030518
1.027327,-0.059277,0.233514,10.042317,-0.009148,-0.011356,-0.004027,0.030518,0.091553,0.000000
1.037392,-0.056882,0.231718,10.050699,-0.006753,-0.013152,0.004356,0.061035,0.091553,0.000000
1.047457,-0.062869,0.234113,10.051298,-0.012741,-0.010757,0.004955,0.030518,0.091553,0.030518
1.057523,-0.059277,0.238903,10.042317,-0.009148,-0.005967,-0.004027,0.000000,0.091553,0.030518
1.067589,-0.057480,0.243693,10.040521,-0.007352,-0.001177,-0.005823,-0.061035,0.061035,0.030518
1.077653,-0.061073,0.244292,10.041119,-0.010944,-0.000579,-0.005224,-0.061035,0.030518,0.030518
1.087719,-0.068857,0.240101,10.054292,-0.018728,-0.004770,0.007948,-0.061035,0.061035,0.000000
1.097786,-0.063468,0.236508,10.056687,-0.013340,-0.008362,0.010343,-0.061035,0.030518,0.000000
1.107852,-0.061672,0.242496,10.050101,-0.011543,-0.002375,0.003757,-0.061035,0.030518,0.030518
1.117919,-0.064067,0.242496,10.047706,-0.013938,-0.002375,0.001362,-0.030518,0.030518,0.030518
1.127984,-0.062869,0.241897,10.053693,-0.012741,-0.002974,0.007350,-0.030518,0.061035,0.000000
1.138049,-0.053888,0.241897,10.057885,-0.003759,-0.002974,0.011541,0.000000,0.091553,0.000000
1.148115,-0.049697,0.244292,10.052496,0.000432,-0.000579,0.006152,0.030518,0.061035,0.030518
1.158180,-0.044907,0.249681,10.054891,0.005222,0.004810,0.008547,0.000000,0.061035,0.030518
1.168247,-0.042512,0.249681,10.056687,0.007617,0.004810,0.010343,0.030518,0.091553,0.030518
1.178312,-0.044308,0.250878,10.050699,0.005821,0.006008,0.004356,0.061035,0.030518,0.030518
1.188376,-0.044907,0.250878,10.051298,0.005222,0.006008,0.004955,0.061035,0.030518,0.030518
1.198442,-0.043110,0.246687,10.047107,0.007018,0.001816,0.000763,0.061035,0.000000,-0.030518
1.208508,-0.039518,0.245490,10.044113,0.010611,0.000619,-0.002230,0.061035,0.061035,0.000000
1.218573,-0.043709,0.247286,10.048304,0.006419,0.002415,0.001961,0.091553,0.061035,-0.030518
1.228639,-0.045505,0.245490,10.047706,0.004623,0.000619,0.001362,0.061035,0.061035,-0.030518
1.238706,-0.049098,0.241298,10.059681,0.001031,-0.003572,0.013337,0.091553,0.061035,-0.030518
1.248771,-0.048499,0.237706,10.057286,0.001629,-0.007165,0.010942,0.122070,0.061035,0.000000
1.258836,-0.052690,0.236508,10.053094,-0.002562,-0.008362,0.006751,0.091553,0.030518,0.000000
1.268902,-0.053289,0.240699,10.047706,-0.003161,-0.004171,0.001362,0.061035,0.061035,0.000000
1.278968,-0.052690,0.247286,10.045311,-0.002562,0.002415,-0.001033,0.061035,0.030518,0.000000
1.289033,-0.049697,0.249681,10.050101,0.000432,0.004810,0.003757,0.000000,0.061035,-0.030518
1.299099,-0.049098,0.247885,10.042317,0.001031,0.003014,-0.004027,0.000000,0.030518,0.000000
1.309165,-0.046703,0.247286,10.035731,0.003426,0.002415,-0.010613,0.000000,0.030518,0.000000
1.319229,-0.043709,0.243693,10.030342,0.006419,-0.001177,-0.016002,0.030518,0.091553,0.030518
1.329297,-0.046703,0.245490,10.033934,0.003426,0.000619,-0.012409,0.030518,0.061035,0.000000
1.339363,-0.056283,0.253273,10.035731,-0.006154,0.008403,-0.010613,0.030518,0.061035,0.000000
1.349428,-0.055085,0.249681,10.036928,-0.004957,0.004810,-0.009415,0.061035,0.061035,0.030518
1.359494,-0.053289,0.246687,10.033336,-0.003161,0.001816,-0.013008,0.061035,0.061035,0.000000
1.369560,-0.053289,0.247885,10.031539,-0.003161,0.003014,-0.014804,0.030518,0.061035,0.000000
1.379626,-0.053289,0.249681,10.031539,-0.003161,0.004810,-0.014804,0.030518,0.061035,0.030518
1.389692,-0.055684,0.251477,10.039922,-0.005556,0.006607,-0.006422,0.000000,0.000000,0.000000
1.399757,-0.052092,0.250280,10.044113,-0.001963,0.005409,-0.002230,-0.030518,0.030518,0.000000
1.409822,-0.054487,0.242496,10.047107,-0.004358,-0.002375,0.000763,0.000000,0.000000,0.000000
1.419888,-0.050894,0.243693,10.042317,-0.000766,-0.001177,-0.004027,0.030518,0.000000,-0.030518
1.429955,-0.052690,0.243693,10.045311,-0.002562,-0.001177,-0.001033,0.030518,0.000000,-0.030518
1.440020,-0.058079,0.243094,10.042916,-0.007951,-0.001776,-0.003428,0.030518,0.000000,0.000000
1.450087,-0.055684,0.239502,10.046508,-0.005556,-0.005369,0.000165,0.030518,0.030518,0.030518
1.460152,-0.053888,0.239502,10.038724,-0.003759,-0.005369,-0.007619,0.030518,0.030518,0.000000
1.470217,-0.053888,0.240101,10.037527,-0.003759,-0.004770,-0.008817,0.000000,0.030518,0.000000
1.480283,-0.051493,0.234712,10.042916,-0.001364,-0.010159,-0.003428,0.061035,0.030518,0.030518
1.490351,-0.052690,0.237107,10.045311,-0.002562,-0.007764,-0.001033,0.030518,0.030518,0.030518
1.500416,-0.056882,0.238304,10.044113,-0.006753,-0.006566,-0.002230,0.000000,0.061035,0.000000
1.510482,-0.051493,0.233514,10.032138,-0.001364,-0.011356,-0.014205,0.000000,0.061035,0.030518
1.520548,-0.048499,0.234712,10.026749,0.001629,-0.010159,-0.019594,0.000000,0.030518,0.030518
1.530614,-0.054487,0.243693,10.032737,-0.004358,-0.001177,-0.013607,0.000000,0.030518,0.030518
1.540680,-0.058079,0.244891,10.037527,-0.007951,0.000020,-0.008817,0.000000,0.061035,0.030518
1.550746,-0.052690,0.244292,10.050101,-0.002562,-0.000579,0.003757,0.000000,0.061035,0.030518
1.560812,-0.046703,0.250878,10.042916,0.003426,0.006008,-0.003428,-0.030518,0.061035,0.000000
1.570878,-0.040117,0.253872,10.046508,0.010012,0.009002,0.000165,-0.061035,0.061035,-0.030518
1.580942,-0.036524,0.256267,10.056088,0.013604,0.011397,0.009745,-0.091553,0.091553,0.030518
1.591008,-0.037123,0.256267,10.047107,0.013006,0.011397,0.000763,-0.122070,0.061035,0.030518
1.601073,-0.041314,0.252675,10.039323,0.008814,0.007804,-0.007020,-0.091553,0.061035,0.030518
1.611140,-0.039518,0.252675,10.032737,0.010611,0.007804,-0.013607,-0.091553,0.061035,0.030518
1.621206,-0.048499,0.241298,10.025552,0.001629,-0.003572,-0.020792,-0.091553,0.061035,0.030518
1.631272,-0.052690,0.241897,10.029743,-0.002562,-0.002974,-0.016600,-0.122070,0.030518,0.030518
1.641337,-0.052690,0.244292,10.035731,-0.002562,-0.000579,-0.010613,-0.061035,-0.030518,0.000000
1.651403,-0.058079,0.241897,10.033934,-0.007951,-0.002974,-0.012409,-0.061035,0.000000,0.000000
1.661469,-0.055684,0.240699,10.030941,-0.005556,-0.004171,-0.015403,0.000000,0.000000,0.000000
1.671535,-0.059277,0.238304,10.028546,-0.009148,-0.006566,-0.017798,-0.030518,0.061035,0.000000
1.681600,-0.058678,0.232317,10.032737,-0.008549,-0.012554,-0.013607,-0.030518,0.030518,0.000000
1.691666,-0.051493,0.244292,10.034533,-0.001364,-0.000579,-0.011810,0.000000,0.030518,0.000000
1.701733,-0.050295,0.246088,10.032138,-0.000167,0.001218,-0.014205,0.030518,0.061035,0.030518
1.711798,-0.049697,0.245490,10.028546,0.000432,0.000619,-0.017798,0.091553,0.030518,0.000000
1.721864,-0.062271,0.249082,10.028546,-0.012142,0.004211,-0.017798,0.091553,0.030518,0.000000
1.731939,-0.061672,0.247885,10.034533,-0.011543,0.003014,-0.011810,0.091553,0.061035,0.000000
1.742005,-0.059875,0.247885,10.042317,-0.009747,0.003014,-0.004027,0.061035,0.061035,-0.030518
1.752071,-0.058079,0.245490,10.041718,-0.007951,0.000619,-0.004625,0.061035,0.061035,-0.030518
1.762137,-0.062271,0.237107,10.027947,-0.012142,-0.007764,-0.018397,-0.030518,0.091553,0.000000
1.772203,-0.066462,0.235909,10.029743,-0.016333,-0.008961,-0.016600,-0.030518,0.091553,0.000000
1.782269,-0.064666,0.232916,10.038724,-0.014537,-0.011955,-0.007619,-0.030518,0.061035,0.030518
1.792336,-0.062869,0.231718,10.042317,-0.012741,-0.013152,-0.004027,-0.061035,0.061035,0.000000
1.802403,-0.054487,0.234113,10.033934,-0.004358,-0.010757,-0.012409,-0.061035,0.030518,0.000000
1.812469,-0.050894,0.237706,10.038724,-0.000766,-0.007165,-0.007619,-0.061035,0.061035,0.000000
1.822536,-0.051493,0.238304,10.037527,-0.001364,-0.006566,-0.008817,-0.030518,0.091553,-0.030518
1.832602,-0.048499,0.246088,10.032138,0.001629,0.001218,-0.014205,-0.061035,0.061035,0.030518
1.842669,-0.050295,0.246088,10.035731,-0.000167,0.001218,-0.010613,-0.030518,0.030518,0.000000
1.852735,-0.049697,0.243693,10.038724,0.000432,-0.001177,-0.007619,-0.030518,0.061035,0.000000
1.862803,-0.049697,0.241298,10.037527,0.000432,-0.003572,-0.008817,-0.030518,0.061035,0.000000
1.872869,-0.047900,0.240101,10.038126,0.002228,-0.004770,-0.008218,-0.030518,0.061035,0.000000
1.882936,-0.054487,0.241298,10.049502,-0.004358,-0.003572,0.003158,-0.061035,0.000000,0.000000
1.893003,-0.050894,0.235311,10.048903,-0.000766,-0.009560,0.002560,-0.030518,0.030518,-0.030518
1.903069,-0.053289,0.241897,10.044113,-0.003161,-0.002974,-0.002230,-0.030518,0.030518,-0.030518
1.913136,-0.052690,0.239502,10.038126,-0.002562,-0.005369,-0.008218,-0.030518,0.030518,0.000000
1.923203,-0.054487,0.243693,10.033934,-0.004358,-0.001177,-0.012409,0.000000,0.061035,0.000000
1.933270,-0.057480,0.247286,10.042916,-0.007352,0.002415,-0.003428,0.000000,0.061035,0.030518
1.943336,-0.062869,0.237706,10.041119,-0.012741,-0.007165,-0.005224,0.000000,0.061035,0.000000
1.953403,-0.050295,0.240101,10.036329,-0.000167,-0.004770,-0.010014,0.000000,0.061035,0.000000
1.963468,-0.046703,0.231119,10.032138,0.003426,-0.013751,-0.014205,-0.030518,0.061035,0.030518
1.973534,-0.044907,0.235311,10.033934,0.005222,-0.009560,-0.012409,-0.030518,0.061035,0.030518
1.983602,-0.047900,0.239502,10.047107,0.002228,-0.005369,0.000763,-0.061035,0.061035,0.000000
1.993668,-0.040117,0.235311,10.045909,0.010012,-0.009560,-0.000434,-0.091553,0.030518,0.000000
2.003735,-0.040715,0.239502,10.044712,0.009413,-0.005369,-0.001632,-0.091553,0.030518,0.000000
2.013803,-0.042512,0.244292,10.042317,0.007617,-0.000579,-0.004027,-0.091553,0.000000,0.030518
2.023873,-0.040715,0.248483,10.042916,0.009413,0.003613,-0.003428,-0.061035,0.000000,0.030518
2.033946,-0.044308,0.244891,10.041718,0.005821,0.000020,-0.004625,-0.030518,0.030518,0.030518
2.044014,-0.050295,0.245490,10.048903,-0.000167,0.000619,0.002560,-0.030518,0.061035,-0.030518
2.054114,-0.046104,0.243094,10.043514,0.004024,-0.001776,-0.002829,-0.030518,0.061035,-0.030518
2.064180,-0.047900,0.247885,10.043514,0.002228,0.003014,-0.002829,0.000000,0.061035,0.000000
2.074247,-0.048499,0.243693,10.045909,0.001629,-0.001177,-0.000434,0.000000,0.061035,0.000000
2.084318,-0.044308,0.251477,10.037527,0.005821,0.006607,-0.008817,-0.183105,0.152588,-0.030518
2.094389,-0.046104,0.240699,10.060280,0.004024,-0.004171,0.013936,-0.091553,0.122070,0.000000
2.104455,-0.043110,0.249681,10.042916,0.007018,0.004810,-0.003428,-0.030518,0.091553,-0.030518
2.114529,-0.049697,0.252675,10.053693,0.000432,0.007804,0.007350,-0.183105,0.152588,-0.091553
2.124600,-0.046104,0.259261,10.049502,0.004024,0.014390,0.003158,-0.122070,0.152588,-0.061035
2.134666,-0.049098,0.267045,10.056687,0.001031,0.022174,0.010343,-0.183105,0.122070,0.000000
2.144737,-0.047302,0.256866,10.055490,0.002827,0.011995,0.009146,-0.183105,0.122070,0.030518
2.154807,-0.047900,0.250878,10.054292,0.002228,0.006008,0.007948,-0.183105,0.122070,0.000000
2.164872,-0.051493,0.249681,10.046508,-0.001364,0.004810,0.000165,-0.183105,0.091553,0.000000
2.174943,-0.051493,0.254471,10.050101,-0.001364,0.009600,0.003757,-0.152588,0.091553,0.030518
2.185015,-0.052690,0.253273,10.061477,-0.002562,0.008403,0.015134,-0.091553,0.061035,0.000000
2.195080,-0.056283,0.249681,10.061477,-0.006154,0.004810,0.015134,-0.061035,0.000000,0.000000
2.205151,-0.049098,0.254471,10.053094,0.001031,0.009600,0.006751,-0.061035,0.030518,0.000000
2.215222,-0.056283,0.244891,10.052496,-0.006154,0.000020,0.006152,-0.183105,0.030518,-0.030518
2.225287,-0.055085,0.242496,10.050699,-0.004957,-0.002375,0.004356,-0.335693,0.122070,0.000000
2.235360,-0.113763,0.241298,10.056088,-0.063635,-0.003572,0.009745,-0.396729,0.183105,0.030518
2.245432,-0.752036,0.176034,10.030342,-0.701908,-0.068837,-0.016002,-0.732422,0.274658,0.274658
2.255496,-1.010099,0.049098,10.017169,-0.959971,-0.195773,-0.029174,-3.692627,0.793457,4.028320
2.265568,-0.765807,0.091011,10.046508,-0.715679,-0.153860,0.000165,-4.608154,0.946045,5.187988
2.275638,-0.234113,0.144300,10.157278,-0.183985,-0.100571,0.110934,-5.340576,0.976562,5.554199
2.285704,-0.187410,0.165855,10.136920,-0.137282,-0.079015,0.090577,-3.753662,0.762939,5.493164
2.295775,-0.290995,0.189805,10.096804,-0.240866,-0.055065,0.050460,-1.861572,0.457764,5.828857
2.305847,-0.533491,0.080832,10.051298,-0.483362,-0.164039,0.004955,-1.159668,0.427246,6.378174
2.315912,-0.557441,0.094603,10.064471,-0.507312,-0.150267,0.018127,-0.732422,0.274658,7.202148
2.325982,-0.490979,0.063468,10.069860,-0.440850,-0.181403,0.023516,-0.457764,0.274658,8.178711
2.336053,-0.485590,0.092807,10.065668,-0.435462,-0.152064,0.019325,-0.152588,0.366211,7.873535
2.346119,-0.542472,0.037722,10.076446,-0.492343,-0.207149,0.030102,0.366211,0.549316,7.171631
2.356192,-0.471220,0.156874,10.021360,-0.421092,-0.087997,-0.024983,1.129150,0.427246,6.256104
2.366265,-0.339494,0.203577,10.026151,-0.289366,-0.041294,-0.020193,0.274658,0.335693,3.906250
2.376330,-0.474214,0.368234,10.078242,-0.424085,0.123364,0.031899,-0.152588,0.335693,3.662109
2.386401,-0.629890,0.293989,10.105186,-0.579762,0.049118,0.058843,0.061035,0.335693,3.509521
2.396472,-0.656834,0.401765,10.074650,-0.606706,0.156894,0.028306,-0.396729,0.762939,5.157471
2.406539,-0.520318,0.198787,10.107581,-0.470189,-0.046084,0.061238,-0.030518,1.037598,7.263184
2.416611,-0.667612,-0.005389,10.098600,-0.617483,-0.250259,0.052256,0.640869,0.946045,5.798340
2.426682,-0.787961,0.164059,9.907597,-0.737833,-0.080812,-0.138746,0.335693,1.434326,5.218506
2.436746,-0.602946,0.011975,9.978849,-0.552818,-0.232895,-0.067495,-0.549316,1.525879,2.960205
2.446818,-0.444875,0.107776,9.941726,-0.394746,-0.137095,-0.104617,-0.976562,0.946045,2.227783
2.456888,-0.592169,0.193398,10.056687,-0.542040,-0.051473,0.010343,-1.983643,0.640869,1.953125
2.466916,-0.710123,-0.034129,9.973460,-0.659995,-0.279000,-0.072883,-3.967285,0.122070,0.854492
2.476990,-0.861010,-0.220342,10.134525,-0.810881,-0.465212,0.088182,-3.021240,-0.152588,-0.946045
2.487062,-0.304766,-0.141905,10.048304,-0.254638,-0.386775,0.001961,-1.342773,-1.007080,-1.708984
2.497128,-0.389191,-0.011376,10.180031,-0.339062,-0.256247,0.133687,0.152588,-1.556396,-2.502441
2.507200,-0.405357,0.193398,9.993219,-0.355229,-0.051473,-0.053125,1.190186,-1.220703,-2.075195
2.517272,-0.337099,0.259860,10.056088,-0.286970,0.014989,0.009745,0.610352,-1.068115,-1.129150
2.527338,-0.262853,0.313748,10.067465,-0.212725,0.068877,0.021121,0.335693,-0.823975,-1.342773
2.537410,-0.301174,0.185614,10.028546,-0.251045,-0.059257,-0.017798,0.488281,-0.213623,-1.556396
2.547483,-0.302970,0.079634,10.083631,-0.252841,-0.165236,0.037287,1.251221,-0.030518,-2.258301
2.557550,-0.473615,0.383203,9.975855,-0.423487,0.138333,-0.070488,1.586914,0.305176,-1.922607
2.567622,-0.261057,0.399968,10.059681,-0.210929,0.155098,0.013337,1.892090,0.518799,-0.244141
2.577694,-0.250878,0.250280,10.082433,-0.200750,0.005409,0.036090,-0.183105,0.152588,-2.929688
2.587759,-0.407153,0.305365,10.024953,-0.357025,0.060494,-0.021391,0.244141,0.274658,-3.967285
2.597833,-0.387394,0.385598,9.974059,-0.337266,0.140728,-0.072285,0.732422,0.366211,-5.096436
2.607909,-0.341889,0.190404,10.052496,-0.291761,-0.054466,0.006152,-0.335693,0.610352,-5.249023
2.617976,-0.516127,0.222138,10.003398,-0.465998,-0.022732,-0.042946,0.457764,1.007080,-5.340576
2.628049,-0.478405,0.171244,9.989626,-0.428277,-0.073627,-0.056717,-0.579834,0.885010,-2.227783
2.638122,-0.518522,0.146695,10.150093,-0.468393,-0.098176,0.103749,-0.885010,0.854492,-1.068115
2.648189,-0.646057,0.215552,10.127340,-0.595928,-0.029319,0.080997,-1.800537,0.793457,1.098633
2.658261,-0.641266,0.069456,10.089619,-0.591138,-0.175415,0.043275,-0.946045,0.762939,1.647949
2.668335,-0.429307,0.162861,10.065070,-0.379179,-0.082009,0.018726,-0.061035,0.671387,2.441406
2.678403,-0.438289,0.236508,10.065668,-0.388160,-0.008362,0.019325,1.281738,0.366211,1.770020
2.688475,-0.541873,0.280217,10.086625,-0.491745,0.035347,0.040281,1.007080,0.488281,2.166748
2.698547,-0.361648,0.357457,10.080637,-0.311519,0.112586,0.034294,0.671387,0.091553,1.953125
2.708613,-0.670007,0.064067,10.045311,-0.619878,-0.180804,-0.001033,-1.281738,-0.640869,2.380371
2.718686,-0.393981,0.091011,10.018965,-0.343852,-0.153860,-0.027378,-1.800537,-0.396729,2.197266
2.728762,-0.680186,0.126936,9.934541,-0.630057,-0.117935,-0.111803,-2.655029,-0.640869,1.647949
2.738835,-1.044229,-0.189207,10.069261,-0.994100,-0.434077,0.022917,-1.861572,-0.640869,-0.305176
2.748907,-0.802332,-0.073048,10.215956,-0.752203,-0.317919,0.169612,-1.403809,-0.335693,2.685547
2.758980,-0.484991,0.026944,10.066267,-0.434863,-0.217927,0.019924,-0.579834,-0.854492,5.035400
2.769047,-0.178429,0.673599,10.084828,-0.128300,0.428729,0.038485,6.103516,1.678467,7.690430
2.779120,-0.237706,0.012574,9.639954,-0.187577,-0.232297,-0.406390,3.356934,2.166748,9.704590
2.789192,-0.654439,0.105980,10.003997,-0.604311,-0.138891,-0.042347,2.655029,1.678467,5.371094
2.799265,-0.892145,0.162861,10.057885,-0.842016,-0.082009,0.011541,-0.152588,1.800537,4.730225
2.809337,-0.803529,-0.017364,9.981843,-0.753401,-0.262234,-0.064501,-0.488281,1.068115,6.286621
2.819410,-0.362247,0.371228,10.057286,-0.312118,0.126357,0.010942,-2.807617,0.610352,10.131836
2.829476,-0.309556,0.187410,10.169253,-0.259428,-0.057460,0.122909,-4.547119,-0.488281,10.864258
2.839548,-0.506547,0.020358,10.150692,-0.456418,-0.224513,0.104348,-2.838135,-1.831055,4.669189
2.849619,-0.462838,0.065264,10.100995,-0.412709,-0.179606,0.054651,-1.617432,-1.312256,4.302979
2.859686,-0.547262,0.259860,10.010583,-0.497133,0.014989,-0.035761,-2.502441,0.427246,7.232666
2.869759,-0.528701,0.113763,9.911190,-0.478572,-0.131107,-0.135154,-2.166748,1.190186,7.202148
2.879834,-0.456850,0.295785,9.844728,-0.406721,0.050914,-0.201616,0.671387,1.251221,7.385254
2.889900,-0.188009,0.338297,10.123748,-0.137881,0.093426,0.077404,0.732422,1.312256,7.873535
2.899972,-0.428708,0.404758,10.117161,-0.378580,0.159888,0.070818,-0.671387,0.823975,7.629395
2.910044,-0.793350,0.389789,10.121353,-0.743222,0.144919,0.075009,0.274658,0.274658,6.317139
2.920110,-0.612526,0.434696,10.008188,-0.562398,0.189826,-0.038156,-1.678467,-0.305176,5.920410
2.930183,-0.316143,0.007784,10.229128,-0.266014,-0.237087,0.182785,-0.366211,-0.762939,1.464844
2.940256,-0.443079,0.217947,10.036928,-0.392950,-0.026924,-0.009415,0.823975,-0.518799,0.366211
2.950322,-0.585582,0.247885,9.810000,-0.535454,0.003014,-0.236344,0.915527,-0.457764,-1.708984
2.960393,-0.840652,0.335303,9.898017,-0.790523,0.090432,-0.148327,0.640869,-0.030518,-2.349854
2.970466,-0.584984,0.482596,9.928553,-0.534855,0.237726,-0.117790,-0.213623,0.213623,-2.441406
2.980532,-0.585582,0.798140,9.934541,-0.535454,0.553270,-0.111803,0.457764,1.190186,-4.974365
2.990604,-0.371827,0.617915,9.946516,-0.321698,0.373044,-0.099827,-1.434326,0.823975,-4.119873
3.000676,-0.746049,0.426313,10.101594,-0.695920,0.181443,0.055250,-2.838135,0.976562,-8.819580
3.010742,-0.750839,0.394579,10.044712,-0.700710,0.149709,-0.001632,-1.647949,0.305176,-13.275146
3.020814,-0.556842,0.032333,10.161469,-0.506714,-0.212538,0.115126,-0.396729,-1.007080,-14.648438
3.030885,-0.486788,0.596360,10.012379,-0.436659,0.351489,-0.033964,1.770020,-1.525879,-14.770508
3.040957,-0.191003,0.477806,10.186617,-0.140874,0.232936,0.140273,1.159668,-1.220703,-12.847900
3.051030,-0.807720,0.329914,9.992620,-0.757592,0.085043,-0.053723,1.770020,-1.464844,-14.434814
3.061102,-0.785566,0.440085,9.956695,-0.735438,0.195214,-0.089649,1.647949,-1.525879,-13.702393
3.071168,-0.553848,0.164059,10.013577,-0.503720,-0.080812,-0.032767,-0.610352,-0.610352,-11.352539
3.081240,-0.529299,0.086221,10.339898,-0.479171,-0.158650,0.293555,-0.274658,-0.762939,-11.627197
3.091312,-0.385598,-0.115560,10.192604,-0.335470,-0.360430,0.146261,1.068115,-0.671387,-8.911133
3.101379,-0.101190,-0.011376,9.930350,-0.051061,-0.256247,-0.115994,0.732422,-0.427246,-6.164551
3.111452,-0.474214,0.102986,10.218351,-0.424085,-0.141885,0.172007,0.823975,-0.061035,-3.540039
3.121524,-0.578397,0.136516,9.965078,-0.528269,-0.108354,-0.081266,0.122070,0.091553,0.762939
3.131590,-0.518522,0.117955,10.178234,-0.468393,-0.126916,0.131891,-1.403809,0.457764,2.990723
3.141658,-0.584984,0.036524,10.144704,-0.534855,-0.208346,0.098360,-0.488281,0.213623,1.739502
3.151730,-0.301772,0.049098,10.021959,-0.251644,-0.195773,-0.024384,0.885010,0.061035,1.037598
3.161796,-0.731080,0.395178,10.213561,-0.680951,0.150308,0.167217,-0.213623,0.122070,1.800537
3.171864,-1.093326,0.061073,10.067465,-1.043198,-0.183798,0.021121,-0.854492,0.427246,1.342773
3.181931,-0.696352,0.133522,10.068063,-0.646223,-0.111348,0.021720,0.305176,0.762939,0.152588
3.191998,-0.807122,0.368234,10.097402,-0.756993,0.123364,0.051059,0.549316,0.946045,-1.281738
3.202064,-1.061592,0.617915,9.905202,-1.011464,0.373044,-0.141141,1.037598,0.793457,-2.929688
3.212130,-0.934058,0.598755,9.976454,-0.883929,0.353884,-0.069890,0.244141,-0.122070,-6.561279
3.222196,-0.808918,0.822689,10.109976,-0.758789,0.577819,0.063633,0.213623,-0.823975,-7.812500
3.232264,-0.717907,0.629890,10.010583,-0.667779,0.385020,-0.035761,1.312256,-0.091553,-9.735107
3.242331,-0.880768,0.559836,9.920171,-0.830640,0.314965,-0.126173,1.220703,-0.213623,-11.840820
3.252397,-0.816103,0.264650,10.187814,-0.765974,0.019779,0.141471,-1.159668,-0.122070,-12.207031
3.262465,-0.480800,0.166454,10.218351,-0.430672,-0.078417,0.172007,-1.770020,-0.335693,-14.068604
3.272532,-0.531694,-0.071851,10.315948,-0.481566,-0.316721,0.269604,-1.007080,-0.640869,-15.625000
3.282598,-0.656834,-0.040117,10.197394,-0.606706,-0.284987,0.151051,0.274658,0.152588,-20.050049
3.293032,-0.824485,-0.086819,10.080637,-0.774357,-0.331690,0.034294,1.586914,0.061035,-20.324707
3.303116,-0.082628,-0.147294,10.080637,-0.032500,-0.392164,0.034294,-1.190186,-0.762939,-15.441895
3.313181,-0.264051,-0.307760,10.182426,-0.213922,-0.552631,0.136082,-1.678467,-1.098633,-17.578125
3.323246,-0.137714,-0.058079,10.307565,-0.087585,-0.302950,0.261222,-0.732422,-2.105713,-18.493652
3.333312,-0.625100,-0.070054,10.026151,-0.574972,-0.314925,-0.020193,-1.556396,-1.831055,-15.991211
3.343378,-0.355660,0.176034,9.976454,-0.305532,-0.068837,-0.069890,-0.549316,-2.166748,-15.533447
3.353444,-0.631088,0.319136,9.844728,-0.580959,0.074266,-0.201616,0.671387,-1.647949,-8.178711
3.363510,-0.525108,0.335901,9.963281,-0.474980,0.091031,-0.083062,0.152588,-1.281738,-6.286621
3.373576,-0.856818,0.212558,10.034533,-0.806690,-0.032313,-0.011810,0.335693,0.640869,-2.075195
3.383641,-0.404160,0.230521,9.795031,-0.354031,-0.014350,-0.251312,2.166748,2.349854,1.159668
3.393708,-0.510738,0.162263,9.915381,-0.460609,-0.082608,-0.130963,2.563477,1.678467,0.762939
3.403776,-0.552052,0.178429,9.975256,-0.501923,-0.066442,-0.071087,0.061035,-0.091553,1.312256
3.413842,-0.520917,0.293390,9.930948,-0.470788,0.048519,-0.115395,-0.396729,0.305176,2.075195
3.423908,-0.421523,0.006586,10.051897,-0.371395,-0.238284,0.005553,-3.082275,0.640869,1.037598
3.433975,-0.364642,-0.280217,10.048903,-0.314513,-0.525088,0.002560,-2.105713,1.037598,-1.007080
3.444040,0.020358,-0.149689,10.103390,0.070486,-0.394559,0.057046,-1.647949,-0.091553,-1.770020
3.454108,0.234113,0.076042,9.991423,0.284242,-0.168829,-0.054921,-2.258301,0.335693,-0.335693
3.464173,-0.019160,0.058678,10.241104,0.030968,-0.186193,0.194760,0.091553,1.190186,0.091553
3.474238,0.026944,0.022753,10.050699,0.077072,-0.222118,0.004356,1.220703,0.610352,-0.335693
3.484302,-0.193997,0.124541,9.914183,-0.143868,-0.120330,-0.132160,2.410889,0.152588,-1.464844
3.494367,-0.032932,-0.052092,9.986633,0.017197,-0.296962,-0.059711,0.152588,0.213623,-1.892090
3.504432,0.092208,-0.310754,10.117760,0.142337,-0.555624,0.071416,0.061035,0.030518,-3.845215
3.514497,-0.191602,0.500559,9.817185,-0.141473,0.255689,-0.229158,-1.037598,-0.976562,-3.692627
3.524562,0.058079,0.222138,10.100995,0.108208,-0.022732,0.054651,1.159668,-2.288818,-2.899170
3.534628,-0.460443,0.322729,9.762100,-0.410314,0.077858,-0.284244,1.434326,-1.129150,-3.936768
3.544693,-0.622705,0.392184,9.813593,-0.572577,0.147314,-0.232751,0.396729,-0.701904,-2.166748
3.554759,-0.637674,0.016765,10.278825,-0.587545,-0.228105,0.232482,-1.251221,0.488281,0.488281
3.564823,-0.283810,-0.065863,10.324330,-0.233681,-0.310734,0.277987,-0.549316,-1.403809,-3.936768
3.574888,-0.433499,0.289199,10.333911,-0.383370,0.044328,0.287567,1.251221,-1.037598,-3.692627
3.584953,-0.441282,0.086221,10.205178,-0.391154,-0.158650,0.158835,0.152588,2.441406,6.774902
3.595018,-0.070653,0.105980,10.182426,-0.020525,-0.138891,0.136082,0.640869,1.983643,10.284424
3.605083,-0.082029,-0.137115,10.008787,-0.031901,-0.381985,-0.037557,0.000000,1.037598,13.153076
3.615149,0.015568,-0.275427,9.750125,0.065696,-0.520298,-0.296219,0.213623,0.335693,14.984131
3.625214,-0.027543,-0.502355,9.932146,0.022586,-0.747226,-0.114198,2.929688,1.892090,16.754150
3.635279,0.126337,-0.334105,10.177037,0.176466,-0.578976,0.130693,-0.183105,1.953125,20.507812
3.645345,0.458047,-0.277822,9.875863,0.508176,-0.522693,-0.170480,-1.007080,2.380371,19.134521
3.655410,0.252076,-0.194595,10.497371,0.302204,-0.439466,0.451027,-2.471924,3.723145,15.441895
3.665476,0.263452,-0.117955,10.027348,0.313581,-0.362825,-0.018995,-1.037598,2.502441,12.084961
3.675540,0.169448,0.128732,9.995015,0.219576,-0.116138,-0.051328,-1.281738,1.403809,12.481689
3.685606,0.384999,-0.067659,10.102192,0.435128,-0.312530,0.055849,1.037598,0.671387,10.528564
3.695671,0.275427,-0.088017,9.891431,0.325556,-0.332888,-0.154913,2.136230,-0.457764,9.460449
3.705736,-0.028740,0.331710,10.235116,0.021388,0.086840,0.188772,0.885010,-1.037598,9.155273
3.715801,0.131726,0.023351,10.184821,0.181855,-0.221519,0.138477,-1.922607,-1.739502,7.659912
3.725866,0.255070,-0.006586,10.023755,0.305198,-0.251457,-0.022588,-1.800537,-2.960205,1.892090
3.735930,-0.079036,0.083826,10.036329,-0.028907,-0.161045,-0.010014,-1.281738,-2.868652,1.342773
3.746035,-0.213157,0.120948,9.892628,-0.163028,-0.123922,-0.153715,1.129150,-1.373291,0.915527
3.756100,-0.183818,0.175435,10.083032,-0.133689,-0.069435,0.036689,0.762939,0.732422,2.746582
3.766166,-0.277822,0.128134,10.046508,-0.227694,-0.116737,0.000165,0.213623,1.831055,2.624512
3.776230,-0.439486,0.108375,9.904603,-0.389358,-0.136496,-0.141740,-0.091553,0.823975,0.274658
3.786295,-0.392783,0.386796,9.969269,-0.342655,0.141925,-0.077075,0.213623,-0.305176,-0.579834
3.796360,-0.301174,0.207768,10.014774,-0.251045,-0.037103,-0.031569,0.854492,-1.281738,-1.617432
3.806425,-0.302371,0.295186,9.915980,-0.252243,0.050316,-0.130364,0.427246,-0.030518,-1.770020
3.816489,-0.708926,0.279619,9.793235,-0.658797,0.034748,-0.253109,-1.098633,1.403809,-1.037598
3.826554,-0.291594,0.077239,10.148895,-0.241465,-0.167631,0.102552,-1.464844,2.227783,0.061035
3.836632,-0.481399,-0.019160,10.059681,-0.431270,-0.264031,0.013337,-1.251221,2.197266,-0.640869
3.846698,-0.708327,0.284409,10.019564,-0.658199,0.039538,-0.026779,-0.549316,0.823975,-3.540039
3.856762,-0.522713,-0.026345,9.984836,-0.472585,-0.271216,-0.061507,0.640869,0.061035,-3.417969
3.866827,-0.668210,0.509540,9.689650,-0.618082,0.264670,-0.356693,1.586914,1.556396,-2.868652
3.876892,-0.741857,0.304167,10.196197,-0.691729,0.059297,0.149853,0.732422,0.885010,-1.251221
3.886957,-0.849034,0.216151,10.041119,-0.798906,-0.028720,-0.005224,-1.739502,-0.213623,-2.593994
3.897022,-0.168250,0.224533,9.869875,-0.118122,-0.020337,-0.176468,-0.732422,-1.251221,-2.929688
3.907087,-0.767005,0.297581,10.006990,-0.716876,0.052711,-0.039353,0.488281,-1.647949,-2.197266
3.917153,-0.381407,-0.020956,9.996812,-0.331278,-0.265827,-0.049532,-1.708984,-0.152588,0.244141
3.927218,-0.552052,0.025746,9.965078,-0.501923,-0.219124,-0.081266,-1.647949,0.671387,0.061035
3.937283,0.017963,0.028141,10.135723,0.068091,-0.216729,0.089379,-1.403809,-0.946045,-0.915527
3.947347,-0.078437,0.362845,10.448273,-0.028308,0.117975,0.401929,-1.098633,-0.701904,0.000000
3.957413,-0.440684,0.172441,10.165660,-0.390555,-0.072429,0.119317,1.098633,-0.427246,-0.915527
3.967510,-0.968187,0.541274,9.840536,-0.918058,0.296404,-0.205807,-0.640869,-0.457764,3.234863
3.977575,-0.293989,0.294587,10.133926,-0.243860,0.049717,0.087583,-1.129150,-1.770020,6.134033
3.987640,-0.167651,0.371228,10.160272,-0.117523,0.126357,0.113928,-0.793457,-1.068115,7.720947
3.997707,-0.178429,0.670605,9.909992,-0.128300,0.425735,-0.136351,-0.549316,0.152588,6.042480
4.007852,-0.171843,0.370031,10.374626,-0.121714,0.125160,0.328282,2.166748,1.037598,6.591797
4.017918,-0.125140,0.329914,10.157278,-0.075011,0.085043,0.110934,2.807617,0.488281,8.636475
4.027984,-0.113763,0.695154,9.872271,-0.063635,0.450284,-0.174073,-2.441406,0.366211,7.904053
4.038050,0.310754,0.292791,10.058483,0.360882,0.047921,0.012140,-1.464844,0.854492,4.119873
4.048116,0.280217,0.302970,10.041119,0.330346,0.058099,-0.005224,-1.892090,0.946045,4.028320
4.058182,0.115560,0.487386,9.905801,0.165688,0.242516,-0.140543,-0.030518,-0.701904,2.593994
4.068249,-0.364043,0.419128,9.877061,-0.313914,0.174258,-0.169283,-1.434326,-0.396729,3.082275
4.078314,0.158670,0.200583,10.117760,0.208799,-0.044288,0.071416,-0.671387,-2.197266,3.845215
4.088380,0.160466,0.455054,9.991423,0.210595,0.210183,-0.054921,2.807617,-1.251221,5.493164
4.098446,-0.516127,0.380808,9.932146,-0.465998,0.135938,-0.114198,-1.586914,2.166748,7.476807
4.108511,-0.356259,0.002994,10.449470,-0.306131,-0.241877,0.403127,-2.685547,1.586914,6.866455
4.118578,0.002395,0.288600,9.730366,0.052524,0.043729,-0.315978,-0.427246,1.464844,6.927490
4.128644,-0.462838,0.471819,10.099797,-0.412709,0.226948,0.053454,-1.739502,-0.183105,6.286621
4.138710,-0.309556,0.345482,9.914183,-0.259428,0.100611,-0.132160,-1.525879,-1.342773,4.669189
4.148776,-0.258662,-0.073647,10.409354,-0.208534,-0.318517,0.363010,-2.105713,-0.610352,8.666992
4.158843,-0.565823,0.076641,10.022558,-0.515695,-0.168230,-0.023786,-0.701904,0.000000,7.629395
4.168908,-0.140109,-0.295785,10.158475,-0.089980,-0.540655,0.112132,-0.915527,-0.488281,5.340576
4.178974,-0.095801,-0.167651,10.122550,-0.045672,-0.412522,0.076207,-0.732422,-0.122070,6.500244
4.189039,-0.298779,0.003593,9.973460,-0.248650,-0.241278,-0.072883,0.732422,1.281738,6.774902
4.199105,-0.761017,0.218546,10.208172,-0.710889,-0.026325,0.161828,-3.997803,2.136230,9.887695
4.209171,-0.312550,0.025746,10.319540,-0.262422,-0.219124,0.273197,-4.730225,3.570557,11.383057
4.219237,0.256267,0.503553,9.955497,0.306396,0.258682,-0.090846,0.518799,0.305176,10.986328
4.229303,-0.208965,0.242496,9.890233,-0.158837,-0.002375,-0.156110,1.312256,1.220703,9.643555
4.239368,0.185015,0.493374,9.875863,0.235144,0.248503,-0.170480,1.007080,1.251221,9.979248
4.249434,-0.195793,0.373024,10.034533,-0.145664,0.128154,-0.011810,-1.556396,1.373291,12.695312
4.259499,0.007185,0.135319,9.680070,0.057314,-0.109552,-0.366273,-0.610352,1.647949,12.390137
4.269565,0.546064,0.131127,11.007510,0.596193,-0.113743,0.961166,-1.800537,1.922607,16.693115
4.279631,0.621508,0.456251,10.584789,0.671636,0.211381,0.538445,-0.671387,0.396729,12.756348
4.289696,0.368833,0.376018,9.895622,0.418962,0.131148,-0.150722,0.579834,1.373291,13.671875
4.299762,0.406555,-0.426313,9.700428,0.456683,-0.671184,-0.345916,0.183105,1.342773,15.228271
4.309828,0.864602,-0.046703,10.261461,0.914731,-0.291573,0.215118,1.556396,-0.152588,13.854980
4.319895,0.101190,0.078437,9.947714,0.151318,-0.166434,-0.098630,0.640869,1.129150,12.603760
4.329962,-0.111368,-0.067659,10.169253,-0.061240,-0.312530,0.122909,2.563477,2.197266,8.941650
4.340028,0.342488,-0.276625,9.984238,0.392616,-0.521495,-0.062106,-2.532959,1.556396,5.035400
4.350094,0.321531,-0.180225,9.710008,0.371660,-0.425096,-0.336336,-2.777100,1.678467,2.380371
4.360158,0.196392,-0.292192,10.001003,0.246520,-0.537063,-0.045341,-2.319336,-1.007080,-5.950928
4.370223,0.064666,-0.200583,9.909393,0.114794,-0.445453,-0.136950,-1.922607,-1.159668,-8.880615
4.380289,-0.287402,-0.277224,10.459649,-0.237274,-0.522094,0.413306,-0.457764,-1.251221,-9.613037
4.390355,0.355062,0.000599,10.235116,0.405190,-0.244272,0.188772,3.936768,0.427246,-6.683350
4.400422,0.029938,-0.095801,10.133926,0.080066,-0.340671,0.087583,2.563477,1.403809,-4.333496
4.410487,-0.531694,-0.292791,10.485396,-0.481566,-0.537662,0.439052,1.068115,1.434326,-7.446289
4.420553,0.561632,-1.274749,10.069261,0.611761,-1.519620,0.022917,-1.678467,-0.854492,-7.324219
4.430619,0.062869,-0.963995,9.863888,0.112998,-1.208866,-0.182456,1.739502,-1.342773,-10.559082
4.440685,-0.437091,0.204774,10.409354,-0.386963,-0.040096,0.363010,-0.976562,-0.793457,-8.880615
4.450751,-0.497565,-0.323328,10.925480,-0.447437,-0.568198,0.879137,3.387451,-1.770020,-7.141113
4.460816,-0.680186,0.353864,10.013577,-0.630057,0.108994,-0.032767,7.385254,-0.854492,0.213623
4.470882,-0.628693,1.102906,9.457932,-0.578564,0.858036,-0.588411,6.530762,-1.068115,7.232666
4.481009,-0.328716,-0.742456,9.742341,-0.278588,-0.987327,-0.304003,-3.173828,-0.976562,6.622314
4.491110,0.453856,-0.447869,10.390792,0.503985,-0.692739,0.344449,-0.457764,-0.793457,3.509521
4.501209,-0.844843,0.526306,10.377021,-0.794715,0.281435,0.330677,9.063721,-0.183105,12.847900
4.511308,-1.189726,1.864523,8.569979,-1.139597,1.619652,-1.476365,1.312256,1.495361,15.716553
4.521407,0.246088,-0.937650,9.965676,0.296217,-1.182521,-0.080667,-7.354736,-2.227783,0.579834
4.531505,0.753832,-0.202978,9.971065,0.803961,-0.447848,-0.075278,-0.183105,-1.861572,-6.256104
4.541602,-0.709525,0.017364,10.912308,-0.659396,-0.227507,0.865964,-2.075195,0.732422,-6.622314
4.551700,-0.565823,-0.048499,10.060878,-0.515695,-0.293370,0.014535,-3.356934,-0.396729,-12.329102
4.561799,-0.491578,0.012574,10.273436,-0.441449,-0.232297,0.227093,-3.723145,-1.251221,-12.542725
4.571897,-0.308958,0.170645,10.105785,-0.258829,-0.074225,0.059441,-0.640869,-0.976562,-13.824463
4.582073,-0.479004,0.835263,9.884246,-0.428875,0.590393,-0.162098,-0.946045,-0.244141,-13.641357
4.592165,-0.414937,0.332908,10.039323,-0.364809,0.088037,-0.007020,-1.953125,2.136230,-9.948730
4.602256,-0.470023,0.176034,10.044712,-0.419894,-0.068837,-0.001632,-0.854492,3.448486,-7.781982
4.612345,-0.658032,0.010179,9.909393,-0.607903,-0.234692,-0.136950,-4.516602,0.854492,-10.162354
4.622434,-0.040117,0.173639,10.053693,0.010012,-0.071232,0.007350,-2.716064,-0.457764,-9.460449
4.632526,-0.088017,0.335303,9.902807,-0.037888,0.090432,-0.143537,-1.129150,1.770020,-9.643555
4.642616,-0.065863,-0.174836,9.750723,-0.015735,-0.419707,-0.295620,4.058838,1.464844,-11.169434
4.652708,-0.220342,0.221539,9.994417,-0.170213,-0.023331,-0.051927,4.913330,1.556396,-6.164551
4.662799,-0.359253,-0.179028,10.239307,-0.309124,-0.423898,0.192964,-4.211426,-0.518799,-1.342773
4.672890,-0.020956,-0.116158,9.987830,0.029172,-0.361029,-0.058513,-3.265381,0.366211,-4.852295
4.683006,-0.235909,0.008981,10.065668,-0.185781,-0.235889,0.019325,-2.685547,0.518799,-3.936768
4.693098,-0.336500,0.046703,10.024354,-0.286372,-0.198168,-0.021989,-1.556396,0.030518,-5.828857
4.703189,-0.120350,0.582589,9.639954,-0.070221,0.337718,-0.406390,-2.197266,0.000000,-2.716064
4.713281,0.692161,0.568817,9.288484,0.742289,0.323947,-0.757859,3.204346,-1.708984,-4.241943
4.723372,-0.034129,0.540077,10.099797,0.015999,0.295206,0.053454,1.861572,-3.295898,-4.211426
4.733463,0.762215,0.229922,9.815389,0.812343,-0.014949,-0.230955,-1.190186,-1.403809,-6.591797
4.743554,0.182620,1.186133,10.466834,0.232749,0.941263,0.420491,-0.640869,-0.091553,-5.462646
4.753646,0.495769,0.172441,9.888437,0.545898,-0.072429,-0.157907,2.197266,0.305176,-3.753662
4.763737,0.753234,0.322130,9.927356,0.803362,0.077260,-0.118988,-0.457764,-0.030518,-6.652832
4.773829,0.580193,0.386796,9.545350,0.630322,0.141925,-0.500993,-0.701904,0.518799,-10.009766
4.783944,0.018561,0.128134,9.968071,0.068690,-0.116737,-0.078272,2.105713,1.525879,-11.657715
4.794204,0.410746,0.606539,9.906400,0.460874,0.361668,-0.139944,0.457764,2.014160,-10.345459
4.804296,0.068258,0.646655,9.845327,0.118387,0.401785,-0.201017,1.068115,1.129150,-11.657715
4.814384,-0.061073,0.363444,9.817185,-0.010944,0.118574,-0.229158,-0.701904,-0.244141,-11.444092
4.824485,-0.179626,-0.085023,9.889036,-0.129498,-0.329894,-0.157308,-0.213623,-0.671387,-14.068604
4.834713,-0.107177,-0.358055,9.717193,-0.057049,-0.602926,-0.329151,1.892090,-1.556396,-15.441895
4.844801,-0.952020,-0.177231,10.088421,-0.901892,-0.422102,0.042077,4.486084,0.732422,-15.563965
4.854902,-0.614323,0.703537,10.308763,-0.564194,0.458666,0.262419,4.608154,0.122070,-11.169434
4.865004,-0.456251,1.460363,9.880054,-0.406123,1.215493,-0.166289,-2.166748,0.732422,-3.234863
4.875093,-0.540676,-0.420925,10.482402,-0.490547,-0.665795,0.436058,-3.021240,-2.044678,-5.676270
4.885195,-0.437091,-0.010778,9.831555,-0.386963,-0.255648,-0.214788,0.213623,-2.593994,-7.751465
4.895297,-0.560435,-0.118553,10.100396,-0.510306,-0.363424,0.054053,-4.119873,-1.068115,-5.218506
4.905388,-0.253273,-0.125140,9.705817,-0.203145,-0.370010,-0.340527,-3.906250,0.091553,-5.737305
4.915489,0.568817,-0.619711,10.516531,0.618946,-0.864582,0.470187,-4.760742,-0.488281,1.586914
4.925592,0.568218,-0.801134,10.587184,0.618347,-1.046005,0.540840,-2.258301,-0.305176,3.387451
4.935681,0.459245,-0.922681,10.226135,0.509374,-1.167552,0.179791,1.434326,0.061035,6.011963
4.945784,0.416733,0.014969,10.102192,0.466862,-0.229902,0.055849,2.929688,0.762939,7.324219
4.955885,-0.023950,-0.247286,9.917776,0.026178,-0.492156,-0.128568,2.868652,0.244141,8.392334
4.965978,0.845442,0.036524,10.366243,0.895570,-0.208346,0.319900,-1.586914,1.007080,5.432129
4.976079,0.650847,0.104782,10.025552,0.700975,-0.140088,-0.020792,-1.464844,1.068115,1.495361
4.986184,0.261057,0.111368,10.001003,0.311186,-0.133502,-0.045341,-1.953125,-0.396729,-1.983643
4.996272,0.413740,0.428110,9.923165,0.463868,0.183239,-0.123179,3.753662,0.732422,-0.549316
5.006376,0.412542,0.090412,9.921967,0.462671,-0.154459,-0.124376,0.885010,1.373291,0.030518
5.016477,-0.012574,0.552052,9.863289,0.037555,0.307181,-0.183054,-0.701904,1.647949,-3.387451
5.026721,0.035327,0.368234,9.886641,0.085455,0.123364,-0.159703,-1.251221,-0.122070,-3.356934
5.036826,0.490979,-0.125739,10.009984,0.541108,-0.370609,-0.036359,-0.915527,-2.685547,-5.523682
5.046930,0.244891,0.220941,10.148297,0.295019,-0.023930,0.101953,-0.213623,-2.197266,-6.317139
5.057022,-0.213755,0.059875,10.417736,-0.163627,-0.184995,0.371393,-0.732422,-2.838135,-7.965088
5.067126,0.423918,-0.153281,10.083032,0.474047,-0.398152,0.036689,-1.098633,-1.403809,-5.920410
5.077227,0.314346,-0.138911,9.730366,0.364475,-0.383782,-0.315978,-0.457764,0.244141,-5.279541
5.087316,0.161065,-0.067659,9.959689,0.211194,-0.312530,-0.086655,0.061035,0.427246,-5.096436
5.097420,0.246687,0.047900,10.030941,0.296816,-0.196970,-0.015403,-1.708984,-0.366211,-2.777100
5.107522,0.289797,-0.234712,10.031539,0.339926,-0.479582,-0.014804,-1.159668,0.091553,-3.906250
5.117614,0.317340,-0.114961,10.120155,0.367469,-0.359831,0.073812,-1.831055,0.640869,-3.448486
5.127718,0.399370,-0.363444,10.032737,0.449498,-0.608315,-0.013607,-0.427246,-0.427246,-6.103516
5.137821,0.065863,-0.196392,10.057885,0.115992,-0.441262,0.011541,-0.030518,-0.549316,-7.598877
5.147922,0.363444,0.038320,9.943522,0.413573,-0.206550,-0.102821,0.701904,-1.098633,-5.950928
5.158056,0.029339,-0.001796,10.013577,0.079467,-0.246667,-0.032767,0.976562,-0.030518,-4.882812
5.168160,0.036524,0.086221,9.842333,0.086653,-0.158650,-0.204011,-0.213623,0.366211,-4.364014
5.178267,0.103585,-0.267045,10.263257,0.153713,-0.511915,0.216914,1.007080,0.854492,-3.326416
5.188389,0.025746,-0.217947,10.019564,0.075875,-0.462817,-0.026779,0.427246,1.098633,-2.166748
5.198494,-0.678389,0.048499,9.990225,-0.628261,-0.196371,-0.056118,-2.655029,-0.061035,-4.089355
5.208587,-0.445474,-0.413740,10.377021,-0.395345,-0.658610,0.330677,-1.708984,-0.915527,-2.105713
5.218692,-0.647254,0.196392,9.690249,-0.597126,-0.048479,-0.356094,2.319336,-1.892090,2.624512
5.228796,-0.673000,0.667612,9.880054,-0.622872,0.422741,-0.166289,2.014160,-0.610352,3.540039
5.238887,-0.415536,0.095202,10.282418,-0.365407,-0.149669,0.236074,0.976562,-0.640869,5.065918
5.249030,-0.601150,0.006586,9.918375,-0.551021,-0.238284,-0.127969,0.427246,0.274658,2.777100
5.259134,-0.549657,0.259860,9.929751,-0.499528,0.014989,-0.116593,0.396729,1.098633,2.838135
5.269226,-0.565823,0.115560,9.930948,-0.515695,-0.129311,-0.115395,0.732422,0.762939,3.479004
5.279318,-0.241298,0.158670,9.867480,-0.191170,-0.086200,-0.178863,0.183105,0.885010,4.608154
5.289456,-0.664019,-0.069456,10.097402,-0.613891,-0.314326,0.051059,-0.671387,0.396729,5.737305
5.299547,-0.281415,0.007185,9.808802,-0.231286,-0.237685,-0.237541,1.129150,1.251221,8.178711
5.309639,-0.225731,-0.281415,10.334509,-0.175602,-0.526285,0.288166,-2.563477,-0.183105,7.110596
5.319733,-0.268242,-0.029938,10.269844,-0.218114,-0.274808,0.223500,-1.678467,0.701904,8.331299
5.329824,0.081431,0.007185,10.162667,0.131559,-0.237685,0.116323,-1.403809,1.739502,10.284424
5.339916,-0.159868,-0.080832,10.214160,-0.109739,-0.325702,0.167816,-1.129150,3.021240,9.307861
5.350007,-0.045505,-0.159868,10.062675,0.004623,-0.404738,0.016331,-0.457764,3.143311,9.948730
5.360097,0.143102,-0.237706,10.222542,0.193231,-0.482576,0.176199,1.434326,1.281738,11.199951
5.370188,-0.172441,0.099992,10.149494,-0.122313,-0.144878,0.103150,0.213623,1.129150,9.582520
5.380292,0.164059,0.063468,10.100396,0.214187,-0.181403,0.054053,0.366211,0.000000,7.751465
5.390415,0.078437,0.093406,9.528585,0.128565,-0.151465,-0.517758,1.586914,-1.007080,9.063721
5.400506,0.356259,-0.202379,10.262659,0.406388,-0.447250,0.216315,0.122070,1.617432,13.549805
5.410595,0.205373,0.055085,10.057286,0.255501,-0.189785,0.010942,2.105713,2.655029,14.221191
5.420687,-0.122146,-0.160466,9.766890,-0.072017,-0.405337,-0.279454,2.105713,2.288818,14.556885
5.430778,0.466430,-0.236508,10.058483,0.516559,-0.481379,0.012140,0.091553,0.000000,13.702393
5.440869,0.541873,-0.174836,9.853110,0.592002,-0.419707,-0.193233,-0.305176,1.708984,13.092041
5.450960,0.572410,-0.144899,10.245894,0.622538,-0.389769,0.199550,-1.800537,2.319336,9.918213
5.461051,0.836461,-0.104183,10.349478,0.886589,-0.349054,0.303135,-1.922607,1.861572,7.568359
5.471141,0.852028,0.218546,10.056088,0.902157,-0.026325,0.009745,1.708984,0.213623,6.896973
5.481231,0.780776,0.181423,9.910591,0.830905,-0.063448,-0.135753,2.899170,0.244141,5.096436
5.491347,0.479603,0.298779,9.715995,0.529731,0.053908,-0.330348,2.624512,0.305176,2.868652
5.501439,0.319735,0.215552,9.961485,0.369864,-0.029319,-0.084859,-0.640869,0.366211,1.800537
5.511530,0.246687,0.184417,10.005793,0.296816,-0.060454,-0.040551,-1.098633,-0.427246,2.288818
5.521622,0.361049,0.168250,9.989028,0.411178,-0.076620,-0.057316,-1.647949,-0.152588,0.518799
5.531712,0.213755,0.076641,9.781260,0.263884,-0.168230,-0.265084,-2.258301,1.617432,1.190186
5.541803,0.073048,0.192200,10.212962,0.123177,-0.052670,0.166619,-3.204346,0.152588,-0.030518
5.551894,0.059277,0.126337,10.177037,0.109405,-0.118533,0.130693,-0.396729,-0.671387,1.281738
5.561984,0.229922,0.174238,9.944121,0.280050,-0.070633,-0.102222,1.739502,-1.037598,5.157471
5.572075,0.574805,0.201182,9.911788,0.624933,-0.043689,-0.134555,2.166748,-0.732422,5.065918
5.582165,0.467029,0.306563,10.197394,0.517157,0.061692,0.151051,0.335693,-0.305176,6.195068
5.592281,0.487985,-0.180225,10.129136,0.538114,-0.425096,0.082793,-1.007080,0.854492,4.669189
5.602373,0.614323,-0.262853,10.190808,0.664451,-0.507724,0.144465,-0.213623,-0.152588,3.662109
5.612465,0.638273,0.576601,9.727971,0.688401,0.331730,-0.318373,1.708984,-1.037598,6.500244
5.622555,0.303569,0.620310,10.178833,0.353697,0.375440,0.132489,1.861572,-1.037598,9.246826
5.632647,0.355660,0.435894,9.833351,0.405789,0.191023,-0.212992,0.213623,-1.068115,11.962891
5.642739,0.454455,0.456251,9.932745,0.504583,0.211381,-0.113599,0.335693,0.305176,13.122559
5.652831,0.307161,0.111967,9.909992,0.357290,-0.132903,-0.136351,-0.793457,0.885010,12.908936
5.662923,0.881367,0.259860,10.083032,0.931496,0.014989,0.036689,-0.732422,0.610352,9.735107
5.673014,0.590971,0.636476,9.906400,0.641100,0.391606,-0.139944,-1.464844,0.305176,7.568359
5.683105,0.664618,0.512534,10.055490,0.714746,0.267664,0.009146,-1.800537,1.190186,8.483887
5.693221,0.702938,0.559237,9.917177,0.753067,0.314367,-0.129166,-1.281738,1.556396,8.361816
5.703313,0.710722,0.354463,9.887838,0.760851,0.109592,-0.158505,-1.647949,0.244141,6.164551
5.713403,0.838856,0.161065,9.986633,0.888984,-0.083805,-0.059711,1.770020,-0.152588,6.591797
5.723495,0.580792,0.288001,10.018367,0.630921,0.043131,-0.027977,1.739502,-0.640869,9.918213
5.733586,0.813109,0.162263,9.927356,0.863238,-0.082608,-0.118988,1.739502,-1.098633,7.049561
5.743677,0.633483,0.031135,10.035132,0.683611,-0.213735,-0.011212,1.007080,-1.037598,7.812500
5.753768,0.743055,-0.065863,9.989626,0.793183,-0.310734,-0.056717,0.671387,-1.098633,7.965088
5.763859,0.673000,0.043709,10.148297,0.723129,-0.201161,0.101953,1.312256,-0.946045,9.155273
5.773950,0.416135,-0.191003,10.132729,0.466263,-0.435873,0.086385,0.488281,-1.983643,5.737305
5.784041,0.705333,0.063468,9.917776,0.755462,-0.181403,-0.128568,0.762939,-2.319336,6.317139
5.794203,0.613724,0.155676,9.966275,0.663852,-0.089194,-0.080068,0.335693,-1.861572,7.812500
5.804295,0.473016,-0.032333,9.794432,0.523145,-0.277203,-0.251911,-0.701904,-1.068115,8.850098
5.814384,0.815504,0.023950,9.992021,0.865633,-0.220920,-0.054322,-1.007080,-0.366211,9.918213
5.824486,0.639470,0.199385,10.151290,0.689599,-0.045485,0.104947,0.244141,-0.488281,6.500244
5.834578,0.679587,0.159269,10.075847,0.729715,-0.085602,0.029504,1.129150,-1.007080,5.859375
5.844669,0.317939,0.288001,9.950707,0.368067,0.043131,-0.095636,1.281738,-0.518799,10.955811
5.854887,0.923879,-0.023950,10.077045,0.974007,-0.268821,0.030701,-0.610352,-1.403809,9.460449
5.865166,1.123264,0.371228,10.024354,1.173393,0.126357,-0.021989,-0.061035,-1.678467,2.593994
5.875255,0.650248,0.034129,10.132130,0.700376,-0.210742,0.085787,-0.152588,-2.349854,-0.976562
5.885358,0.681383,0.119152,9.966874,0.731512,-0.125718,-0.079470,0.335693,-3.173828,-2.716064
5.895459,0.714913,-0.094603,10.062076,0.765042,-0.339474,0.015732,0.457764,-2.685547,-1.831055
5.905549,0.745450,-0.270637,9.987830,0.795578,-0.515508,-0.058513,0.579834,-2.685547,-0.610352
5.915651,1.069376,-0.266446,10.175839,1.119505,-0.511316,0.129496,1.007080,-2.899170,-3.234863
5.925752,0.508942,-0.013173,9.926757,0.559070,-0.258043,-0.119586,-0.640869,-2.685547,-2.960205
5.935840,0.440085,-0.179028,10.096205,0.490213,-0.423898,0.049861,-1.159668,-2.746582,-1.525879
5.945943,1.046624,0.070054,9.966275,1.096752,-0.174816,-0.080068,-0.183105,-2.685547,0.854492
5.956043,0.901126,0.238304,9.962084,0.951255,-0.006566,-0.084260,-0.396729,-2.838135,1.190186
5.966136,1.401086,0.065264,9.971664,1.451215,-0.179606,-0.074680,-0.366211,-2.716064,0.488281
5.976237,1.046025,0.123344,10.018367,1.096153,-0.121527,-0.027977,-0.488281,-2.227783,0.305176
5.986338,1.501677,0.066462,10.021360,1.551806,-0.178409,-0.024983,-1.190186,-3.051758,-2.136230
5.996453,1.128653,0.203577,9.976454,1.178781,-0.041294,-0.069890,-0.244141,-2.655029,-3.387451
6.006557,0.995131,0.036524,10.102791,1.045259,-0.208346,0.056448,0.152588,-2.166748,-4.577637
6.016658,0.867596,-0.074844,10.098001,0.917724,-0.319715,0.051658,0.854492,-1.953125,-4.852295
6.026749,0.741857,-0.056882,9.993818,0.791986,-0.301752,-0.052526,1.129150,-1.739502,-6.042480
6.036851,0.631686,-0.004790,9.989028,0.681815,-0.249661,-0.057316,1.190186,-1.525879,-6.652832
6.046952,0.417332,0.091011,10.060280,0.467461,-0.153860,0.013936,1.525879,-0.915527,-6.469727
6.057044,0.518522,0.062271,9.923763,0.568650,-0.182600,-0.122580,1.220703,-0.244141,-7.354736
6.067146,0.490380,-0.053888,10.015373,0.540509,-0.298758,-0.030971,1.129150,0.061035,-8.453369
6.077250,0.349074,0.170645,10.094409,0.399203,-0.074225,0.048065,1.281738,0.305176,-11.993408
6.087338,0.398172,0.074246,10.060280,0.448301,-0.170625,0.013936,0.366211,0.030518,-13.549805
6.097469,0.359852,0.221539,10.014774,0.409980,-0.023331,-0.031569,0.732422,0.244141,-10.803223
6.107573,0.313748,0.206570,10.042916,0.363876,-0.038300,-0.003428,-1.495361,-0.457764,-11.199951
6.117665,0.050295,0.010778,9.998009,0.100424,-0.234093,-0.048334,-1.708984,-1.037598,-14.526367
6.127769,0.620310,-0.018561,10.016570,0.670439,-0.263432,-0.029773,-2.655029,-1.434326,-11.535645
6.137873,0.464634,0.019160,10.008787,0.514762,-0.225710,-0.037557,-2.899170,-1.708984,-10.528564
6.147964,0.294587,-0.079634,9.996213,0.344716,-0.324505,-0.050131,-3.356934,-2.349854,-10.498047
6.158069,0.613724,-0.120948,10.052496,0.663852,-0.365819,0.006152,-3.509521,-2.258301,-9.246826
6.168173,0.576601,-0.196392,10.112371,0.626729,-0.441262,0.066028,-2.105713,-2.044678,-9.765625
6.178263,0.178429,-0.110171,10.077643,0.228557,-0.355041,0.031300,-1.556396,-1.708984,-9.765625
6.188367,0.248483,-0.219144,10.032737,0.298612,-0.464015,-0.013607,-1.495361,-1.556396,-8.544922
6.198494,0.244891,0.155676,10.042317,0.295019,-0.089194,-0.004027,0.213623,-1.007080,-6.500244
6.208585,-0.029339,0.023351,10.072255,0.020790,-0.221519,0.025911,-0.335693,-1.007080,-3.601074
6.218690,0.557441,0.211360,10.011182,0.607569,-0.033510,-0.035162,0.274658,-0.610352,-4.089355
6.228793,0.675994,0.477806,10.047706,0.726123,0.232936,0.001362,0.762939,-0.488281,-4.180908
6.238887,0.338297,0.250878,10.020163,0.388425,0.006008,-0.026181,0.061035,-0.793457,-5.523682
6.249045,0.643063,0.172441,10.005194,0.693191,-0.072429,-0.041149,0.000000,-0.762939,-6.134033
6.259150,0.621508,0.228724,10.013577,0.671636,-0.016146,-0.032767,-0.091553,-0.640869,-7.019043
6.269241,0.380209,0.192799,10.045909,0.430338,-0.052071,-0.000434,-0.213623,-0.701904,-7.171631
6.279334,0.392184,0.134720,10.050101,0.442313,-0.110151,0.003757,-0.335693,-0.732422,-6.927490
6.289438,0.376617,0.150287,10.040521,0.426745,-0.094583,-0.005823,-0.396729,-0.610352,-5.615234
6.299552,0.352068,0.116158,10.041718,0.402196,-0.128712,-0.004625,-0.518799,-0.610352,-4.760742
6.309655,0.458646,0.140707,10.041718,0.508775,-0.104163,-0.004625,-0.488281,-0.488281,-3.723145
6.319758,0.487386,0.137115,10.038126,0.537515,-0.107756,-0.008218,-0.427246,-0.488281,-3.509521
6.329849,0.640668,0.138911,10.037527,0.690796,-0.105959,-0.008817,-0.122070,-0.274658,-2.532959
6.339940,0.510738,0.102986,10.045311,0.560866,-0.141885,-0.001033,-0.061035,-0.183105,-2.014160
6.350030,0.410746,0.099393,10.045909,0.460874,-0.145477,-0.000434,-0.091553,-0.152588,-1.525879
6.360121,0.399370,0.095202,10.048304,0.449498,-0.149669,0.001961,-0.183105,-0.122070,-0.823975
6.370212,0.449066,0.072449,10.054292,0.499195,-0.172421,0.007948,-0.152588,-0.061035,-0.701904
6.380303,0.665815,0.019759,10.060878,0.715944,-0.225112,0.014535,-0.061035,0.061035,0.000000
6.390393,0.425116,-0.010179,10.079440,0.475244,-0.255049,0.033096,0.213623,0.152588,0.183105
6.400507,0.244292,-0.127535,10.133926,0.294420,-0.372405,0.087583,1.464844,2.105713,0.213623
6.410598,-0.364043,0.170645,9.990824,-0.313914,-0.074225,-0.055520,1.220703,2.624512,0.640869
6.420688,-0.338895,0.180225,9.936936,-0.288767,-0.064645,-0.109407,0.671387,1.190186,0.488281
6.430778,-0.136516,0.121547,10.051897,-0.086388,-0.123323,0.005553,-1.647949,-1.647949,0.396729
6.440869,-0.043110,0.010179,10.035731,0.007018,-0.234692,-0.010613,-1.129150,-1.251221,0.274658
6.450959,-0.059277,0.096400,10.038724,-0.009148,-0.148471,-0.007619,0.335693,-0.152588,0.030518
6.461051,-0.029938,0.094005,10.065070,0.020191,-0.150866,0.018726,-0.030518,-0.396729,0.030518
6.471140,-0.007784,0.053888,10.046508,0.042345,-0.190983,0.000165,0.122070,-0.152588,0.030518
6.481230,0.001796,0.069456,10.047706,0.051925,-0.175415,0.001362,0.000000,-0.122070,0.030518
6.491322,0.009580,0.072449,10.046508,0.059709,-0.172421,0.000165,0.000000,-0.061035,0.030518
6.501434,0.014370,0.071851,10.041119,0.064499,-0.173020,-0.005224,0.061035,0.000000,0.030518
6.511524,0.020358,0.067659,10.043514,0.070486,-0.177211,-0.002829,0.091553,0.000000,-0.030518
6.521615,0.020956,0.064666,10.049502,0.071085,-0.180205,0.003158,0.152588,0.061035,-0.030518
6.531703,0.019160,0.068857,10.048304,0.069289,-0.176014,0.001961,0.183105,0.091553,-0.030518
6.541793,0.021555,0.076641,10.036329,0.071684,-0.168230,-0.010014,0.213623,0.152588,-0.030518
6.551884,0.028141,0.075443,10.029743,0.078270,-0.169427,-0.016600,0.244141,0.122070,-0.061035
6.561975,0.026345,0.070054,10.033934,0.076474,-0.174816,-0.012409,0.274658,0.152588,-0.030518
6.572065,0.021555,0.068258,10.036928,0.071684,-0.176612,-0.009415,0.335693,0.213623,0.000000
6.582154,0.017963,0.068857,10.039323,0.068091,-0.176014,-0.007020,0.335693,0.213623,-0.030518
6.592245,0.015568,0.060474,10.035731,0.065696,-0.184396,-0.010613,0.244141,0.152588,-0.030518
6.602359,0.016765,0.059277,10.042317,0.066894,-0.185594,-0.004027,0.213623,0.091553,-0.030518
6.612450,0.013173,0.066462,10.051298,0.063301,-0.178409,0.004955,0.152588,0.061035,-0.030518
6.622537,0.010778,0.070653,10.051298,0.060906,-0.174217,0.004955,0.122070,0.061035,0.000000
6.632629,0.011975,0.072449,10.050101,0.062104,-0.172421,0.003757,0.061035,0.061035,0.000000
6.642721,0.022154,0.077239,10.046508,0.072282,-0.167631,0.000165,0.030518,0.061035,0.030518
6.652812,0.025148,0.082029,10.044113,0.075276,-0.162841,-0.002230,0.061035,0.061035,0.030518
6.662903,0.020358,0.076042,10.047706,0.070486,-0.168829,0.001362,-0.030518,0.091553,0.030518
6.672995,0.016166,0.073048,10.048903,0.066295,-0.171822,0.002560,0.000000,0.091553,0.030518
6.683085,0.023950,0.073048,10.037527,0.074079,-0.171822,-0.008817,0.000000,0.061035,0.030518
6.693176,0.026345,0.073647,10.037527,0.076474,-0.171224,-0.008817,0.000000,0.061035,0.030518
6.703290,0.018561,0.076042,10.035132,0.068690,-0.168829,-0.011212,0.000000,0.061035,0.000000
6.713381,0.016765,0.073048,10.039323,0.066894,-0.171822,-0.007020,0.000000,0.061035,0.030518
6.723469,0.017364,0.073647,10.036928,0.067492,-0.171224,-0.009415,-0.030518,0.061035,0.030518
6.733561,0.018561,0.075443,10.034533,0.068690,-0.169427,-0.011810,-0.030518,0.061035,-0.030518
6.743653,0.025148,0.078437,10.035731,0.075276,-0.166434,-0.010613,-0.030518,0.061035,-0.030518
6.753743,0.020956,0.079634,10.036928,0.071085,-0.165236,-0.009415,-0.091553,0.061035,0.000000
6.763834,0.022154,0.082628,10.042317,0.072282,-0.162242,-0.004027,-0.061035,0.061035,0.000000
6.773925,0.019160,0.076042,10.041119,0.069289,-0.168829,-0.005224,-0.030518,0.030518,-0.030518
6.784015,0.020956,0.076042,10.039922,0.071085,-0.168829,-0.006422,-0.030518,0.030518,0.000000
6.794106,0.024549,0.079036,10.037527,0.074677,-0.165835,-0.008817,-0.030518,0.061035,0.030518
6.804219,0.029339,0.080233,10.034533,0.079467,-0.164637,-0.011810,-0.061035,0.091553,0.030518
6.814318,0.025148,0.084424,10.040521,0.075276,-0.160446,-0.005823,-0.061035,0.061035,0.030518
6.824409,0.025746,0.071252,10.046508,0.075875,-0.173619,0.000165,0.000000,0.061035,0.030518
6.834499,0.022753,0.068857,10.044712,0.072881,-0.176014,-0.001632,0.000000,0.030518,0.030518
6.844601,0.025148,0.070653,10.045909,0.075276,-0.174217,-0.000434,0.061035,0.061035,0.030518
6.854704,0.027543,0.071252,10.038126,0.077671,-0.173619,-0.008218,0.030518,0.030518,0.030518
6.864793,0.026345,0.077838,10.042317,0.076474,-0.167032,-0.004027,0.030518,0.061035,0.030518
6.874894,0.032932,0.082029,10.044712,0.083060,-0.162841,-0.001632,0.030518,0.091553,0.030518
6.884999,0.027543,0.079036,10.047107,0.077671,-0.165835,0.000763,0.000000,0.091553,0.030518
6.895087,0.034728,0.079036,10.047706,0.084856,-0.165835,0.001362,0.000000,0.061035,0.030518
6.905215,0.031734,0.084424,10.046508,0.081863,-0.160446,0.000165,0.000000,0.061035,0.030518
6.915317,0.023950,0.088616,10.054292,0.074079,-0.156255,0.007948,0.030518,0.061035,0.000000
6.925407,0.023950,0.091011,10.052496,0.074079,-0.153860,0.006152,0.061035,0.030518,0.030518
6.935508,0.025148,0.086221,10.048304,0.075276,-0.158650,0.001961,0.030518,0.061035,0.030518
6.945611,0.025148,0.085622,10.041718,0.075276,-0.159249,-0.004625,0.061035,0.061035,0.030518
6.955700,0.023351,0.082029,10.042916,0.073480,-0.162841,-0.003428,0.030518,0.061035,0.030518
6.965802,0.020358,0.080832,10.051897,0.070486,-0.164039,0.005553,-0.030518,0.061035,0.030518
6.975903,0.020956,0.077838,10.054292,0.071085,-0.167032,0.007948,-0.061035,0.091553,0.030518
6.985991,0.023351,0.076042,10.052496,0.073480,-0.168829,0.006152,-0.030518,0.061035,0.030518
6.996093,0.019759,0.078437,10.056088,0.069887,-0.166434,0.009745,-0.061035,0.030518,0.030518
7.006192,0.017963,0.077239,10.053094,0.068091,-0.167631,0.006751,-0.030518,0.061035,0.061035
7.016283,0.023351,0.074246,10.054891,0.073480,-0.170625,0.008547,-0.061035,0.091553,0.030518
7.026386,0.020358,0.071252,10.055490,0.070486,-0.173619,0.009146,-0.061035,0.091553,0.030518
7.036488,0.026944,0.073647,10.050699,0.077072,-0.171224,0.004356,-0.030518,0.091553,0.030518
7.046579,0.030536,0.076042,10.048903,0.080665,-0.168829,0.002560,0.000000,0.061035,0.030518
7.056681,0.030536,0.073647,10.050699,0.080665,-0.171224,0.004356,-0.030518,0.061035,0.030518
7.066785,0.028740,0.071851,10.059082,0.078869,-0.173020,0.012739,-0.030518,0.061035,0.030518
7.076873,0.025148,0.065264,10.057286,0.075276,-0.179606,0.010942,-0.091553,0.030518,0.030518
7.086977,0.029339,0.062271,10.051298,0.079467,-0.182600,0.004955,-0.122070,0.030518,0.030518
7.097081,0.026345,0.064666,10.051897,0.076474,-0.180205,0.005553,-0.122070,0.030518,0.030518
7.107199,0.032333,0.067659,10.051897,0.082461,-0.177211,0.005553,-0.122070,0.061035,0.030518
7.117303,0.026944,0.074246,10.055490,0.077072,-0.170625,0.009146,-0.122070,0.061035,0.030518
7.127406,0.017963,0.074246,10.047706,0.068091,-0.170625,0.001362,-0.061035,0.061035,0.000000
7.137496,0.016166,0.071252,10.048304,0.066295,-0.173619,0.001961,-0.061035,0.030518,0.000000
7.147601,0.023950,0.066462,10.042317,0.074079,-0.178409,-0.004027,-0.061035,0.061035,0.030518
7.157704,0.023950,0.064666,10.045311,0.074079,-0.180205,-0.001033,-0.091553,0.061035,0.000000
7.167794,0.025148,0.076641,10.046508,0.075276,-0.168230,0.000165,-0.030518,0.030518,0.030518
7.177898,0.029339,0.076042,10.045311,0.079467,-0.168829,-0.001033,-0.061035,0.000000,0.030518
7.188001,0.027543,0.071252,10.047107,0.077671,-0.173619,0.000763,-0.061035,0.000000,0.030518
7.198092,0.026345,0.074844,10.047107,0.076474,-0.170026,0.000763,-0.061035,0.000000,-0.030518
7.208220,0.024549,0.075443,10.050699,0.074677,-0.169427,0.004356,-0.091553,-0.030518,0.000000
7.218323,0.026944,0.072449,10.061477,0.077072,-0.172421,0.015134,-0.030518,0.000000,-0.030518
7.228425,0.028141,0.068258,10.055490,0.078270,-0.176612,0.009146,-0.030518,0.030518,-0.030518
7.238516,0.029938,0.064666,10.049502,0.080066,-0.180205,0.003158,-0.030518,0.030518,0.030518
7.248620,0.031734,0.074246,10.045311,0.081863,-0.170625,-0.001033,-0.030518,0.030518,0.030518
7.258711,0.027543,0.079634,10.050101,0.077671,-0.165236,0.003757,-0.030518,0.030518,0.030518
7.268815,0.025746,0.079036,10.055490,0.075875,-0.165835,0.009146,-0.030518,0.061035,0.030518
7.278919,0.027543,0.080832,10.049502,0.077671,-0.164039,0.003158,-0.030518,0.061035,0.030518
7.289010,0.027543,0.077838,10.042916,0.077671,-0.167032,-0.003428,-0.061035,0.061035,0.030518
7.299104,0.025746,0.077239,10.040521,0.075875,-0.167631,-0.005823,-0.030518,0.030518,0.030518
7.309232,0.021555,0.079036,10.054891,0.071684,-0.165835,0.008547,0.000000,0.030518,0.000000
7.319324,0.022753,0.083826,10.055490,0.072881,-0.161045,0.009146,0.000000,0.030518,-0.030518
7.329409,0.022154,0.086819,10.055490,0.072282,-0.158051,0.009146,0.030518,0.030518,0.000000
7.339503,0.023351,0.079036,10.054292,0.073480,-0.165835,0.007948,0.030518,0.030518,0.000000
7.349593,0.022753,0.083227,10.053094,0.072881,-0.161644,0.006751,0.030518,0.030518,0.030518
7.359685,0.017963,0.083227,10.056088,0.068091,-0.161644,0.009745,0.030518,0.061035,0.030518
7.369776,0.022154,0.084424,10.060878,0.072282,-0.160446,0.014535,0.030518,0.061035,0.030518
7.379867,0.031135,0.076042,10.053094,0.081264,-0.168829,0.006751,0.000000,0.030518,0.000000
7.389958,0.032333,0.066462,10.054292,0.082461,-0.178409,0.007948,0.030518,0.061035,0.000000
7.400050,0.029339,0.072449,10.053693,0.079467,-0.172421,0.007350,0.000000,0.091553,0.000000
7.410164,0.035327,0.068258,10.056088,0.085455,-0.176612,0.009745,0.000000,0.091553,0.030518
7.420255,0.033530,0.077239,10.062675,0.083659,-0.167631,0.016331,0.000000,0.030518,0.000000
7.430356,0.038919,0.076641,10.048304,0.089048,-0.168230,0.001961,-0.030518,0.061035,0.030518
7.440448,0.032932,0.071252,10.051298,0.083060,-0.173619,0.004955,-0.061035,0.061035,0.030518
7.450539,0.026944,0.076042,10.047107,0.077072,-0.168829,0.000763,-0.061035,0.061035,-0.061035
7.460630,0.018561,0.073048,10.047107,0.068690,-0.171822,0.000763,-0.061035,0.030518,-0.030518
7.470720,0.021555,0.071851,10.048304,0.071684,-0.173020,0.001961,-0.030518,0.030518,0.000000
7.480810,0.025148,0.067061,10.045909,0.075276,-0.177810,-0.000434,-0.030518,0.030518,-0.030518
7.490901,0.028141,0.065264,10.040521,0.078270,-0.179606,-0.005823,-0.061035,0.030518,-0.030518
7.500992,0.020956,0.065264,10.038126,0.071085,-0.179606,-0.008218,-0.030518,0.030518,0.030518
7.511107,0.020956,0.065863,10.045909,0.071085,-0.179008,-0.000434,0.000000,0.061035,0.000000
7.521199,0.019759,0.066462,10.050101,0.069887,-0.178409,0.003757,0.030518,0.061035,0.030518
7.531290,0.020956,0.070054,10.054292,0.071085,-0.174816,0.007948,0.030518,0.061035,0.030518
7.541380,0.018561,0.072449,10.047706,0.068690,-0.172421,0.001362,0.030518,0.030518,0.030518
7.551471,0.018561,0.067659,10.044712,0.068690,-0.177211,-0.001632,0.000000,0.091553,0.000000
7.561561,0.017364,0.069456,10.050101,0.067492,-0.175415,0.003757,0.030518,0.061035,0.030518
7.571652,0.019759,0.071851,10.049502,0.069887,-0.173020,0.003158,0.000000,0.061035,0.030518
7.581742,0.020358,0.071252,10.047107,0.070486,-0.173619,0.000763,0.000000,0.061035,0.030518
7.591832,0.021555,0.063468,10.039323,0.071684,-0.181403,-0.007020,0.000000,0.091553,0.000000
7.601923,0.025746,0.066462,10.033336,0.075875,-0.178409,-0.013008,0.000000,0.091553,0.030518
7.612038,0.017364,0.034728,10.035132,0.067492,-0.210143,-0.011212,0.030518,0.030518,0.000000
7.622128,0.244891,-0.311951,10.040521,0.295019,-0.556822,-0.005823,0.030518,0.000000,-0.732422
7.632215,0.628693,-0.743654,9.941127,0.678821,-0.988524,-0.105216,1.037598,0.000000,-11.627197
7.642306,0.690963,-1.239423,10.036928,0.741092,-1.484293,-0.009415,0.183105,-0.518799,-19.531250
7.652396,0.407153,-1.357377,10.172247,0.457282,-1.602248,0.125903,-0.610352,-0.762939,-26.733398
7.662487,-0.172441,-1.022673,10.071057,-0.122313,-1.267544,0.024714,0.488281,-0.549316,-32.714844
7.672577,-0.368833,-0.587977,9.916578,-0.318705,-0.832848,-0.129765,1.800537,0.091553,-32.745361
7.682668,-0.224533,0.327519,10.226733,-0.174405,0.082648,0.180390,-0.457764,-0.122070,-27.740479
7.692758,-0.144300,0.629291,10.099199,-0.094171,0.384421,0.052855,-0.366211,-0.152588,-24.536133
7.702848,-0.265847,1.830394,9.939331,-0.215719,1.585523,-0.107012,0.122070,0.213623,-13.824463
7.712960,-0.089214,1.496288,10.000404,-0.039086,1.251418,-0.045939,0.030518,0.183105,-9.674072
7.723051,0.028141,1.457968,9.996213,0.078270,1.213098,-0.050131,0.061035,0.213623,-5.920410
7.733142,0.114961,0.759221,10.018965,0.165089,0.514351,-0.027378,0.366211,-0.030518,-5.493164
7.743233,0.173040,0.505349,10.008787,0.223169,0.260479,-0.037557,0.396729,-0.152588,-8.514404
7.753323,0.067061,0.300575,10.021959,0.117189,0.055704,-0.024384,0.000000,-0.732422,-18.005371
7.763414,-0.071252,0.207169,10.029743,-0.021123,-0.037701,-0.016600,-0.335693,-0.946045,-21.667480
7.773505,-0.204774,0.147892,10.035731,-0.154646,-0.096978,-0.010613,-0.854492,-1.281738,-27.618408
7.783595,-0.134720,0.114362,10.051897,-0.084591,-0.130508,0.005553,-1.068115,-1.586914,-31.738281
7.793686,-0.066462,0.063468,10.041718,-0.016333,-0.181403,-0.004625,-1.159668,-2.044678,-38.238525
7.803777,0.067659,0.135917,10.006990,0.117788,-0.108953,-0.039353,-2.105713,-3.204346,-59.570312
7.813894,0.129930,0.217947,10.063273,0.180058,-0.026924,0.016930,-2.624512,-3.875732,-74.157715
7.823985,0.301174,0.541873,9.932745,0.351302,0.297003,-0.113599,-3.601074,-5.798340,-108.428955
7.834076,0.307161,1.047222,10.075248,0.357290,0.802352,0.028905,-4.516602,-7.202148,-125.305176
7.844182,0.450862,0.935255,10.004595,0.500991,0.690385,-0.041748,-4.577637,-9.033203,-143.676758
7.854273,0.451461,0.792751,10.017768,0.501590,0.547881,-0.028576,-3.662109,-8.911133,-147.460938
7.864361,0.645458,0.548459,10.025552,0.695586,0.303589,-0.020792,-1.434326,-8.666992,-151.123047
7.874462,1.337618,0.427511,10.081236,1.387747,0.182640,0.034892,-1.373291,-9.033203,-155.120850
7.884552,1.384920,0.120948,10.071656,1.435049,-0.123922,0.025312,-1.586914,-9.368896,-158.264160
7.894643,1.054407,-0.041314,10.188413,1.104536,-0.286185,0.142070,-0.640869,-8.483887,-154.724121
7.904743,0.691562,-0.194595,10.171049,0.741690,-0.439466,0.124706,-0.793457,-7.690430,-149.902344
7.914856,0.636476,-0.175435,10.102192,0.686605,-0.420306,0.055849,-0.213623,-6.896973,-139.770508
7.924943,0.642464,-0.150886,10.088421,0.692592,-0.395757,0.042077,-0.488281,-6.561279,-137.359619
7.935045,0.687371,-0.149689,10.074051,0.737499,-0.394559,0.027707,0.091553,-6.774902,-137.115479
7.945147,0.602946,-0.011975,10.011182,0.653075,-0.256846,-0.035162,-0.274658,-7.019043,-138.580322
7.955234,0.409548,-0.210163,10.073452,0.459677,-0.455034,0.027109,-2.258301,-7.415771,-141.967773
7.965335,0.438887,-0.241897,10.024354,0.489016,-0.486768,-0.021989,-1.159668,-8.270264,-146.881104
7.975435,0.520917,-0.465233,10.077643,0.571045,-0.710103,0.031300,-1.403809,-8.331299,-149.932861
7.985525,0.393382,-0.096400,10.121951,0.443510,-0.341270,0.075608,-2.838135,-5.676270,-157.653809
7.995626,0.334704,-0.128134,10.090217,0.384832,-0.373004,0.043874,-3.234863,-5.249023,-160.278320
8.005726,0.083826,-0.133522,10.102192,0.133954,-0.378393,0.055849,-4.364014,-3.784180,-159.759521
8.015836,-0.129331,-0.070653,10.083631,-0.079203,-0.315524,0.037287,-4.364014,-3.845215,-158.691406
8.025937,-0.125140,0.132325,10.090217,-0.075011,-0.112546,0.043874,-3.051758,-5.279541,-157.623291
8.036040,-0.074246,-0.114961,9.963880,-0.024117,-0.359831,-0.082464,-3.082275,-4.852295,-154.144287
8.046131,0.136516,0.142504,10.070458,0.186645,-0.102367,0.024115,-2.838135,-4.638672,-151.367188
8.056232,0.370031,-0.002395,10.133328,0.420159,-0.247266,0.086984,-2.532959,-4.882812,-146.820068
8.066336,0.378413,0.006586,10.060280,0.428542,-0.238284,0.013936,-2.868652,-4.394531,-145.874023
8.076423,0.589774,0.000599,10.000404,0.639902,-0.244272,-0.045939,-3.021240,-4.180908,-144.683838
8.086527,0.246088,-0.159269,10.079440,0.296217,-0.404139,0.033096,-3.173828,-3.845215,-144.409180
8.096628,0.172441,-0.141905,10.044113,0.222570,-0.386775,-0.002230,-3.082275,-3.967285,-139.862061
8.106718,0.021555,-0.185015,10.103989,0.071684,-0.429886,0.057645,-3.234863,-4.119873,-137.115479
8.116843,-0.126337,-0.174836,10.061477,-0.076209,-0.419707,0.015134,-3.173828,-4.455566,-133.880615
8.126943,-0.125739,-0.030536,10.000404,-0.075610,-0.275407,-0.045939,-2.563477,-3.753662,-126.831055
8.137033,-0.099393,0.064067,10.011182,-0.049265,-0.180804,-0.035162,-2.227783,-4.425049,-123.199463
8.147136,0.024549,0.074246,10.066267,0.074677,-0.170625,0.019924,-1.922607,-4.180908,-116.516113
8.157239,0.049098,-0.001198,10.057286,0.099226,-0.246068,0.010942,-1.983643,-3.936768,-113.006592
8.167330,-0.005389,-0.029938,10.047706,0.044740,-0.274808,0.001362,-1.464844,-3.936768,-106.140137
8.177433,0.037123,-0.038320,10.042916,0.087251,-0.283191,-0.003428,-1.647949,-3.814697,-103.485107
8.187536,-0.003593,0.066462,10.089619,0.046536,-0.178409,0.043275,-1.434326,-3.723145,-101.409912
8.197627,-0.036524,0.199385,10.064471,0.013604,-0.045485,0.018127,-0.610352,-4.241943,-95.672607
8.207730,0.101190,0.253872,10.030941,0.151318,0.009002,-0.015403,-0.671387,-4.089355,-93.475342
8.217856,-0.050295,0.262853,10.054292,-0.000167,0.017983,0.007948,-0.640869,-3.936768,-89.050293
8.227946,-0.128732,0.264051,10.009385,-0.078604,0.019180,-0.036958,-0.854492,-3.631592,-85.815430
8.238049,-0.047302,0.393981,10.050699,0.002827,0.149110,0.004356,-0.640869,-3.112793,-80.993652
8.248152,0.019160,0.446072,10.051897,0.069289,0.201202,0.005553,-0.671387,-2.624512,-79.071045
8.258242,0.132924,0.491578,10.065668,0.183052,0.246707,0.019325,-0.579834,-2.532959,-77.026367
8.268345,0.017364,0.228126,10.021959,0.067492,-0.016745,-0.024384,-1.190186,-2.136230,-74.249268
8.278446,-0.059277,0.153281,10.024354,-0.009148,-0.091589,-0.021989,-1.190186,-2.075195,-71.441650
8.288920,0.237107,0.460443,10.040521,0.287235,0.215572,-0.005823,-0.671387,-2.136230,-65.643311
8.299023,0.048499,0.429307,10.049502,0.098628,0.184437,0.003158,-0.976562,-1.861572,-64.880371
8.309124,0.138312,0.714315,9.959090,0.188441,0.469444,-0.087254,-1.190186,-1.647949,-64.636230
8.319305,0.205373,0.655637,10.002799,0.255501,0.410766,-0.043544,-1.312256,-1.892090,-65.582275
8.329393,0.217947,0.665217,9.984238,0.268075,0.420346,-0.062106,-1.129150,-1.800537,-65.338135
8.339479,0.086221,0.379012,10.071057,0.136349,0.134141,0.024714,-1.098633,-1.892090,-64.605713
8.349565,0.110171,0.256267,10.038724,0.160299,0.011397,-0.007619,-1.312256,-1.922607,-64.636230
8.359650,0.014370,0.412542,10.035132,0.064499,0.167672,-0.011212,-1.007080,-1.831055,-63.140869
8.369735,-0.054487,0.285007,10.042916,-0.004358,0.040137,-0.003428,-1.007080,-2.014160,-61.676025
8.379821,0.217348,0.180824,10.026151,0.267477,-0.064047,-0.020193,-0.671387,-2.014160,-58.959961
8.389906,0.038320,0.092807,10.020762,0.088449,-0.152064,-0.025582,-0.885010,-1.831055,-57.830811
8.399993,-0.007185,0.243693,10.054292,0.042943,-0.001177,0.007948,-0.457764,-2.624512,-55.023193
8.410077,0.034129,0.322130,9.983639,0.084258,0.077260,-0.062705,-0.488281,-2.716064,-53.466797
8.420220,-0.044308,0.316741,9.995614,0.005821,0.071871,-0.050730,-0.091553,-2.746582,-52.032471
8.430318,-0.127535,0.171244,10.068063,-0.077406,-0.073627,0.021720,0.091553,-2.716064,-49.377441
8.440414,0.023950,0.364642,10.030342,0.074079,0.119771,-0.016002,-0.274658,-2.685547,-47.882080
8.450511,0.139510,0.583786,10.022558,0.189638,0.338915,-0.023786,0.762939,-1.983643,-43.212891
8.460608,0.147892,0.504750,10.042916,0.198021,0.259880,-0.003428,0.915527,-1.617432,-41.687012
8.470705,0.095202,0.719105,9.982441,0.145331,0.474234,-0.063902,0.854492,-1.037598,-39.062500
8.480801,0.040715,0.738864,10.039922,0.090844,0.493993,-0.006422,0.274658,-0.640869,-37.231445
8.490898,0.244292,0.658630,9.998608,0.294420,0.413760,-0.047736,-0.793457,-0.457764,-35.888672
8.500997,0.716111,0.678389,10.035731,0.766239,0.433519,-0.010613,-1.159668,-0.671387,-38.543701
8.511094,0.739462,0.975372,9.957294,0.789591,0.730501,-0.089050,-1.922607,-1.007080,-41.381836
8.521217,0.345482,1.029260,10.003997,0.395610,0.784389,-0.042347,-2.410889,-1.495361,-49.591064
8.531313,0.235909,1.133443,9.987830,0.286038,0.888572,-0.058513,-1.159668,-1.617432,-52.398682
8.541410,-0.116158,0.695154,10.043514,-0.066030,0.450284,-0.002829,-0.427246,-2.014160,-53.375244
8.551507,-0.059875,0.553848,10.037527,-0.009747,0.308978,-0.008817,-0.701904,-2.197266,-52.368164
8.561603,0.052690,0.613125,10.020163,0.102819,0.368254,-0.026181,-0.183105,-2.197266,-50.720215
8.571699,-0.114961,0.617915,9.983639,-0.064832,0.373044,-0.062705,-1.068115,-1.983643,-49.865723
8.581796,-0.167053,0.704136,10.008787,-0.116924,0.459265,-0.037557,-1.190186,-2.166748,-49.407959
8.591892,-0.087418,0.803529,10.014774,-0.037290,0.558659,-0.031569,-2.197266,-2.471924,-47.302246
8.601989,-0.056882,0.790356,10.040521,-0.006753,0.545486,-0.005823,-2.838135,-2.777100,-45.806885
8.612085,-0.131127,0.706531,10.042916,-0.080999,0.461660,-0.003428,-2.777100,-2.563477,-40.252686
8.622208,-0.187410,0.587977,10.048304,-0.137282,0.343107,0.001961,-2.685547,-2.624512,-36.865234
8.632302,-0.132924,0.229323,9.992620,-0.082795,-0.015547,-0.053723,-2.777100,-2.410889,-26.367188
8.642400,-0.101190,0.344883,10.044712,-0.051061,0.100012,-0.001632,-0.610352,-1.647949,-18.463135
8.652496,-0.156275,0.592767,10.048304,-0.106147,0.347897,0.001961,1.556396,-0.885010,-8.911133
8.662595,-0.390388,0.668210,9.977651,-0.340260,0.423340,-0.068692,1.312256,-0.030518,6.774902
8.672692,-0.435894,0.902324,9.998608,-0.385765,0.657453,-0.047736,1.342773,0.488281,12.756348
8.682789,-0.164658,0.955014,10.078242,-0.114529,0.710143,0.031899,2.014160,1.068115,23.498535
8.692886,-0.071851,0.837059,10.039323,-0.021722,0.592189,-0.007020,1.190186,1.098633,26.306152
8.702983,0.095801,0.665217,10.118958,0.145929,0.420346,0.072614,-0.427246,0.732422,26.336670
8.713079,0.464634,0.731678,10.005793,0.514762,0.486808,-0.040551,-1.647949,0.366211,24.688721
8.723206,0.510738,0.711321,10.045311,0.560866,0.466450,-0.001033,-2.563477,0.335693,19.958496
8.733302,0.582589,0.747246,10.081835,0.632717,0.502376,0.035491,-2.563477,0.518799,17.425537
8.743399,0.544867,0.806523,9.949510,0.594995,0.561652,-0.096834,-1.922607,0.640869,14.251709
8.753496,0.560435,0.872386,10.007589,0.610563,0.627515,-0.038754,-3.570557,0.305176,7.385254
8.763592,0.642464,0.834664,9.938134,0.692592,0.589794,-0.108210,-4.089355,0.274658,2.777100
8.773690,0.580193,1.016686,9.980046,0.630322,0.771815,-0.066297,-1.190186,0.213623,-5.889893
8.783786,0.292791,0.952020,10.091415,0.342920,0.707150,0.045071,0.030518,0.305176,-7.965088
8.793882,-0.026944,1.002914,10.091415,0.023185,0.758044,0.045071,1.647949,-0.457764,-8.605957
8.803979,-0.098196,0.914897,9.908795,-0.048067,0.670027,-0.137549,0.122070,0.091553,-9.185791
8.814076,-0.070653,0.889750,9.924362,-0.020525,0.644879,-0.121981,-1.342773,0.030518,-11.688232
8.824198,0.323328,1.256786,9.899214,0.373456,1.011916,-0.147129,-1.037598,0.427246,-16.479492
8.834295,0.270038,1.160986,9.914782,0.320167,0.916115,-0.131561,-1.098633,-0.305176,-17.822266
8.844392,0.322729,0.584385,9.912986,0.372857,0.339514,-0.133358,-0.671387,-0.030518,-20.782471
8.854487,0.448467,0.665217,9.914183,0.498596,0.420346,-0.132160,0.793457,0.640869,-20.629883
8.864584,0.342488,0.622106,10.089619,0.392616,0.377236,0.043275,1.190186,-0.488281,-20.904541
8.874681,0.060474,0.468226,10.010583,0.110603,0.223356,-0.035761,0.732422,-0.488281,-21.575928
8.884778,0.110171,0.610730,9.905801,0.160299,0.365859,-0.140543,0.640869,-0.640869,-22.216797
8.894874,0.099992,0.489183,9.981244,0.150121,0.244312,-0.065100,1.586914,-0.488281,-22.644043
8.905011,0.053888,0.485590,9.996213,0.104016,0.240720,-0.050131,2.258301,-0.640869,-22.338867
8.915107,0.105980,0.386197,10.021360,0.156108,0.141326,-0.024983,1.831055,-0.976562,-21.881104
8.925230,0.143102,0.428110,10.083631,0.193231,0.183239,0.037287,0.946045,-1.251221,-21.270752
8.935327,0.220941,0.305964,10.023755,0.271069,0.061093,-0.022588,0.549316,-1.770020,-24.749756
8.945423,0.350870,0.547262,9.901609,0.400999,0.302391,-0.144734,1.464844,-1.281738,-26.580811
8.955519,0.200583,0.487985,10.007589,0.250711,0.243115,-0.038754,1.190186,-0.915527,-25.695801
8.965615,-0.206570,0.453257,10.006990,-0.156442,0.208387,-0.039353,2.655029,-0.457764,-23.040771
8.975727,-0.567021,0.135917,10.199191,-0.516892,-0.108953,0.152847,0.610352,-0.091553,-19.866943
8.985826,-0.168250,0.340692,10.174642,-0.118122,0.095821,0.128298,-2.227783,-0.244141,-15.869141
8.995923,-0.228724,0.399968,10.116563,-0.178596,0.155098,0.070219,-3.051758,-0.335693,-13.397217
9.006021,-0.235909,0.480800,10.061477,-0.185781,0.235930,0.015134,-4.516602,0.091553,-13.061523
9.016118,0.170046,0.290396,10.051298,0.220175,0.045526,0.004955,-5.096436,0.366211,-14.617920
9.026241,0.141306,0.487386,9.989028,0.191435,0.242516,-0.057316,-2.410889,0.091553,-12.725830
9.036337,0.134121,0.135319,10.030342,0.184250,-0.109552,-0.016002,-2.502441,-0.152588,-10.772705
9.046434,-0.140109,-0.255070,10.431508,-0.089980,-0.499940,0.385164,-4.425049,-0.152588,-8.422852
9.056530,0.301174,0.147294,9.989626,0.351302,-0.097577,-0.056717,-0.213623,-0.885010,-3.021240
9.066627,0.306563,0.176034,9.954899,0.356691,-0.068837,-0.091445,0.030518,-0.518799,-1.403809
9.076723,0.449665,0.391586,9.897418,0.499793,0.146715,-0.148925,-0.701904,-0.640869,1.831055
9.086821,0.296384,0.244292,10.188413,0.346512,-0.000579,0.142070,-0.244141,-0.030518,2.960205
9.096918,0.213755,0.322130,10.089619,0.263884,0.077260,0.043275,0.091553,-0.396729,3.875732
9.107015,-0.087418,0.553848,10.132729,-0.037290,0.308978,0.086385,-0.732422,-0.152588,4.730225
9.117111,0.114961,0.646655,10.037527,0.165089,0.401785,-0.008817,0.091553,-0.274658,5.950928
9.127233,0.053289,0.848436,9.809401,0.103418,0.603565,-0.236942,0.762939,-0.274658,6.134033
9.137330,0.149689,0.601749,10.134525,0.199817,0.356878,0.088182,-0.274658,0.244141,5.249023
9.147426,0.347278,0.735870,9.875264,0.397406,0.490999,-0.171079,2.655029,3.234863,4.699707
9.157524,-0.001198,0.570613,10.054891,0.048931,0.325743,0.008547,2.197266,3.082275,4.669189
9.167621,0.150886,0.198787,9.986034,0.201015,-0.046084,-0.060310,-0.549316,1.525879,1.342773
9.177718,0.291594,0.805924,9.963880,0.341722,0.561054,-0.082464,0.732422,1.464844,1.647949
9.187814,0.248483,0.955014,9.752520,0.298612,0.710143,-0.293824,-0.183105,1.098633,-0.488281
9.197911,0.367037,0.316143,10.033336,0.417165,0.071272,-0.013008,-2.929688,0.885010,-1.770020
9.208009,0.491578,0.752635,10.053094,0.541706,0.507764,0.006751,-0.305176,0.091553,-1.373291
9.218105,0.170645,0.310754,9.980046,0.220774,0.065883,-0.066297,0.366211,-0.030518,-0.335693
9.228225,0.291594,0.377814,10.093211,0.341722,0.132944,0.046868,0.000000,-0.183105,0.244141
9.238322,0.346080,0.343087,9.948312,0.396209,0.098216,-0.098031,-0.610352,-0.885010,1.922607
9.248419,0.400567,0.459844,9.983040,0.450696,0.214973,-0.063303,-0.396729,-0.549316,3.753662
9.258515,0.384401,0.423320,9.987231,0.434529,0.178449,-0.059112,0.061035,-1.770020,6.042480
9.268611,0.086221,0.518522,10.046508,0.136349,0.273651,0.000165,-0.640869,-2.532959,5.645752
9.278708,-0.031135,0.762215,9.964479,0.018993,0.517344,-0.081865,-0.366211,-2.227783,6.500244
9.288805,-0.073048,0.910107,10.039922,-0.022920,0.665237,-0.006422,1.983643,-1.190186,7.629395
9.298901,-0.048499,0.924478,10.065070,0.001629,0.679607,0.018726,2.380371,-0.885010,8.361816
9.308999,0.077239,0.784369,10.030342,0.127368,0.539498,-0.016002,1.403809,-0.549316,3.814697
9.319097,0.173040,0.821492,9.941127,0.223169,0.576621,-0.105216,2.349854,0.518799,1.617432
9.329219,0.347877,0.808918,9.736952,0.398005,0.564047,-0.309392,-3.387451,-0.061035,-3.570557
9.339315,0.170046,0.186213,10.135723,0.220175,-0.058658,0.089379,-3.692627,-0.274658,-5.706787
9.349413,0.261656,0.381407,10.193802,0.311784,0.136536,0.147458,0.885010,-0.457764,-5.554199
9.359510,0.328716,0.280217,10.141111,0.378845,0.035347,0.094768,1.342773,-1.983643,-2.685547
9.369606,0.527503,0.284409,9.966275,0.577632,0.039538,-0.080068,2.227783,-1.708984,-2.624512
9.379700,0.404160,0.079036,9.994417,0.454288,-0.165835,-0.051927,1.159668,-1.434326,-0.488281
9.389797,0.471819,0.018561,10.081835,0.521947,-0.226309,0.035491,-0.030518,-1.525879,0.335693
9.399895,0.316741,-0.159269,10.133926,0.366870,-0.404139,0.087583,-2.990723,-2.197266,2.838135
9.409992,0.617316,-0.102387,10.120155,0.667445,-0.347258,0.073812,-1.434326,-1.922607,3.967285
9.420088,0.750240,0.148491,10.070458,0.800368,-0.096379,0.024115,1.739502,-1.586914,3.265381
9.430210,0.460443,-0.055684,10.047107,0.510571,-0.300555,0.000763,2.319336,0.244141,2.258301
9.440307,0.328118,-0.177231,10.195598,0.378246,-0.422102,0.149255,2.319336,0.366211,0.793457
9.450404,0.131726,-0.080233,10.148895,0.181855,-0.325104,0.102552,0.183105,1.129150,-0.457764
9.460501,0.285606,-0.064067,10.118359,0.335735,-0.308937,0.072015,-1.312256,2.044678,-1.068115
9.470598,0.449665,0.548459,9.811796,0.499793,0.303589,-0.234547,-0.732422,2.777100,-4.272461
9.480694,0.177830,0.494572,9.886042,0.227959,0.249701,-0.160302,-1.159668,2.258301,-4.180908
9.490791,0.334105,0.903521,9.942924,0.384234,0.658651,-0.103420,-0.152588,0.854492,-1.739502
9.500887,-0.107177,0.411345,10.147099,-0.057049,0.166474,0.100755,-0.518799,1.251221,-1.190186
9.510984,0.378413,0.490979,9.775871,0.428542,0.246108,-0.270473,-0.152588,0.579834,0.305176
9.521080,0.713117,0.341889,10.127340,0.763246,0.097018,0.080997,0.061035,0.793457,1.892090
9.531201,0.817300,0.283211,10.093810,0.867429,0.038341,0.047466,-0.457764,1.800537,0.732422
9.541301,0.868793,0.561632,10.208172,0.918922,0.316762,0.161828,-0.854492,0.732422,-4.394531
9.551398,0.710123,0.358654,10.011182,0.760252,0.113784,-0.035162,-1.159668,0.305176,-5.310059
9.561494,0.567620,0.340692,9.932745,0.617748,0.095821,-0.113599,-1.098633,-0.701904,-5.401611
9.571592,-0.102387,0.559836,9.998009,-0.052259,0.314965,-0.048334,0.000000,-0.671387,-3.021240
9.581689,0.051493,0.704136,10.016570,0.101621,0.459265,-0.029773,1.556396,0.396729,-0.152588
9.591786,0.082628,1.164578,10.181827,0.132757,0.919708,0.135483,3.540039,-0.885010,-1.342773
9.601879,-0.001796,0.878373,9.899214,0.048332,0.633503,-0.147129,2.746582,-1.037598,-3.967285
9.611976,-0.098795,0.849633,10.050699,-0.048666,0.604763,0.004356,4.547119,-1.281738,-8.331299
9.622072,-0.384999,1.077160,9.920171,-0.334871,0.832289,-0.126173,4.119873,-1.586914,-10.955811
9.632195,-0.438887,1.007106,10.132130,-0.388759,0.762235,0.085787,1.831055,-1.831055,-16.601562
9.642292,-0.583187,1.114283,10.006990,-0.533059,0.869412,-0.039353,1.068115,-1.190186,-19.226074
9.652389,-0.295186,1.196312,10.123748,-0.245058,0.951442,0.077404,-1.007080,-0.335693,-19.653320
9.662486,0.005988,1.044827,9.838141,0.056116,0.799957,-0.208202,-2.624512,0.122070,-19.836426
9.672583,0.308958,1.276545,9.802216,0.359086,1.031675,-0.244127,-3.326416,0.457764,-18.127441
9.682680,0.527503,1.414858,9.820778,0.577632,1.169987,-0.225566,-1.129150,-0.427246,-15.991211
9.692778,0.419727,1.348396,10.130334,0.469856,1.103525,0.083990,-1.922607,-0.183105,-13.732910
9.702875,0.626298,1.087339,10.125544,0.676426,0.842468,0.079200,-2.777100,1.007080,-7.873535
9.713010,0.713117,0.964594,10.020762,0.763246,0.719724,-0.025582,-1.281738,-0.030518,-6.195068
9.723108,0.652044,0.883762,10.147099,0.702173,0.638892,0.100755,-1.220703,-0.061035,-0.030518
9.733230,0.505349,0.695753,9.862092,0.555478,0.450883,-0.184252,0.701904,0.244141,0.030518
9.743327,0.394579,0.477208,9.841734,0.444708,0.232337,-0.204610,0.427246,0.549316,0.000000
9.753424,0.192200,0.589175,9.993818,0.242329,0.344304,-0.052526,-1.159668,0.244141,-6.134033
9.763521,-0.022753,0.571212,10.008188,0.027376,0.326342,-0.038156,-2.563477,-0.488281,-10.070801
9.773619,-0.235909,0.643063,10.125544,-0.185781,0.398192,0.079200,-3.753662,0.671387,-20.904541
9.783716,-0.396376,0.676593,10.269844,-0.346247,0.431722,0.223500,-1.098633,-0.701904,-25.909424
9.793811,-0.370629,0.355660,9.999805,-0.320501,0.110790,-0.046538,-2.136230,-1.434326,-33.782959
9.803908,-0.573607,-0.067061,9.966275,-0.523479,-0.311931,-0.080068,1.068115,-1.770020,-35.583496
9.814004,-0.565225,-0.275427,10.044712,-0.515096,-0.520298,-0.001632,0.549316,-1.922607,-38.116455
9.824100,-0.714315,-0.118553,10.059681,-0.664186,-0.363424,0.013337,1.220703,-1.739502,-34.851074
9.834223,-0.879571,0.034728,9.948911,-0.829442,-0.210143,-0.097432,2.197266,-1.159668,-30.822754
9.844319,-0.243094,0.669408,10.192006,-0.192966,0.424537,0.145662,3.051758,-1.007080,-23.040771
9.854415,-0.319136,0.683778,10.126143,-0.269008,0.438908,0.079799,4.852295,-1.586914,-23.010254
9.864512,0.093406,0.177830,10.255474,0.143534,-0.067040,0.209130,0.183105,-1.098633,-22.430420
9.874608,0.543669,0.630489,10.009984,0.593798,0.385618,-0.036359,2.807617,-0.885010,-19.134521
9.884706,0.243094,0.234113,9.905801,0.293223,-0.010757,-0.140543,2.044678,-0.030518,-13.641357
9.894802,0.371827,0.111368,10.406959,0.421955,-0.133502,0.360615,-4.608154,2.441406,-8.666992
9.904898,0.835862,0.401765,9.815988,0.885990,0.156894,-0.230356,-3.784180,1.190186,-9.735107
9.914994,0.504750,0.193997,9.998009,0.554879,-0.050874,-0.048334,-5.035400,-0.610352,-17.395020
9.925091,0.156874,0.189207,9.871672,0.207002,-0.055664,-0.174672,-7.110596,-0.244141,-22.949219
9.935211,0.034129,0.243094,9.751322,0.084258,-0.001776,-0.295021,-2.197266,-1.098633,-17.791748
9.945308,-0.029339,0.059277,9.457932,0.020790,-0.185594,-0.588411,-4.638672,3.631592,-18.920898
9.955404,0.105381,0.492775,10.047107,0.155509,0.247905,0.000763,1.495361,0.000000,-21.728516
9.965501,-0.080832,0.194595,10.103390,-0.030703,-0.050275,0.057046,1.007080,-2.899170,-24.353027
9.975610,-0.418530,0.005389,10.249486,-0.368401,-0.239482,0.203143,0.152588,-0.854492,-24.963379
9.985709,-0.553250,0.301174,10.050699,-0.503121,0.056303,0.004356,2.227783,-1.525879,-22.735596
9.995808,-0.108375,0.074246,9.904005,-0.058246,-0.170625,-0.142339,1.892090,-2.258301,-20.080566
10.005905,-0.005389,0.338297,10.299183,0.044740,0.093426,0.252839,2.227783,-0.671387,-16.143799
10.016002,0.052690,-0.636476,10.470427,0.102819,-0.881347,0.424083,4.547119,0.457764,-9.735107
10.026248,0.055684,-1.062790,10.171049,0.105813,-1.307660,0.124706,1.861572,-1.373291,-12.603760
10.036439,0.477208,0.211959,9.647737,0.527336,-0.032911,-0.398606,2.288818,-1.037598,-9.216309
10.046530,0.456251,-0.205972,10.151290,0.506380,-0.450842,0.104947,-0.061035,-2.593994,-9.307861
10.056621,-0.505948,-0.074246,10.199789,-0.455819,-0.319116,0.153446,-1.922607,0.366211,-4.608154
10.066712,-0.170046,0.220342,10.053094,-0.119918,-0.024529,0.006751,0.030518,0.091553,-0.335693
10.076802,0.132325,0.038919,10.085427,0.182453,-0.205951,0.039084,0.061035,3.204346,4.791260
10.086893,0.003593,0.647853,9.901011,0.053721,0.402982,-0.145333,-0.274658,2.563477,-0.183105
10.097018,0.382604,1.406475,9.989028,0.432733,1.161605,-0.057316,2.532959,0.823975,3.936768
10.107109,-0.179626,0.373024,9.720786,-0.129498,0.128154,-0.325558,-0.457764,0.244141,0.701904
10.117199,-0.082628,0.795745,10.059082,-0.032500,0.550875,0.012739,-2.807617,-0.762939,-1.922607
10.127290,-0.335901,0.405357,10.061477,-0.285773,0.160487,0.015134,-3.967285,0.823975,0.000000
10.137448,-0.373024,0.700543,10.062076,-0.322896,0.455673,0.015732,-3.540039,1.220703,-0.549316
10.147546,-0.234113,0.492775,9.985435,-0.183985,0.247905,-0.060908,1.342773,-0.549316,0.061035
10.157643,-0.275427,0.681383,9.893826,-0.225299,0.436513,-0.152518,0.823975,-0.518799,-2.746582
10.167740,0.186213,0.726888,9.844728,0.236341,0.482018,-0.201616,2.716064,-0.671387,-3.662109
10.177837,0.096400,0.296384,10.194999,0.146528,0.051513,0.148656,1.770020,-0.640869,-2.899170
10.187934,0.198188,0.868195,9.971664,0.248316,0.623324,-0.074680,0.976562,0.610352,-5.462646
10.198031,0.096998,0.581990,9.798025,0.147127,0.337119,-0.248319,0.793457,0.915527,-4.058838
10.208129,-0.096998,0.822689,9.865684,-0.046870,0.577819,-0.180659,-0.518799,0.457764,-3.662109
10.218225,0.507145,0.435894,10.433903,0.557274,0.191023,0.387559,-0.823975,0.030518,-9.887695
10.228322,0.483794,0.892145,10.365645,0.533922,0.647274,0.319301,1.770020,1.953125,-11.138916
10.238443,-0.044907,0.623304,10.190808,0.005222,0.378433,0.144465,0.854492,0.061035,-15.838623
10.248538,0.041314,0.856219,10.248289,0.091443,0.611349,0.201945,3.692627,-0.061035,-11.962891
10.258632,0.134720,0.564626,9.797426,0.184848,0.319755,-0.248917,1.373291,-0.579834,-13.824463
10.268727,0.098196,0.495170,10.026151,0.148324,0.250300,-0.020193,2.746582,-0.213623,-14.099121
10.278825,0.429906,0.125140,10.116563,0.480035,-0.119731,0.070219,2.044678,-0.335693,-11.352539
10.288922,0.476609,0.659828,9.210048,0.526737,0.414957,-0.836296,0.579834,-0.457764,-13.000488
10.299019,-0.079036,0.663420,10.003997,-0.028907,0.418550,-0.042347,-2.319336,0.427246,-13.397217
10.309116,0.922083,0.411943,10.315349,0.972211,0.167073,0.269006,-2.624512,-1.251221,-14.282227
10.319213,0.772993,0.753234,9.742341,0.823121,0.508363,-0.304003,-2.532959,-0.549316,-11.749268
10.329310,0.621508,0.636476,9.420809,0.671636,0.391606,-0.625534,-3.112793,1.770020,-9.338379
10.339504,0.179626,0.558638,10.150692,0.229755,0.313768,0.104348,-3.784180,2.410889,-7.324219
10.349595,0.132924,1.180745,10.027348,0.183052,0.935874,-0.018995,-0.366211,0.885010,-4.974365
10.359684,0.055684,1.234633,9.950109,0.105813,0.989762,-0.096235,3.143311,-2.166748,3.326416
10.369775,-0.052690,0.764610,10.257270,-0.002562,0.519739,0.210926,2.502441,-1.464844,6.286621
10.379865,0.505349,1.284329,9.498647,0.555478,1.039459,-0.547696,3.479004,0.366211,8.636475
10.389956,0.764610,0.637075,10.057286,0.814738,0.392205,0.010942,0.091553,1.708984,8.453369
10.400048,-0.085023,0.756826,9.747729,-0.034895,0.511956,-0.298614,0.335693,0.885010,1.647949
10.410141,0.814905,0.498763,9.544752,0.865034,0.253892,-0.501592,-1.678467,-1.525879,-4.913330
10.420233,0.905317,0.296384,9.446556,0.955446,0.051513,-0.599788,-2.807617,-1.556396,-15.228271
10.430323,0.440684,-0.022154,10.024354,0.490812,-0.267024,-0.021989,-1.892090,-0.854492,-14.465332
10.440484,0.414937,-0.145497,10.174043,0.465066,-0.390368,0.127699,0.152588,-0.457764,-16.418457
10.450582,0.367037,0.287402,9.818981,0.417165,0.042532,-0.227362,1.556396,-1.586914,-22.583008
10.460679,-0.037722,0.534688,9.849518,0.012407,0.289818,-0.196826,3.326416,-0.335693,-19.592285
10.470776,-0.106578,-0.152084,10.042916,-0.056450,-0.396954,-0.003428,1.861572,-2.197266,-17.303467
10.480874,-0.104183,-0.165256,10.156679,-0.054055,-0.410127,0.110336,2.410889,-1.708984,-14.984131
10.490971,0.540676,0.449665,9.923763,0.590804,0.204794,-0.122580,0.274658,1.068115,-9.521484
10.501068,0.211959,-0.539478,10.433903,0.262088,-0.784349,0.387559,-3.326416,0.732422,-11.840820
10.511165,0.113165,0.134121,10.156080,0.163293,-0.110749,0.109737,-4.089355,0.518799,-11.505127
10.521262,0.278421,0.050295,10.030941,0.328550,-0.194575,-0.015403,-4.882812,1.434326,-2.990723
10.531359,0.631088,0.444875,9.713600,0.681216,0.200004,-0.332743,-1.007080,1.617432,2.532959
10.541481,0.692161,-0.133522,9.999207,0.742289,-0.378393,-0.047137,-0.091553,2.105713,8.850098
10.551579,0.851429,0.268242,9.983040,0.901558,0.023372,-0.063303,2.868652,0.915527,11.077881
10.561677,0.628094,-0.086819,9.892628,0.678222,-0.331690,-0.153715,-0.640869,2.410889,9.521484
10.571774,0.422122,0.467029,10.548864,0.472251,0.222158,0.502520,0.274658,1.281738,6.713867
10.581872,0.207169,0.173639,10.016570,0.257298,-0.071232,-0.029773,1.586914,-0.244141,8.666992
10.591969,0.355660,-0.935854,10.143506,0.405789,-1.180724,0.097163,-0.091553,-1.007080,5.371094
10.602066,0.387993,-0.064666,10.339299,0.438122,-0.309536,0.292956,2.349854,-1.098633,3.448486
10.612162,0.155676,-0.238903,9.950109,0.205805,-0.483774,-0.096235,0.305176,-1.739502,-8.056641
10.622260,-0.240699,-0.280816,9.747131,-0.190571,-0.525687,-0.299213,0.427246,-2.105713,-11.657715
10.632356,-0.131127,-0.826282,10.411749,-0.080999,-1.071152,0.365405,-0.976562,-2.044678,-15.838623
10.642478,-0.398172,-0.714315,10.159074,-0.348043,-0.959185,0.112731,-1.831055,-1.983643,-16.571045
10.652576,-0.251477,-0.376018,9.942325,-0.201349,-0.620889,-0.104019,-0.915527,-0.671387,-9.002686
10.662673,-0.209564,-0.709525,10.041119,-0.159436,-0.954395,-0.005224,-0.854492,-0.488281,-5.615234
10.672770,-0.204774,-0.465831,9.995015,-0.154646,-0.710702,-0.051328,0.457764,-0.885010,-2.288818
10.682867,0.374821,-0.613724,10.069261,0.424949,-0.858594,0.022917,1.831055,-0.793457,-1.159668
10.692963,0.259860,-0.386197,10.062675,0.309988,-0.631067,0.016331,3.448486,0.122070,1.464844
10.703061,0.371827,0.159868,9.995015,0.421955,-0.085003,-0.051328,-1.556396,0.213623,-2.380371
10.713158,0.428708,0.110171,10.059082,0.478837,-0.134700,0.012739,-1.159668,-0.061035,-1.708984
10.723256,0.325723,-0.013771,10.114167,0.375851,-0.258642,0.067824,-1.831055,0.732422,-0.762939
10.733353,0.440684,0.396974,10.097402,0.490812,0.152104,0.051059,-0.976562,0.427246,0.518799
10.743474,0.596959,0.398771,10.005793,0.647087,0.153900,-0.040551,-0.885010,1.007080,-0.091553
10.753571,0.131127,0.276625,10.253677,0.181256,0.031754,0.207334,-1.617432,0.183105,-3.204346
10.763668,0.229922,0.263452,9.972861,0.280050,0.018582,-0.073482,-2.105713,0.061035,-2.471924
10.773766,-0.032333,0.092208,10.350077,0.017796,-0.152662,0.303733,0.762939,0.701904,-0.427246
10.783863,0.293989,0.008383,10.002200,0.344117,-0.236488,-0.044143,-1.220703,0.946045,-1.403809
10.793960,0.310155,0.238903,9.930948,0.360284,-0.005967,-0.115395,-0.427246,1.190186,-1.953125
10.804058,0.110171,0.255070,10.127340,0.160299,0.010199,0.080997,-0.518799,0.823975,-4.943848
10.814154,0.116158,0.217348,9.995015,0.166287,-0.027523,-0.051328,2.288818,0.640869,-5.187988
10.824250,0.029339,-0.068258,10.028546,0.079467,-0.313129,-0.017798,-3.234863,0.305176,-12.725830
10.834347,0.078437,0.349074,10.118958,0.128565,0.104204,0.072614,-2.105713,-0.183105,-14.495850
10.844467,-0.153281,0.088616,10.237511,-0.103153,-0.156255,0.191167,-1.220703,0.030518,-15.777588
10.854563,-0.325723,-0.071851,10.192006,-0.275594,-0.316721,0.145662,-1.861572,0.091553,-15.838623
10.864659,-0.557441,0.143102,10.102192,-0.507312,-0.101768,0.055849,1.434326,2.075195,-8.880615
10.874755,-0.441881,0.721500,9.252559,-0.391753,0.476629,-0.793784,1.190186,2.624512,-7.141113
10.884852,0.484991,0.370629,9.269923,0.535120,0.125759,-0.776420,1.007080,0.000000,-6.195068
10.894948,-0.210762,0.268841,9.939930,-0.160633,0.023970,-0.106414,0.457764,0.762939,-5.859375
10.905044,-0.032333,-0.269440,10.560839,0.017796,-0.514310,0.514495,-0.122070,0.976562,-7.110596
10.915138,-0.056882,0.344883,10.129136,-0.006753,0.100012,0.082793,-0.579834,0.762939,-4.821777
10.925234,-0.332309,0.131127,10.126741,-0.282180,-0.113743,0.080398,-2.014160,0.701904,-2.929688
10.935331,-0.207768,0.493973,10.027947,-0.157639,0.249102,-0.018397,-2.593994,0.579834,2.746582
10.945495,0.155078,0.544268,9.818383,0.205206,0.299398,-0.227961,-0.885010,0.152588,5.401611
10.955591,0.545466,0.290995,10.055490,0.595594,0.046124,0.009146,0.244141,0.640869,2.899170
10.965688,0.292791,0.953218,9.911190,0.342920,0.708347,-0.135154,1.831055,0.549316,3.784180
10.975796,0.378413,0.950823,9.751921,0.428542,0.705952,-0.294423,1.251221,0.732422,4.730225
10.985894,0.464035,0.919687,10.055490,0.514164,0.674817,0.009146,1.159668,1.251221,6.011963
10.995992,0.314346,1.065784,10.131531,0.364475,0.820913,0.085188,0.183105,2.197266,7.965088
11.006090,0.470023,0.929866,10.203382,0.520151,0.684996,0.157038,-0.457764,1.739502,9.338379
11.016187,0.458047,1.105900,9.841135,0.508176,0.861030,-0.205208,0.488281,0.701904,8.361816
11.026284,0.348475,0.793350,10.403965,0.398604,0.548480,0.357621,-2.624512,0.000000,0.305176
11.036378,0.334105,0.722697,9.927356,0.384234,0.477827,-0.118988,0.427246,0.457764,-1.373291
11.046501,-0.111967,0.428708,10.039922,-0.061839,0.183838,-0.006422,0.244141,0.183105,-0.823975
11.056598,0.026345,0.267045,10.002799,0.076474,0.022174,-0.043544,1.525879,-0.732422,-6.896973
11.066696,-0.073647,0.289797,9.917177,-0.023518,0.044927,-0.129166,4.425049,0.030518,-5.859375
11.076794,-0.356858,-0.303569,10.510543,-0.306729,-0.548439,0.464200,1.220703,-0.274658,-9.002686
11.086890,-0.445474,0.186213,10.178234,-0.395345,-0.058658,0.131891,3.082275,-0.396729,-8.605957
11.096988,-0.413740,0.110171,9.854308,-0.363611,-0.134700,-0.192036,0.122070,0.488281,-4.180908
11.107082,-0.416733,0.496368,9.901011,-0.366605,0.251497,-0.145333,-0.335693,1.312256,0.762939
11.117179,-0.408950,0.265248,10.096804,-0.358821,0.020378,0.050460,-2.380371,-0.457764,-0.640869
11.127276,0.092807,0.293390,10.245894,0.142936,0.048519,0.199550,-2.807617,-1.739502,-3.723145
11.137374,-0.041314,0.608335,9.996812,0.008814,0.363464,-0.049532,-1.281738,-1.159668,-5.523682
11.147496,-0.102986,0.402962,10.118958,-0.052857,0.158091,0.072614,-0.366211,0.732422,-4.455566
11.157592,0.015568,0.361648,9.958491,0.065696,0.116777,-0.087852,0.640869,0.030518,-4.821777
11.167689,-0.123942,0.241897,9.947115,-0.073814,-0.002974,-0.099229,0.366211,-0.274658,-5.218506
11.177786,-0.207169,0.168250,9.837543,-0.157041,-0.076620,-0.208801,0.854492,-0.366211,-3.601074
11.187883,-0.255668,0.557441,9.682465,-0.205540,0.312570,-0.363878,-5.432129,-1.556396,-8.117676
11.197980,-0.098196,0.778980,9.938134,-0.048067,0.534110,-0.108210,-5.157471,-1.708984,-9.796143
11.208077,-0.107776,0.557441,10.265054,-0.057647,0.312570,0.218710,-4.302979,-2.105713,-11.718750
11.218174,-0.160466,-0.010778,10.153087,-0.110338,-0.255648,0.106743,0.488281,0.610352,-14.892578
11.228270,0.058079,-0.161065,10.001003,0.108208,-0.405936,-0.045341,3.265381,-0.640869,-16.876221
11.238367,-0.644260,-0.033530,10.206376,-0.594132,-0.278401,0.160032,3.967285,-0.366211,-11.047363
11.248487,-0.495170,0.276026,10.365046,-0.445042,0.031155,0.318702,6.195068,-0.091553,-10.589600
11.258584,-0.545466,0.293989,10.015972,-0.495337,0.049118,-0.030372,4.760742,0.457764,-8.758545
11.268680,-0.365240,-0.017963,10.278825,-0.315112,-0.262833,0.232482,2.227783,0.457764,-13.305664
11.278778,-0.136516,-0.004790,9.954899,-0.086388,-0.249661,-0.091445,2.166748,-0.305176,-17.181396
11.288875,-0.520318,0.185015,9.874666,-0.470189,-0.059855,-0.171678,2.380371,-0.366211,-18.981934
11.298973,-0.673000,0.040117,10.036928,-0.622872,-0.204754,-0.009415,0.091553,-0.183105,-19.012451
11.309071,-0.488584,-0.034129,10.333911,-0.438455,-0.279000,0.287567,-0.030518,-0.885010,-16.540527
11.319169,-0.191003,0.612526,9.860894,-0.140874,0.367656,-0.185449,0.030518,-1.525879,-17.181396
11.329266,-0.154479,0.299377,9.930350,-0.104350,0.054507,-0.115994,-0.854492,0.152588,-14.526367
11.339363,0.193997,0.048499,10.192006,0.244125,-0.196371,0.145662,-2.014160,-0.976562,-11.199951
11.349484,0.367635,-0.032932,10.123748,0.417764,-0.277802,0.077404,-2.349854,-0.366211,-14.831543
11.359580,0.282612,0.400567,10.428514,0.332741,0.155696,0.382170,-1.586914,-0.610352,-15.502930
11.369678,0.172441,0.397573,9.774075,0.222570,0.152703,-0.272269,0.762939,-0.915527,-12.634277
11.379774,0.205972,0.179028,9.921368,0.256100,-0.065843,-0.124975,-1.983643,-0.518799,-6.042480
11.389870,0.576601,0.291594,10.338102,0.626729,0.046723,0.291758,-1.220703,-0.518799,-4.547119
11.399968,0.495769,0.362845,10.030941,0.545898,0.117975,-0.015403,1.007080,0.610352,-5.340576
11.410065,0.301174,0.328118,10.321935,0.351302,0.083247,0.275592,0.457764,0.366211,-5.432129
11.420162,0.307161,0.361648,10.138118,0.357290,0.116777,0.091774,0.762939,-0.366211,-3.875732
11.430259,0.208965,0.418530,9.912387,0.259094,0.173659,-0.133956,0.427246,-0.152588,-2.471924
11.440356,0.197589,0.328716,10.153685,0.247718,0.083846,0.107342,2.197266,0.030518,-1.129150
11.450477,0.123344,0.157473,10.128538,0.173472,-0.087398,0.082194,1.251221,-0.213623,0.946045
11.460573,0.490380,0.290995,9.711205,0.540509,0.046124,-0.335138,0.061035,-1.068115,-2.716064
11.470670,0.186812,-0.005389,10.053693,0.236940,-0.250259,0.007350,-3.021240,-0.762939,-12.359619
11.480767,-0.110171,-0.452060,10.408755,-0.060042,-0.696930,0.362411,-5.065918,0.305176,-16.632080
11.490864,-0.084424,0.178429,10.102192,-0.034296,-0.066442,0.055849,-0.610352,0.366211,-16.143799
11.500960,-0.483794,0.049697,9.927955,-0.433665,-0.195174,-0.118389,-0.305176,0.549316,-14.312744
11.511057,-0.442480,0.153281,10.200987,-0.392351,-0.091589,0.154643,-1.068115,-0.152588,-14.526367
11.521154,-0.555645,0.152084,9.876462,-0.505516,-0.092787,-0.169882,1.281738,-0.274658,-9.399414
11.531250,0.040715,0.544867,9.969868,0.090844,0.299996,-0.076476,3.570557,0.274658,-9.063721
11.541346,0.225731,0.106578,10.126741,0.275859,-0.138292,0.080398,1.983643,-0.732422,-6.530762
11.551466,0.200583,0.334704,9.800420,0.250711,0.089833,-0.245924,0.244141,-0.946045,-7.720947
11.561563,0.413141,0.513133,9.762100,0.463269,0.268262,-0.284244,-4.791260,-1.098633,-9.521484
11.571660,0.399370,0.045505,10.174043,0.449498,-0.199365,0.127699,-3.417969,-0.457764,-9.094238
11.581755,0.183219,-0.425715,10.292596,0.233348,-0.670585,0.246253,-1.586914,-1.495361,-6.866455
11.591852,-0.172441,-0.001198,10.050699,-0.122313,-0.246068,0.004356,-1.037598,0.152588,-3.082275
11.601949,-0.493973,-0.164059,9.977053,-0.443844,-0.408929,-0.069291,0.213623,1.220703,0.030518
11.612046,-0.025746,0.047302,9.868079,0.024382,-0.197569,-0.178264,-0.305176,1.342773,4.577637
11.622142,-0.153281,0.307161,9.956695,-0.103153,0.062291,-0.089649,1.159668,2.014160,3.906250
11.632238,-0.224533,0.023950,9.962682,-0.174405,-0.220920,-0.083661,2.838135,1.647949,2.532959
11.642335,-0.158071,-0.285007,9.943522,-0.107943,-0.529878,-0.102821,2.441406,1.403809,2.593994
11.652452,-0.244292,0.238903,9.951306,-0.194163,-0.005967,-0.095037,4.974365,1.617432,7.568359
11.662545,0.175435,0.105381,9.612411,0.225564,-0.139490,-0.433933,4.638672,0.854492,8.209229
11.672641,0.468226,-0.342488,10.254276,0.518355,-0.587358,0.207933,0.549316,-0.762939,7.293701
11.682738,0.447869,-0.100591,10.060878,0.497997,-0.345461,0.014535,0.335693,0.518799,3.265381
11.692835,0.459844,-0.421523,9.907597,0.509972,-0.666394,-0.138746,1.190186,1.312256,6.195068
11.702932,0.133522,-0.399370,10.242900,0.183651,-0.644240,0.196556,-3.570557,1.739502,6.927490
11.713029,0.422721,-0.029938,10.047706,0.472849,-0.274808,0.001362,-2.655029,1.983643,9.368896
11.723126,0.558040,0.393981,9.896819,0.608168,0.149110,-0.149524,0.091553,2.197266,15.533447
11.733223,0.165256,-0.185614,10.190209,0.215385,-0.430485,0.143866,-0.488281,1.586914,14.282227
11.743320,0.248483,-0.150886,10.067465,0.298612,-0.395757,0.021121,0.122070,1.983643,15.228271
11.753440,0.266446,0.001796,10.214160,0.316574,-0.243074,0.167816,1.007080,2.197266,18.157959
11.763536,0.314346,0.023351,9.763297,0.364475,-0.221519,-0.283046,2.624512,1.159668,16.784668
11.773633,0.495170,-0.269440,10.307565,0.545299,-0.514310,0.261222,0.457764,0.244141,10.284424
11.783730,0.542472,-0.585582,10.533296,0.592600,-0.830453,0.486952,0.823975,-0.152588,8.209229
11.793826,0.600551,-0.135319,9.785451,0.650680,-0.380189,-0.260892,1.525879,1.434326,4.699707
11.803923,0.520318,-0.664618,10.214758,0.570447,-0.909488,0.168415,-0.701904,-0.122070,-1.922607
11.814019,0.720302,-0.592767,10.026749,0.770431,-0.837638,-0.019594,-0.061035,0.000000,-10.864258
11.824116,0.322130,-0.617316,10.175839,0.372259,-0.862187,0.129496,-0.244141,-0.640869,-13.183594
11.834213,0.299377,-0.745450,10.108180,0.349506,-0.990320,0.061836,-0.366211,-0.976562,-14.526367
11.844306,0.212558,-0.772394,10.150692,0.262686,-1.017264,0.104348,-1.403809,-0.823975,-15.655518
11.854427,0.545466,-0.777783,10.042317,0.595594,-1.022653,-0.004027,-0.213623,-0.488281,-16.815186
11.864523,-0.056283,-1.060994,10.180629,-0.006154,-1.305864,0.134286,-1.068115,-1.281738,-18.676758
11.874619,0.047900,-1.031056,9.969269,0.098029,-1.275926,-0.077075,-2.441406,-1.831055,-20.355225
11.884715,0.311353,-0.847238,10.211166,0.361481,-1.092109,0.164822,0.518799,-1.220703,-14.251709
11.894811,0.131726,-0.696951,10.130334,0.181855,-0.941821,0.083990,1.068115,-1.098633,-13.885498
11.904906,0.209564,-0.943638,10.060878,0.259693,-1.188508,0.014535,-0.244141,-1.373291,-13.732910
11.915003,0.219144,-0.781974,10.117161,0.269273,-1.026844,0.070818,-1.159668,-1.312256,-12.786865
11.925099,0.160466,-0.838856,10.056088,0.210595,-1.083726,0.009745,0.061035,-1.617432,-10.955811
11.935195,0.402962,-0.965193,10.051298,0.453091,-1.210063,0.004955,-0.488281,-2.349854,-12.481689
11.945290,0.326321,-1.127455,10.218950,0.376450,-1.372326,0.172606,-0.579834,-2.227783,-13.946533
11.955410,0.793350,-0.683179,9.936337,0.843479,-0.928050,-0.110006,-0.854492,-0.976562,-16.937256
11.965506,-0.102387,-0.930465,10.217752,-0.052259,-1.175336,0.171409,-1.281738,-1.068115,-16.845703
11.975672,-0.021555,-0.799338,10.220746,0.028573,-1.044208,0.174402,-0.610352,-1.190186,-16.265869
11.985770,-0.003593,-0.598156,10.190209,0.046536,-0.843027,0.143866,-1.556396,-0.427246,-11.596680
11.995867,0.302970,-0.341290,10.056088,0.353098,-0.586161,0.009745,-1.129150,-0.091553,-10.192871
12.005965,0.265248,-0.293989,10.101594,0.315377,-0.538859,0.055250,-1.007080,0.213623,-7.324219
12.016061,0.327519,-0.257465,10.003398,0.377647,-0.502335,-0.042946,-1.159668,0.183105,-7.232666
12.026157,0.355062,-0.340093,10.055490,0.405190,-0.584963,0.009146,-2.593994,-0.305176,-5.828857
12.036254,0.376617,-0.258662,10.102192,0.426745,-0.503533,0.055849,-2.807617,-0.152588,-5.187988
12.046351,0.560435,-0.075443,10.003398,0.610563,-0.320314,-0.042946,3.173828,-0.091553,-3.356934
12.056472,0.309556,-0.449066,10.077643,0.359685,-0.693937,0.031300,2.380371,-0.122070,-3.082275
12.066569,0.432900,-0.273032,9.901011,0.483028,-0.517903,-0.145333,1.525879,-0.488281,-5.493164
12.076665,0.189805,-0.159868,10.036329,0.239934,-0.404738,-0.010014,0.335693,-1.037598,-7.873535
12.086762,0.200583,-0.182021,10.191407,0.250711,-0.426892,0.145063,-0.915527,-1.037598,-8.697510
12.096859,0.293989,-0.178429,10.107581,0.344117,-0.423299,0.061238,-2.685547,0.396729,-13.305664
12.106956,0.056882,0.019759,10.157278,0.107010,-0.225112,0.110934,-2.441406,0.762939,-14.923096
12.117053,-0.059875,0.116757,10.101594,-0.009747,-0.128113,0.055250,1.007080,0.274658,-12.207031
12.127151,-0.020358,-0.022154,10.039323,0.029771,-0.267024,-0.007020,2.319336,0.579834,-10.742188
12.137249,0.129331,-0.076042,9.965078,0.179460,-0.320912,-0.081266,2.960205,0.946045,-9.521484
12.147347,0.242496,-0.120350,10.103390,0.292624,-0.365220,0.057046,2.593994,1.129150,-11.322021
12.157469,0.179626,0.029938,10.008787,0.229755,-0.214933,-0.037557,2.380371,0.732422,-11.779785
12.167566,0.111368,-0.031135,10.007589,0.161497,-0.276006,-0.038754,1.068115,0.366211,-12.512207
12.177663,0.003593,-0.004790,9.974658,0.053721,-0.249661,-0.071686,0.549316,0.457764,-11.352539
12.187760,-0.035327,-0.239502,10.062076,0.014802,-0.484372,0.015732,-0.213623,0.274658,-11.108398
12.197856,0.314346,-0.202978,10.209370,0.364475,-0.447848,0.163026,0.244141,-0.152588,-10.742188
12.207953,0.311951,-0.222737,10.152488,0.362080,-0.467607,0.106144,0.885010,-0.274658,-11.566162
12.218049,0.169448,-0.182620,10.062076,0.219576,-0.427491,0.015732,1.007080,-0.854492,-13.916016
12.228146,0.130529,-0.075443,9.989028,0.180657,-0.320314,-0.057316,0.427246,-1.251221,-14.495850
12.238243,0.021555,-0.028141,10.086026,0.071684,-0.273012,0.039682,-0.183105,-0.976562,-12.725830
12.248339,0.150886,0.119152,10.038724,0.201015,-0.125718,-0.007619,0.579834,-0.579834,-11.169434
12.258461,0.208367,0.137714,10.001602,0.258495,-0.107157,-0.044742,0.122070,-0.152588,-10.528564
12.268558,0.232916,0.199385,10.092014,0.283044,-0.045485,0.045670,-0.030518,-0.671387,-10.772705
12.278654,0.245490,0.058079,10.137519,0.295618,-0.186791,0.091175,-1.220703,-0.793457,-10.559082
12.288751,0.221539,-0.241897,10.087224,0.271668,-0.486768,0.040880,-2.014160,-0.885010,-10.925293
12.298848,0.244292,-0.283810,10.098001,0.294420,-0.528680,0.051658,-1.800537,-0.885010,-11.901855
12.308946,0.152084,-0.121547,10.092612,0.202212,-0.366418,0.046269,-0.823975,-0.579834,-10.620117
12.319043,0.110171,-0.066462,10.054891,0.160299,-0.311332,0.008547,-0.640869,-0.549316,-8.514404
12.329139,0.046104,0.082029,10.077643,0.096233,-0.162841,0.031300,-0.030518,-0.335693,-6.500244
12.339235,0.123942,0.065863,10.091415,0.174071,-0.179008,0.045071,0.488281,-0.122070,-4.241943
12.349332,0.029938,-0.036524,10.072255,0.080066,-0.281395,0.025911,1.251221,0.122070,0.518799
12.359452,0.370629,-0.110171,10.065070,0.420758,-0.355041,0.018726,1.098633,0.091553,1.770020
12.369550,0.359852,-0.155676,10.030342,0.409980,-0.400547,-0.016002,0.885010,0.030518,1.312256
12.379647,0.058079,-0.057480,10.066866,0.108208,-0.302351,0.020522,0.396729,-0.183105,-0.579834
12.389745,0.047302,0.173639,10.029743,0.097430,-0.071232,-0.016600,0.701904,-0.030518,0.061035
12.399842,0.005389,0.155676,10.051298,0.055517,-0.089194,0.004955,0.946045,0.213623,2.380371
12.409939,-0.005389,0.069456,10.112970,0.044740,-0.175415,0.066626,1.312256,0.213623,2.777100
12.420036,-0.071252,0.092807,10.063273,-0.021123,-0.152064,0.016930,-0.030518,0.213623,2.441406
12.430133,0.079634,0.025746,10.042317,0.129763,-0.219124,-0.004027,0.000000,0.061035,0.305176
12.440230,0.004191,0.288600,9.998608,0.054320,0.043729,-0.047736,0.427246,0.061035,0.732422
12.450324,0.033530,0.161065,10.062076,0.083659,-0.083805,0.015732,-0.091553,0.091553,2.166748
12.460445,-0.028141,0.394579,10.005194,0.021987,0.149709,-0.041149,-0.152588,0.183105,0.335693
12.470542,-0.055684,0.525108,10.017768,-0.005556,0.280237,-0.028576,-0.244141,0.213623,0.976562
12.480640,0.080832,0.279619,10.050101,0.130960,0.034748,0.003757,-0.366211,0.335693,2.563477
12.490737,0.026944,0.214953,10.062076,0.077072,-0.029918,0.015732,-0.274658,0.091553,2.288818
12.500833,-0.149090,0.215552,10.080038,-0.098961,-0.029319,0.033695,-1.220703,0.061035,2.532959
12.510930,-0.192799,0.470621,10.075847,-0.142671,0.225751,0.029504,-0.915527,0.213623,3.265381
12.521025,-0.348475,0.695753,10.044712,-0.298347,0.450883,-0.001632,-0.823975,0.457764,7.324219
12.531121,-0.164059,0.703537,10.022558,-0.113930,0.458666,-0.023786,-0.518799,0.488281,8.422852
12.541217,-0.084424,0.424517,10.068063,-0.034296,0.179647,0.021720,-0.793457,0.793457,9.185791
12.551315,-0.025746,0.504152,10.040521,0.024382,0.259281,-0.005823,-0.610352,0.762939,9.155273
12.561435,0.190404,0.432301,10.061477,0.240533,0.187430,0.015134,0.854492,0.610352,7.415771
12.571532,0.155676,0.590971,9.995614,0.205805,0.346101,-0.050730,1.251221,0.518799,5.889893
12.581630,0.140707,0.428708,10.028546,0.190836,0.183838,-0.017798,1.495361,0.427246,2.960205
12.591727,0.132325,0.470621,10.045909,0.182453,0.225751,-0.000434,1.586914,0.396729,2.441406
12.601823,0.092807,0.443677,10.074051,0.142936,0.198807,0.027707,2.105713,0.671387,5.004883
