time,ax_raw,ay_raw,az_raw,ax,ay,az,gx,gy,gz
0.000480,-0.169448,-0.778381,10.038724,-0.001164,-0.010748,-0.008656,0.000000,0.000000,0.000000
0.010557,-0.166454,-0.774789,10.041718,0.001830,-0.007156,-0.005662,-0.030518,0.000000,-0.030518
0.020630,-0.163460,-0.771795,10.055490,0.004824,-0.004162,0.008109,-0.061035,0.030518,0.000000
0.030696,-0.171843,-0.769999,10.056088,-0.003559,-0.002366,0.008708,-0.061035,0.030518,0.000000
0.040777,-0.165256,-0.767604,10.053693,0.003027,0.000029,0.006313,0.000000,0.030518,0.000000
0.050850,-0.163460,-0.769999,10.051897,0.004824,-0.002366,0.004517,0.000000,0.030518,-0.030518
0.060916,-0.183818,-0.817300,10.093211,-0.015534,-0.049667,0.045831,0.518799,-0.183105,-0.030518
0.070991,-0.189805,-0.835263,10.117161,-0.021521,-0.067630,0.069781,1.434326,-0.518799,-0.030518
0.081063,-0.189805,-0.828078,10.108779,-0.021521,-0.060445,0.061399,3.265381,-1.220703,-0.091553
0.091130,-0.152084,-0.711920,9.995614,0.016200,0.055713,-0.051766,3.082275,-1.129150,-0.091553
0.101202,-0.135917,-0.687371,9.971065,0.032366,0.080262,-0.076315,2.166748,-0.762939,-0.030518
0.111274,-0.155078,-0.735271,10.036329,0.013206,0.032362,-0.011051,0.274658,-0.030518,0.061035
0.121341,-0.170645,-0.773591,10.069860,-0.002361,-0.005958,0.022480,0.213623,0.000000,0.030518
0.131415,-0.160466,-0.748444,10.057885,0.007817,0.019189,0.010504,0.915527,-0.305176,0.000000
0.141487,-0.153281,-0.723296,10.031539,0.015003,0.044337,-0.015841,0.885010,-0.305176,0.000000
0.151551,-0.150287,-0.717907,10.023755,0.017996,0.049726,-0.023625,0.213623,-0.061035,0.030518
0.161623,-0.162263,-0.738864,10.046508,0.006021,0.028769,-0.000872,0.000000,0.000000,0.000000
0.171695,-0.167053,-0.749641,10.056687,0.001231,0.017992,0.009307,0.030518,0.030518,0.000000
0.181760,-0.155676,-0.733475,10.045909,0.012608,0.034158,-0.001471,0.030518,0.030518,0.030518
0.191833,-0.152682,-0.725092,10.033336,0.015601,0.042541,-0.014045,-0.183105,0.152588,0.030518
0.201905,-0.156874,-0.753234,10.045909,0.011410,0.014399,-0.001471,-0.610352,0.274658,0.061035
0.211971,-0.160466,-0.767005,10.066866,0.007817,0.000628,0.019486,-0.579834,0.274658,0.061035
0.222044,-0.167053,-0.764011,10.069261,0.001231,0.003622,0.021881,-0.366211,0.183105,0.030518
0.232115,-0.166454,-0.754431,10.062675,0.001830,0.013202,0.015294,-0.335693,0.183105,0.030518
0.242181,-0.165256,-0.762814,10.060280,0.003027,0.004819,0.012899,-0.305176,0.152588,0.030518
0.252252,-0.169448,-0.761017,10.050101,-0.001164,0.006615,0.002721,-0.183105,0.061035,0.030518
0.262323,-0.170645,-0.765807,10.051298,-0.002361,0.001825,0.003918,-0.091553,0.030518,0.030518
0.272389,-0.170645,-0.757425,10.050699,-0.002361,0.010208,0.003319,-0.091553,0.091553,0.030518
0.282461,-0.164059,-0.753832,10.044712,0.004225,0.013801,-0.002668,-0.213623,0.122070,0.061035
0.292533,-0.165855,-0.754431,10.036928,0.002429,0.013202,-0.010452,-0.549316,0.244141,0.061035
0.302599,-0.155676,-0.738864,10.023755,0.012608,0.028769,-0.023625,-0.946045,0.366211,0.091553
0.312673,-0.158071,-0.736469,10.019564,0.010213,0.031164,-0.027816,-1.373291,0.518799,0.091553
0.322746,-0.193997,-0.779579,10.072853,-0.025713,-0.011946,0.025473,-1.831055,0.732422,0.061035
0.332811,-0.191602,-0.790356,10.094409,-0.023318,-0.022723,0.047028,-1.312256,0.549316,0.061035
0.342882,-0.189805,-0.786764,10.064471,-0.021521,-0.019131,0.017091,-0.946045,0.335693,0.030518
0.352955,-0.173040,-0.779579,10.059082,-0.004756,-0.011946,0.011702,-0.732422,0.274658,0.030518
0.363022,-0.174836,-0.784369,10.062675,-0.006553,-0.016736,0.015294,-0.488281,0.152588,0.030518
0.373094,-0.171244,-0.786165,10.064471,-0.002960,-0.018532,0.017091,-0.366211,0.122070,0.030518
0.383166,-0.175435,-0.784369,10.055490,-0.007151,-0.016736,0.008109,-0.305176,0.091553,0.000000
0.393232,-0.170645,-0.784968,10.048903,-0.002361,-0.017335,0.001523,-0.183105,0.061035,-0.030518
0.403298,-0.177231,-0.783770,10.051298,-0.008948,-0.016137,0.003918,-0.122070,0.091553,0.000000
0.413370,-0.177830,-0.776585,10.050101,-0.009546,-0.008952,0.002721,-0.030518,0.061035,-0.030518
0.423437,-0.183219,-0.778381,10.043514,-0.014935,-0.010748,-0.003866,-0.030518,0.061035,0.000000
0.433504,-0.186213,-0.778381,10.046508,-0.017929,-0.010748,-0.000872,0.061035,0.030518,0.000000
0.443573,-0.195793,-0.816103,10.077045,-0.027509,-0.048470,0.029665,0.396729,-0.122070,0.000000
0.453639,-0.204175,-0.840652,10.099797,-0.035892,-0.073019,0.052417,1.129150,-0.396729,-0.030518
0.463706,-0.193997,-0.793350,10.066866,-0.025713,-0.025717,0.019486,3.051758,-1.129150,-0.091553
0.473772,-0.165855,-0.740061,10.012379,0.002429,0.027572,-0.035001,3.143311,-1.190186,-0.091553
0.483838,-0.155078,-0.709525,9.993818,0.013206,0.058108,-0.053562,1.373291,-0.488281,-0.030518
0.493905,-0.162861,-0.746049,10.033934,0.005422,0.021584,-0.013446,0.640869,-0.183105,0.000000
0.503973,-0.179028,-0.781974,10.068662,-0.010744,-0.014341,0.021282,0.885010,-0.335693,0.000000
0.514040,-0.165855,-0.756826,10.062076,0.002429,0.010807,0.014696,1.251221,-0.488281,-0.030518
0.524106,-0.149689,-0.722098,10.033934,0.018595,0.045535,-0.013446,1.159668,-0.488281,0.000000
0.534173,-0.146695,-0.710722,10.018367,0.021589,0.056911,-0.029013,-0.030518,0.000000,0.030518
0.544240,-0.158670,-0.738265,10.041119,0.009614,0.029368,-0.006261,-0.396729,0.183105,0.030518
0.554306,-0.162861,-0.747246,10.045311,0.005422,0.020387,-0.002069,-0.244141,0.091553,0.030518
0.564376,-0.159269,-0.731080,10.030342,0.009015,0.036553,-0.017038,-0.244141,0.091553,0.000000
0.574442,-0.158071,-0.728086,10.028546,0.010213,0.039547,-0.018835,-0.732422,0.305176,0.000000
0.584508,-0.160466,-0.750839,10.050101,0.007817,0.016794,0.002721,-0.823975,0.366211,0.030518
0.594575,-0.159868,-0.752635,10.056687,0.008416,0.014998,0.009307,-0.732422,0.335693,0.000000
0.604641,-0.152682,-0.745450,10.037527,0.015601,0.022183,-0.009853,-0.671387,0.274658,0.061035
0.614708,-0.148491,-0.731678,10.033934,0.019793,0.035954,-0.013446,-0.854492,0.366211,0.030518
0.624775,-0.154479,-0.732876,10.027947,0.013805,0.034757,-0.019433,-1.586914,0.610352,0.061035
0.634841,-0.157473,-0.742456,10.038126,0.010811,0.025177,-0.009255,-1.983643,0.732422,0.061035
0.644908,-0.162861,-0.813708,10.092612,0.005422,-0.046075,0.045232,-1.556396,0.640869,0.000000
0.654974,-0.176633,-0.802930,10.082433,-0.008349,-0.035297,0.035053,-0.915527,0.396729,-0.030518
0.665040,-0.190404,-0.799937,10.090816,-0.022120,-0.032304,0.043436,-0.366211,0.183105,0.000000
0.675107,-0.186213,-0.802930,10.087822,-0.017929,-0.035297,0.040442,0.793457,-0.274658,-0.061035
0.685179,-0.183219,-0.787961,10.076446,-0.014935,-0.020328,0.029066,1.403809,-0.518799,-0.030518
0.695245,-0.165256,-0.714913,10.012978,0.003027,0.052720,-0.034402,1.770020,-0.671387,-0.061035
0.705312,-0.158670,-0.708926,10.004595,0.009614,0.058707,-0.042785,1.159668,-0.457764,-0.030518
0.715379,-0.161664,-0.731080,10.027348,0.006620,0.036553,-0.020032,0.457764,-0.122070,0.000000
0.725445,-0.177830,-0.764011,10.063872,-0.009546,0.003622,0.016492,0.640869,-0.213623,0.030518
0.735513,-0.161664,-0.750839,10.039323,0.006620,0.016794,-0.008057,0.762939,-0.274658,0.030518
0.745581,-0.152682,-0.735271,10.015972,0.015601,0.032362,-0.031408,0.244141,-0.061035,0.061035
0.755652,-0.162861,-0.757425,10.035731,0.005422,0.010208,-0.011650,-0.061035,0.061035,0.030518
0.765718,-0.164059,-0.752635,10.050101,0.004225,0.014998,0.002721,-0.152588,0.122070,0.030518
0.775783,-0.158670,-0.736469,10.035731,0.009614,0.031164,-0.011650,-0.366211,0.152588,0.061035
0.785854,-0.154479,-0.711920,10.016570,0.013805,0.055713,-0.030810,-1.434326,0.579834,0.061035
0.795924,-0.136516,-0.668809,9.979448,0.031768,0.098824,-0.067932,-2.593994,1.037598,0.122070
0.805989,-0.159868,-0.801134,10.078841,0.008416,-0.033501,0.031461,-2.471924,0.854492,0.091553
0.816062,-0.168250,-0.777184,10.069261,0.000034,-0.009551,0.021881,-1.525879,0.549316,0.091553
0.826133,-0.166454,-0.789758,10.070458,0.001830,-0.022125,0.023078,-1.159668,0.457764,0.061035
0.836204,-0.170046,-0.773591,10.061477,-0.001763,-0.005958,0.014097,-0.762939,0.274658,0.061035
0.846275,-0.169448,-0.769999,10.059082,-0.001164,-0.002366,0.011702,-0.610352,0.213623,0.061035
0.856346,-0.165256,-0.775986,10.057286,0.003027,-0.008353,0.009906,-0.335693,0.152588,0.061035
0.866412,-0.165855,-0.774190,10.059082,0.002429,-0.006557,0.011702,-0.244141,0.152588,0.061035
0.876483,-0.166454,-0.780776,10.061477,0.001830,-0.013143,0.014097,-0.152588,0.061035,0.061035
0.886554,-0.158670,-0.775986,10.056687,0.009614,-0.008353,0.009307,-0.122070,0.061035,0.061035
0.896619,-0.162263,-0.774190,10.053094,0.006021,-0.006557,0.005714,-0.122070,0.061035,0.061035
0.906689,-0.168250,-0.775388,10.063872,0.000034,-0.007755,0.016492,-0.061035,0.061035,0.061035
0.916760,-0.166454,-0.769999,10.070458,0.001830,-0.002366,0.023078,-0.061035,0.061035,0.061035
0.926825,-0.170645,-0.777184,10.081236,-0.002361,-0.009551,0.033856,0.183105,-0.091553,0.061035
0.936899,-0.179028,-0.803529,10.086026,-0.010744,-0.035896,0.038646,0.610352,-0.244141,0.030518
0.946971,-0.173639,-0.793350,10.075847,-0.005355,-0.025717,0.028467,1.342773,-0.518799,0.000000
0.957038,-0.163460,-0.751437,10.035132,0.004824,0.016196,-0.012248,1.373291,-0.549316,0.000000
0.967109,-0.156275,-0.725691,10.020163,0.012009,0.041942,-0.027217,1.037598,-0.427246,0.000000
0.977181,-0.155078,-0.722098,10.004595,0.013206,0.045535,-0.042785,-0.274658,0.091553,0.030518
0.987246,-0.155676,-0.719703,10.011182,0.012608,0.047930,-0.036198,-0.976562,0.396729,0.061035
0.997318,-0.195194,-0.790356,10.075847,-0.026910,-0.022723,0.028467,-0.885010,0.396729,0.030518
1.007389,-0.168849,-0.763412,10.038724,-0.000565,0.004220,-0.008656,-0.610352,0.274658,0.000000
1.017456,-0.190404,-0.773591,10.061477,-0.022120,-0.005958,0.014097,-0.518799,0.244141,0.000000
1.027526,-0.176633,-0.780776,10.059681,-0.008349,-0.013143,0.012301,-0.457764,0.183105,0.000000
1.037598,-0.178429,-0.786165,10.054292,-0.010145,-0.018532,0.006912,-0.366211,0.152588,0.000000
1.047663,-0.182620,-0.779579,10.059681,-0.014336,-0.011946,0.012301,-0.244141,0.091553,0.000000
1.057739,-0.181423,-0.783171,10.053693,-0.013139,-0.015538,0.006313,-0.213623,0.091553,0.030518
1.067809,-0.179626,-0.773591,10.060878,-0.011343,-0.005958,0.013498,-0.183105,0.061035,0.061035
1.077877,-0.179626,-0.774789,10.059681,-0.011343,-0.007156,0.012301,-0.152588,0.061035,0.000000
1.087955,-0.179626,-0.769999,10.054292,-0.011343,-0.002366,0.006912,-0.091553,0.030518,0.030518
1.098027,-0.177231,-0.767005,10.047107,-0.008948,0.000628,-0.000273,-0.061035,0.000000,0.030518
1.108093,-0.168250,-0.762215,10.053693,0.000034,0.005418,0.006313,-0.061035,0.030518,0.000000
1.118165,-0.164059,-0.761616,10.056088,0.004225,0.006017,0.008708,-0.030518,0.000000,0.000000
1.128235,-0.166454,-0.759221,10.051298,0.001830,0.008412,0.003918,-0.061035,0.000000,0.030518
1.138302,-0.164658,-0.764011,10.045311,0.003626,0.003622,-0.002069,-0.122070,0.030518,0.030518
1.148373,-0.162861,-0.759820,10.042916,0.005422,0.007813,-0.004464,-0.122070,0.030518,0.030518
1.158444,-0.166454,-0.764610,10.048903,0.001830,0.003023,0.001523,-0.091553,0.030518,-0.030518
1.168510,-0.164059,-0.771196,10.051298,0.004225,-0.003563,0.003918,-0.061035,0.030518,-0.061035
1.178582,-0.160466,-0.768801,10.051298,0.007817,-0.001168,0.003918,-0.091553,0.000000,-0.061035
1.188656,-0.171244,-0.771196,10.051897,-0.002960,-0.003563,0.004517,-0.122070,0.030518,-0.030518
1.198723,-0.170645,-0.771795,10.051298,-0.002361,-0.004162,0.003918,-0.152588,0.030518,-0.061035
1.208795,-0.163460,-0.769999,10.056687,0.004824,-0.002366,0.009307,-0.122070,0.061035,-0.091553
1.218867,-0.162861,-0.771196,10.056687,0.005422,-0.003563,0.009307,-0.122070,0.030518,-0.061035
1.228942,-0.159269,-0.766406,10.056687,0.009015,0.001227,0.009307,-0.061035,0.061035,0.000000
1.239014,-0.161065,-0.776585,10.048903,0.007219,-0.008952,0.001523,-0.061035,0.030518,0.000000
1.249087,-0.166454,-0.780178,10.041718,0.001830,-0.012545,-0.005662,-0.061035,0.030518,0.000000
1.259153,-0.167053,-0.772993,10.047107,0.001231,-0.005360,-0.000273,-0.091553,0.030518,0.000000
1.269224,-0.164658,-0.771196,10.053693,0.003626,-0.003563,0.006313,-0.061035,0.030518,0.000000
1.279297,-0.157473,-0.770598,10.044712,0.010811,-0.002965,-0.002668,-0.030518,0.061035,0.030518
1.289365,-0.158670,-0.772993,10.047107,0.009614,-0.005360,-0.000273,-0.061035,0.061035,0.030518
1.299437,-0.155078,-0.772394,10.046508,0.013206,-0.004761,-0.000872,-0.030518,0.030518,0.030518
1.309510,-0.155676,-0.770598,10.056088,0.012608,-0.002965,0.008708,0.000000,0.030518,0.030518
1.319577,-0.156874,-0.772993,10.063872,0.011410,-0.005360,0.016492,0.000000,0.000000,0.030518
1.329649,-0.160466,-0.778980,10.056687,0.007817,-0.011347,0.009307,-0.030518,0.030518,-0.030518
1.339720,-0.158071,-0.775986,10.051897,0.010213,-0.008353,0.004517,0.000000,0.030518,0.000000
1.349786,-0.168849,-0.774190,10.051897,-0.000565,-0.006557,0.004517,-0.061035,-0.030518,0.000000
1.359858,-0.168250,-0.771795,10.055490,0.000034,-0.004162,0.008109,-0.091553,-0.030518,-0.030518
1.369931,-0.171843,-0.769999,10.052496,-0.003559,-0.002366,0.005116,-0.091553,0.000000,0.000000
1.379997,-0.174836,-0.774789,10.049502,-0.006553,-0.007156,0.002122,-0.091553,0.000000,-0.030518
1.390069,-0.176034,-0.777184,10.045909,-0.007750,-0.009551,-0.001471,-0.091553,0.030518,-0.030518
1.400140,-0.173040,-0.777184,10.046508,-0.004756,-0.009551,-0.000872,-0.091553,0.061035,0.030518
1.410207,-0.176633,-0.772993,10.052496,-0.008349,-0.005360,0.005116,-0.061035,0.030518,0.000000
1.420279,-0.172441,-0.764011,10.052496,-0.004158,0.003622,0.005116,-0.061035,0.030518,0.030518
1.430352,-0.172441,-0.768801,10.053693,-0.004158,-0.001168,0.006313,-0.061035,0.030518,0.000000
1.440422,-0.173040,-0.771196,10.053693,-0.004756,-0.003563,0.006313,-0.091553,0.030518,-0.061035
1.450494,-0.168250,-0.775388,10.053094,0.000034,-0.007755,0.005714,-0.122070,0.030518,-0.061035
1.460565,-0.165855,-0.776585,10.056088,0.002429,-0.008952,0.008708,-0.091553,0.030518,-0.061035
1.470631,-0.168250,-0.772993,10.051897,0.000034,-0.005360,0.004517,-0.091553,0.061035,-0.030518
1.480702,-0.170645,-0.772394,10.043514,-0.002361,-0.004761,-0.003866,-0.030518,0.030518,0.000000
1.490773,-0.165855,-0.762215,10.039922,0.002429,0.005418,-0.007458,-0.030518,0.030518,0.000000
1.500840,-0.167651,-0.759820,10.036329,0.000632,0.007813,-0.011051,-0.061035,0.030518,0.000000
1.510911,-0.165855,-0.762814,10.044113,0.002429,0.004819,-0.003267,-0.030518,0.030518,0.000000
1.520983,-0.162263,-0.765209,10.041718,0.006021,0.002424,-0.005662,-0.030518,0.030518,0.000000
1.531049,-0.163460,-0.767604,10.037527,0.004824,0.000029,-0.009853,-0.030518,0.030518,0.000000
1.541120,-0.163460,-0.763412,10.045311,0.004824,0.004220,-0.002069,0.030518,0.000000,0.061035
1.551192,-0.164059,-0.764610,10.040521,0.004225,0.003023,-0.006859,0.000000,0.000000,0.000000
1.561258,-0.170645,-0.768801,10.045311,-0.002361,-0.001168,-0.002069,0.000000,0.061035,-0.030518
1.571331,-0.166454,-0.771795,10.048304,0.001830,-0.004162,0.000924,0.000000,0.030518,-0.030518
1.581403,-0.161065,-0.773591,10.044113,0.007219,-0.005958,-0.003267,0.000000,0.030518,-0.061035
1.591470,-0.164658,-0.776585,10.048304,0.003626,-0.008952,0.000924,-0.030518,0.000000,-0.061035
1.601542,-0.163460,-0.773591,10.048304,0.004824,-0.005958,0.000924,-0.030518,0.030518,-0.061035
1.611613,-0.166454,-0.777783,10.058483,0.001830,-0.010150,0.011103,-0.061035,0.030518,-0.061035
1.621680,-0.168250,-0.777184,10.055490,0.000034,-0.009551,0.008109,-0.091553,0.030518,-0.030518
1.631753,-0.169448,-0.772394,10.048903,-0.001164,-0.004761,0.001523,-0.061035,0.030518,0.030518
1.641825,-0.171244,-0.778381,10.045311,-0.002960,-0.010748,-0.002069,-0.030518,0.030518,0.030518
1.651891,-0.162263,-0.776585,10.039922,0.006021,-0.008952,-0.007458,-0.030518,0.061035,0.030518
1.661963,-0.163460,-0.777184,10.052496,0.004824,-0.009551,0.005116,-0.030518,0.030518,0.000000
1.672034,-0.167053,-0.776585,10.047706,0.001231,-0.008952,0.000326,-0.030518,0.030518,0.030518
1.682101,-0.164059,-0.777783,10.049502,0.004225,-0.010150,0.002122,-0.061035,0.030518,0.000000
1.692173,-0.164059,-0.772993,10.043514,0.004225,-0.005360,-0.003866,-0.030518,0.061035,-0.030518
1.702245,-0.173040,-0.773591,10.046508,-0.004756,-0.005958,-0.000872,-0.061035,0.061035,0.000000
1.712312,-0.172441,-0.772993,10.057885,-0.004158,-0.005360,0.010504,-0.061035,0.061035,0.000000
1.722385,-0.174238,-0.777184,10.053094,-0.005954,-0.009551,0.005714,-0.030518,0.061035,0.030518
1.732457,-0.171244,-0.777783,10.045909,-0.002960,-0.010150,-0.001471,-0.061035,0.061035,0.030518
1.742523,-0.168849,-0.775986,10.039922,-0.000565,-0.008353,-0.007458,-0.030518,0.061035,0.000000
1.752595,-0.162861,-0.773591,10.044113,0.005422,-0.005958,-0.003267,0.000000,0.091553,0.000000
1.762667,-0.167053,-0.771795,10.047706,0.001231,-0.004162,0.000326,0.000000,0.091553,0.000000
1.772733,-0.164059,-0.772394,10.041718,0.004225,-0.004761,-0.005662,0.000000,0.061035,0.000000
1.782807,-0.164059,-0.769400,10.039323,0.004225,-0.001767,-0.008057,-0.061035,0.091553,0.030518
1.792879,-0.167651,-0.765209,10.038724,0.000632,0.002424,-0.008656,-0.030518,0.061035,0.061035
1.802946,-0.169448,-0.768801,10.041119,-0.001164,-0.001168,-0.006261,-0.030518,0.061035,0.061035
1.813018,-0.171843,-0.767005,10.049502,-0.003559,0.000628,0.002122,-0.030518,0.061035,0.061035
1.823092,-0.178429,-0.769999,10.047706,-0.010145,-0.002366,0.000326,0.000000,0.061035,0.061035
1.833158,-0.180824,-0.765209,10.042317,-0.012540,0.002424,-0.005063,-0.030518,0.030518,0.061035
1.843225,-0.173639,-0.765807,10.038724,-0.005355,0.001825,-0.008656,-0.061035,0.061035,0.030518
1.853297,-0.171843,-0.772394,10.044712,-0.003559,-0.004761,-0.002668,-0.030518,0.030518,0.000000
1.863362,-0.170645,-0.772394,10.049502,-0.002361,-0.004761,0.002122,-0.061035,0.000000,0.030518
1.873429,-0.173639,-0.768801,10.047706,-0.005355,-0.001168,0.000326,-0.030518,0.000000,0.030518
1.883500,-0.174836,-0.767604,10.047107,-0.006553,0.000029,-0.000273,0.000000,0.000000,0.030518
1.893568,-0.174836,-0.772993,10.039323,-0.006553,-0.005360,-0.008057,0.000000,0.000000,0.030518
1.903634,-0.174238,-0.771196,10.036928,-0.005954,-0.003563,-0.010452,0.000000,0.000000,0.030518
1.913700,-0.171244,-0.778381,10.038724,-0.002960,-0.010748,-0.008656,-0.030518,0.030518,0.030518
1.923766,-0.171843,-0.771795,10.040521,-0.003559,-0.004162,-0.006859,-0.030518,0.030518,0.000000
1.933832,-0.168250,-0.768203,10.042916,0.000034,-0.000570,-0.004464,0.030518,0.000000,0.030518
1.943899,-0.175435,-0.771196,10.045311,-0.007151,-0.003563,-0.002069,0.000000,0.061035,0.030518
1.953966,-0.176034,-0.771196,10.050699,-0.007750,-0.003563,0.003319,0.030518,0.091553,0.000000
1.964032,-0.176034,-0.770598,10.059082,-0.007750,-0.002965,0.011702,0.000000,0.030518,0.000000
1.974097,-0.179028,-0.771196,10.056088,-0.010744,-0.003563,0.008708,0.030518,0.000000,0.000000
1.984164,-0.182021,-0.777783,10.048903,-0.013738,-0.010150,0.001523,0.000000,0.000000,0.000000
1.994229,-0.174836,-0.776585,10.049502,-0.006553,-0.008952,0.002122,0.000000,-0.030518,0.000000
2.004295,-0.170645,-0.771196,10.046508,-0.002361,-0.003563,-0.000872,0.000000,0.030518,0.000000
2.014361,-0.173639,-0.772993,10.049502,-0.005355,-0.005360,0.002122,-0.030518,0.030518,0.000000
2.024426,-0.175435,-0.771196,10.049502,-0.007151,-0.003563,0.002122,0.000000,0.030518,0.000000
2.034492,-0.173040,-0.771795,10.050101,-0.004756,-0.004162,0.002721,-0.030518,0.030518,0.030518
2.044558,-0.173639,-0.771795,10.044712,-0.005355,-0.004162,-0.002668,-0.030518,0.061035,0.000000
2.054624,-0.179028,-0.768801,10.042317,-0.010744,-0.001168,-0.005063,-0.061035,0.061035,0.000000
2.064691,-0.177231,-0.777184,10.042916,-0.008948,-0.009551,-0.004464,-0.030518,0.030518,0.000000
2.074758,-0.174238,-0.774190,10.041119,-0.005954,-0.006557,-0.006261,0.000000,0.000000,0.030518
2.084824,-0.165855,-0.768203,10.033934,0.002429,-0.000570,-0.013446,0.000000,0.000000,0.061035
2.094889,-0.164059,-0.769999,10.035132,0.004225,-0.002366,-0.012248,-0.030518,-0.030518,0.061035
2.104956,-0.161664,-0.777184,10.048304,0.006620,-0.009551,0.000924,-0.030518,-0.030518,0.061035
2.115028,-0.163460,-0.773591,10.045909,0.004824,-0.005958,-0.001471,0.000000,0.000000,0.030518
2.125094,-0.158670,-0.771795,10.041119,0.009614,-0.004162,-0.006261,0.000000,0.000000,0.030518
2.135161,-0.162263,-0.769999,10.046508,0.006021,-0.002366,-0.000872,0.000000,0.000000,0.030518
2.145228,-0.159269,-0.765807,10.042317,0.009015,0.001825,-0.005063,0.000000,-0.030518,0.030518
2.155295,-0.158670,-0.762215,10.045311,0.009614,0.005418,-0.002069,-0.030518,-0.030518,0.030518
2.165362,-0.165256,-0.767604,10.047706,0.003027,0.000029,0.000326,-0.061035,-0.030518,0.030518
2.175428,-0.172441,-0.775986,10.042916,-0.004158,-0.008353,-0.004464,-0.030518,0.000000,0.030518
2.185495,-0.170645,-0.778980,10.039922,-0.002361,-0.011347,-0.007458,-0.030518,0.000000,0.030518
2.195562,-0.170046,-0.772993,10.036928,-0.001763,-0.005360,-0.010452,-0.030518,0.000000,0.000000
2.205655,-0.167651,-0.770598,10.038126,0.000632,-0.002965,-0.009255,0.000000,0.000000,0.061035
2.215720,-0.171244,-0.769999,10.041718,-0.002960,-0.002366,-0.005662,0.000000,0.000000,0.061035
2.225785,-0.170645,-0.772394,10.036329,-0.002361,-0.004761,-0.011051,0.000000,0.000000,0.061035
2.235856,-0.171843,-0.769999,10.032138,-0.003559,-0.002366,-0.015242,0.000000,0.000000,0.091553
2.245927,-0.185614,-0.696951,10.042317,-0.017330,0.070682,-0.005063,0.000000,0.000000,0.274658
2.255993,-0.208367,-0.455054,10.047107,-0.040083,0.312579,-0.000273,-0.030518,-0.091553,1.251221
2.266063,-0.217348,-0.414338,10.080637,-0.049064,0.353295,0.033257,-0.152588,-0.366211,7.049561
2.276134,-0.185614,-0.674198,10.062675,-0.017330,0.093435,0.015294,-0.244141,-0.488281,9.521484
2.286199,-0.138911,-1.053809,10.039323,0.029373,-0.286176,-0.008057,-0.244141,-0.488281,9.857178
2.296270,-0.138312,-1.031056,10.032737,0.029971,-0.263423,-0.014643,-0.152588,-0.366211,7.781982
2.306342,-0.152084,-0.977168,10.039323,0.016200,-0.209535,-0.008057,0.000000,-0.274658,4.608154
2.316408,-0.195194,-1.103505,10.156679,-0.026910,-0.335872,0.109299,0.854492,-0.549316,3.265381
2.326478,-0.189207,-1.220861,10.166259,-0.020923,-0.453228,0.118879,2.868652,-1.220703,1.403809
2.336550,-0.099393,-1.154998,9.989626,0.068890,-0.387365,-0.057754,5.096436,-1.647949,-4.730225
2.346615,-0.090412,-0.993933,9.924961,0.077872,-0.226300,-0.122419,4.119873,-1.220703,-7.690430
2.356685,-0.123344,-0.767005,9.950707,0.044940,0.000628,-0.096673,-0.549316,0.915527,-12.664795
2.366757,-0.156275,-0.648452,10.002200,0.012009,0.119181,-0.045180,-1.678467,1.403809,-13.000488
2.376824,-0.155078,-0.600551,9.997410,0.013206,0.167082,-0.049970,-2.990723,1.953125,-11.291504
2.386895,-0.217348,-0.505349,10.101594,-0.049064,0.262284,0.054214,-2.441406,1.647949,-9.307861
2.396965,-0.206570,-0.564626,10.082433,-0.038287,0.203007,0.035053,-1.892090,1.281738,-7.232666
2.407030,-0.191003,-0.645458,10.075847,-0.022719,0.122175,0.028467,-1.129150,0.823975,-4.302979
2.417101,-0.190404,-0.677192,10.071656,-0.022120,0.090441,0.024276,-0.915527,0.671387,-3.387451
2.427172,-0.192200,-0.713716,10.062675,-0.023917,0.053917,0.015294,-0.610352,0.396729,-2.075195
2.437238,-0.224533,-0.743654,10.057286,-0.056249,0.023979,0.009906,-0.457764,0.335693,-1.678467
2.447310,-0.461640,-0.775986,10.059681,-0.293356,-0.008353,0.012301,-0.305176,0.244141,-1.861572
2.457383,-0.529299,-0.716111,10.056687,-0.361016,0.051522,0.009307,-0.274658,0.213623,-2.380371
2.467449,-0.325124,-0.708327,10.060280,-0.156840,0.059306,0.012899,-0.213623,0.183105,-2.655029
2.477521,-0.283810,-0.686772,10.058483,-0.115526,0.080861,0.011103,-0.061035,0.122070,-1.770020
2.487599,-0.431104,-0.673000,10.077643,-0.262820,0.094632,0.030263,0.030518,0.030518,-0.946045
2.497689,-0.449066,-0.657433,10.077643,-0.280782,0.110200,0.030263,0.183105,-0.152588,1.556396
2.507769,-0.373623,-0.673599,10.041119,-0.205339,0.094034,-0.006261,0.305176,-0.305176,2.685547
2.517842,-0.276625,-0.751437,10.027348,-0.108341,0.016196,-0.020032,0.091553,-0.152588,3.387451
2.527909,-0.323328,-0.808319,10.052496,-0.155044,-0.040686,0.005116,0.152588,-0.152588,3.448486
2.537982,-0.294587,-0.808319,10.064471,-0.126304,-0.040686,0.017091,0.091553,-0.183105,3.295898
2.548054,-0.311951,-0.710722,10.052496,-0.143667,0.056911,0.005116,0.152588,-0.244141,3.845215
2.558120,-0.296982,-0.680186,10.017768,-0.128699,0.087447,-0.029612,0.274658,-0.213623,4.089355
2.568193,-0.300575,-0.797542,10.054292,-0.132291,-0.029909,0.006912,0.000000,-0.061035,4.028320
2.578268,-0.368234,-0.770598,10.089619,-0.199950,-0.002965,0.042238,0.000000,-0.152588,3.631592
2.588334,-0.448467,-0.749042,10.029144,-0.280184,0.018591,-0.018236,-0.061035,-0.183105,3.631592
2.598406,-0.408351,-0.861608,10.039323,-0.240067,-0.093975,-0.008057,0.030518,-0.183105,2.899170
2.608478,-0.363444,-0.857417,10.048903,-0.195160,-0.089784,0.001523,0.122070,-0.244141,2.166748
2.618545,-0.399968,-0.814905,10.062675,-0.231684,-0.047272,0.015294,0.213623,-0.183105,1.190186
2.628616,-0.391586,-0.787961,10.018965,-0.223302,-0.020328,-0.028415,0.030518,-0.122070,0.122070
2.638689,-0.338297,-0.888552,10.054891,-0.170013,-0.120919,0.007511,-0.030518,-0.030518,-2.105713
2.648756,-0.365839,-0.913101,10.025552,-0.197555,-0.145468,-0.021828,0.152588,-0.122070,-3.417969
2.658830,-0.402962,-0.933459,10.010583,-0.234678,-0.165826,-0.036797,0.183105,-0.030518,-5.462646
2.668901,-0.450862,-0.832269,10.045311,-0.282579,-0.064636,-0.002069,-0.366211,-0.091553,-5.798340
2.678967,-0.423918,-0.905317,10.085427,-0.255635,-0.137684,0.038047,-1.007080,0.061035,-7.293701
2.689040,-0.329914,-0.934656,10.080038,-0.161630,-0.167023,0.032658,-0.305176,0.000000,-8.392334
2.699112,-0.230521,-0.945434,9.999207,-0.062237,-0.177801,-0.048174,0.518799,-0.152588,-9.277344
2.709179,-0.155078,-1.046624,10.059681,0.013206,-0.278991,0.012301,0.488281,0.183105,-12.176514
2.719250,-0.244891,-0.949026,10.034533,-0.076607,-0.181394,-0.012847,0.183105,0.366211,-13.732910
2.729322,-0.255668,-0.926873,10.092612,-0.087385,-0.159240,0.045232,1.342773,0.457764,-15.716553
2.739389,-0.389191,-0.729283,9.883048,-0.220907,0.038350,-0.164332,1.220703,0.579834,-16.693115
2.749461,-0.337698,-0.835862,10.009984,-0.169414,-0.068229,-0.037396,0.030518,0.732422,-19.470215
2.759533,-0.230521,-0.776585,10.023157,-0.062237,-0.008952,-0.024223,-0.061035,0.671387,-20.080566
2.769600,-0.395178,-0.698148,10.067465,-0.226894,0.069485,0.020084,-0.488281,0.579834,-19.744873
2.779671,-0.525707,-0.671204,10.029743,-0.357423,0.096429,-0.017637,-0.305176,0.518799,-17.395020
2.789743,-0.308359,-0.642464,10.068063,-0.140075,0.125169,0.020683,-0.122070,0.335693,-16.052246
2.799809,-0.318538,-0.665217,10.002200,-0.150254,0.102416,-0.045180,0.823975,0.213623,-12.512207
2.809884,-0.362845,-0.769400,10.086026,-0.194562,-0.001767,0.038646,0.671387,0.183105,-11.016846
2.819957,-0.329315,-0.817899,10.084828,-0.161031,-0.050266,0.037448,1.373291,0.091553,-8.575439
2.830024,-0.258662,-0.908311,10.072255,-0.090378,-0.140678,0.024875,1.037598,0.030518,-7.202148
2.840096,-0.190404,-0.907114,10.013577,-0.022120,-0.139481,-0.033803,1.647949,-0.030518,-6.652832
2.850169,0.032333,-0.875978,10.070458,0.200617,-0.108345,0.023078,0.549316,0.061035,-4.913330
2.860237,-0.068857,-0.631686,10.091415,0.099427,0.135947,0.044035,1.220703,0.152588,-4.241943
2.870310,-0.385598,-0.623903,10.051298,-0.217314,0.143730,0.003918,-0.122070,-0.122070,-0.457764
2.880383,-0.510738,-0.584984,10.060280,-0.342454,0.182649,0.012899,-0.335693,-0.213623,-0.396729
2.890450,-0.399968,-0.762814,10.051897,-0.231684,0.004819,0.004517,0.183105,0.000000,-1.251221
2.900526,-0.195194,-0.931064,10.067465,-0.026910,-0.163431,0.020084,-0.213623,0.305176,-2.288818
2.910599,-0.255070,-0.928669,9.978849,-0.086786,-0.161036,-0.068531,-0.671387,0.488281,-3.143311
2.920665,-0.536484,-1.035247,10.100995,-0.368201,-0.267614,0.053615,-0.091553,0.488281,-3.662109
2.930737,-0.378413,-0.558040,10.087822,-0.210129,0.209593,0.040442,0.701904,0.366211,-1.647949
2.940811,-0.435295,-0.665815,10.103989,-0.267011,0.101818,0.056609,-0.732422,-0.183105,2.136230
2.950878,-0.482596,-0.677192,10.063872,-0.314313,0.090441,0.016492,-1.861572,-0.701904,2.655029
2.960952,-0.505349,-0.807122,10.046508,-0.337065,-0.039489,-0.000872,-2.410889,-0.366211,-0.122070
2.971025,-0.344883,-0.919687,10.051298,-0.176599,-0.152055,0.003918,-1.831055,-0.091553,-0.854492
2.981092,-0.296982,-0.846639,10.111772,-0.128699,-0.079006,0.064392,-1.556396,0.122070,-0.457764
2.991165,-0.302371,-0.884960,10.030941,-0.134087,-0.117327,-0.016440,-1.037598,0.396729,0.885010
3.001284,-0.392184,-0.797542,10.129136,-0.223901,-0.029909,0.081756,-0.854492,0.427246,0.946045
3.011352,-0.466430,-0.892744,10.033934,-0.298146,-0.125111,-0.013446,-0.885010,0.457764,1.251221
3.021425,-0.509540,-0.924478,10.057286,-0.341257,-0.156845,0.009906,-0.976562,0.457764,2.044678
3.031496,-0.608335,-0.933459,10.019564,-0.440051,-0.165826,-0.027816,-0.152588,0.030518,3.479004
3.041572,-0.421523,-0.848436,10.039323,-0.253240,-0.080803,-0.008057,-0.183105,-0.030518,4.699707
3.051651,-0.396376,-0.831671,10.062675,-0.228092,-0.064038,0.015294,0.030518,-0.305176,5.798340
3.061718,-0.132924,-0.868793,10.030941,0.035360,-0.101160,-0.016440,-0.640869,-0.518799,6.958008
3.071782,-0.032333,-0.892145,10.062675,0.135951,-0.124512,0.015294,0.244141,-0.671387,6.195068
3.081845,-0.257465,-0.887953,10.018367,-0.089181,-0.120321,-0.029013,1.525879,-0.732422,5.767822
3.091911,-0.198188,-0.952020,10.007589,-0.029904,-0.184387,-0.039791,1.556396,-0.732422,5.798340
3.101983,-0.079036,-0.805924,10.021959,0.089248,-0.038291,-0.025421,-0.274658,-1.190186,6.713867
3.112051,-0.173639,-0.762215,9.975855,-0.005355,0.005418,-0.071525,-0.091553,-1.251221,6.927490
3.122121,-0.025746,-0.641865,10.005194,0.142537,0.125768,-0.042186,-0.122070,-1.098633,7.385254
3.132193,-0.225132,-0.785566,10.048304,-0.056848,-0.017933,0.000924,0.091553,-1.220703,7.598877
3.142261,-0.188009,-0.805924,9.990225,-0.019725,-0.038291,-0.057155,0.732422,-1.098633,7.873535
3.152328,-0.272433,-0.849034,10.129735,-0.104150,-0.081401,0.082355,1.098633,-1.220703,9.277344
3.162395,-0.362845,-0.579595,10.155482,-0.194562,0.188038,0.108101,1.495361,-1.220703,9.643555
3.172460,-0.424517,-0.448467,10.022558,-0.256233,0.319166,-0.024822,1.647949,-0.549316,11.383057
3.182527,0.015568,-0.586181,9.998009,0.183851,0.181452,-0.049371,2.075195,-0.335693,10.375977
3.192593,-0.117955,-0.503553,10.016570,0.050329,0.264080,-0.030810,1.403809,-0.305176,8.544922
3.202660,-0.265248,-0.778980,10.042916,-0.096965,-0.011347,-0.004464,0.701904,-0.213623,6.530762
3.212741,-0.111368,-0.718506,9.999207,0.056915,0.049127,-0.048174,-0.183105,0.183105,6.774902
3.222806,-0.213157,-0.805924,10.021360,-0.044873,-0.038291,-0.026020,-1.037598,0.640869,6.530762
3.232872,-0.107776,-0.738864,10.160272,0.060508,0.028769,0.112891,-2.075195,0.823975,6.927490
3.242938,-0.102387,-0.711321,10.131531,0.065897,0.056312,0.084151,-3.753662,0.518799,7.659912
3.253004,-0.310155,-0.748444,9.957892,-0.141871,0.019189,-0.089488,-4.577637,0.335693,7.537842
3.263070,-0.205972,-0.650847,9.972263,-0.037688,0.116786,-0.075118,-4.608154,0.152588,6.195068
3.273140,0.021555,-0.677192,10.068662,0.189839,0.090441,0.021282,-3.448486,-0.549316,5.310059
3.283206,-0.268242,-0.848436,10.054891,-0.099958,-0.080803,0.007511,-2.624512,-0.823975,5.096436
3.293271,-0.034728,-1.016087,10.127939,0.133556,-0.248454,0.080559,-0.091553,-1.312256,3.967285
3.303337,-0.105980,-0.881367,10.078242,0.062304,-0.113734,0.030862,0.823975,-1.831055,4.455566
3.313403,-0.179626,-0.681982,10.085427,-0.011343,0.085651,0.038047,1.556396,-1.312256,7.629395
3.323471,0.008383,-0.679587,10.038724,0.176666,0.088046,-0.008656,1.159668,-1.373291,7.904053
3.333537,-0.259860,-0.585582,10.063273,-0.091576,0.182051,0.015893,1.678467,-0.854492,7.354736
3.343603,-0.204175,-0.802930,10.029743,-0.035892,-0.035297,-0.017637,0.793457,-0.274658,5.126953
3.353687,-0.180225,-0.923879,10.039922,-0.011941,-0.156246,-0.007458,1.098633,-0.030518,4.028320
3.363753,-0.211959,-0.899330,10.020762,-0.043675,-0.131697,-0.026618,1.617432,0.427246,2.807617
3.373818,-0.228126,-0.925076,9.977053,-0.059842,-0.157443,-0.070328,1.922607,0.640869,3.295898
3.383937,-0.213755,-0.878972,9.960886,-0.045472,-0.111339,-0.086494,0.885010,0.427246,4.364014
3.394018,-0.365240,-0.749042,9.976454,-0.196957,0.018591,-0.070926,0.396729,0.396729,4.547119
3.404095,-0.231718,-0.811912,10.020762,-0.063434,-0.044279,-0.026618,-0.061035,0.640869,4.852295
3.414160,-0.207169,-0.777783,9.993818,-0.038885,-0.010150,-0.053562,0.427246,0.762939,4.486084
3.424225,-0.238903,-0.761017,10.050699,-0.070619,0.006615,0.003319,0.579834,0.701904,4.638672
3.434292,-0.228126,-0.687969,10.053693,-0.059842,0.079664,0.006313,-0.946045,0.671387,6.103516
3.444359,-0.288600,-0.656235,9.995614,-0.120316,0.111398,-0.051766,-0.885010,0.854492,6.530762
3.454426,-0.252675,-0.781974,10.066866,-0.084391,-0.014341,0.019486,0.152588,0.854492,5.126953
3.464491,-0.150287,-0.738265,10.056687,0.017996,0.029368,0.009307,1.312256,0.915527,4.425049
3.474557,-0.389789,-0.626896,10.033934,-0.221506,0.140737,-0.013446,0.305176,0.457764,6.164551
3.484623,-0.307161,-0.567620,10.020163,-0.138877,0.200013,-0.027217,0.030518,0.244141,6.622314
3.494689,-0.264650,-0.629890,10.042317,-0.096366,0.137743,-0.005063,-0.030518,0.152588,6.561279
3.504783,-0.098196,-0.805325,10.128538,0.070088,-0.037692,0.081157,-0.946045,0.122070,6.072998
3.514850,-0.179626,-0.703537,10.036928,-0.011343,0.064096,-0.010452,-0.762939,0.244141,5.340576
3.524916,-0.264650,-0.686173,10.077045,-0.096366,0.081460,0.029665,-0.091553,0.366211,3.692627
3.534983,-0.290995,-0.811912,10.007589,-0.122711,-0.044279,-0.039791,-0.671387,0.244141,3.540039
3.545049,-0.139510,-0.771196,10.093211,0.028774,-0.003563,0.045831,-1.098633,0.030518,1.617432
3.555115,-0.188608,-0.725092,10.122550,-0.020324,0.042541,0.075170,-1.220703,0.122070,0.396729
3.565181,-0.399370,-0.707728,10.126143,-0.231086,0.059905,0.078762,-1.861572,-0.305176,0.122070
3.575246,-0.077838,-0.752635,9.980645,0.090446,0.014998,-0.066735,-0.885010,-0.183105,-0.396729
3.585312,-0.158670,-0.800535,10.062076,0.009614,-0.032902,0.014696,-1.129150,-0.366211,-1.342773
3.595378,-0.477208,-0.713716,10.057885,-0.308924,0.053917,0.010504,-0.885010,-0.274658,-2.380371
3.605445,-0.384999,-0.710123,10.012978,-0.216716,0.057510,-0.034402,-0.549316,-0.030518,-1.861572
3.615509,-0.289199,-0.794548,10.088421,-0.120915,-0.026915,0.041041,-0.061035,0.000000,-1.037598
3.625577,-0.400567,-0.655637,10.105186,-0.232283,0.111996,0.057806,0.762939,0.213623,-0.244141
3.635642,-0.282014,-0.862207,9.948312,-0.113730,-0.094574,-0.099068,0.701904,0.183105,-0.671387
3.645707,-0.131726,-0.771795,10.168654,0.036558,-0.004162,0.121274,0.091553,-0.488281,-1.037598
3.655772,-0.324525,-0.950823,10.024354,-0.156241,-0.183190,-0.023026,-0.762939,-0.488281,0.305176
3.665837,-0.050894,-0.852627,10.047107,0.117390,-0.084994,-0.000273,2.441406,1.007080,0.091553
3.675901,-0.168849,-0.876577,10.111772,-0.000565,-0.108944,0.064392,2.593994,1.220703,-0.885010
3.685966,-0.431702,-0.811313,10.018367,-0.263418,-0.043680,-0.029013,3.692627,1.495361,2.868652
3.696031,-0.177231,-0.657433,10.035132,-0.008948,0.110200,-0.012248,2.838135,1.220703,3.875732
3.706096,-0.313149,-0.394579,10.066267,-0.144865,0.373053,0.018887,2.044678,1.220703,2.166748
3.716162,-0.256866,-0.606539,10.052496,-0.088582,0.161094,0.005116,-0.396729,0.701904,2.105713
3.726226,-0.210163,-0.362845,10.166858,-0.041879,0.404787,0.119478,-0.091553,0.610352,2.532959
3.736291,-0.247286,-0.869991,10.118958,-0.079002,-0.102358,0.071577,-1.800537,0.061035,-0.244141
3.746356,-0.071252,-0.173639,10.180629,0.097032,0.593994,0.133249,-2.227783,-0.457764,-0.122070
3.756421,-0.424517,-0.807720,10.141710,-0.256233,-0.040087,0.094330,-3.662109,-1.861572,-0.885010
3.766486,-0.192200,-0.848436,10.146500,-0.023917,-0.080803,0.099120,-2.838135,-1.770020,-3.234863
3.776551,0.000599,-0.808319,10.096804,0.168883,-0.040686,0.049423,-1.373291,-1.464844,-3.417969
3.786616,-0.412542,-0.792153,10.003398,-0.244258,-0.024520,-0.043982,-0.305176,-1.312256,-0.152588
3.796681,-0.383802,-0.789758,10.053094,-0.215518,-0.022125,0.005714,0.152588,-0.946045,1.312256
3.806746,-0.245490,-0.887953,9.884844,-0.077206,-0.120321,-0.162536,-1.617432,-0.579834,0.061035
3.816813,-0.285606,-0.813708,9.966275,-0.117322,-0.046075,-0.081105,-1.525879,-0.274658,-0.366211
3.826878,-0.365240,-1.227448,9.932146,-0.196957,-0.459815,-0.115234,1.220703,0.762939,-0.244141
3.836945,0.037123,-0.938249,10.101594,0.205407,-0.170616,0.054214,2.105713,1.281738,0.366211
3.847010,-0.319735,-0.786764,10.088421,-0.151451,-0.019131,0.041041,1.098633,0.976562,0.213623
3.857076,-0.314945,-0.853226,10.127939,-0.146661,-0.085593,0.080559,1.037598,0.610352,-1.831055
3.867141,0.005988,-0.813109,10.211765,0.174271,-0.045476,0.164384,1.464844,0.427246,-3.295898
3.877207,-0.753832,-0.490979,9.981244,-0.585549,0.276654,-0.066136,-0.122070,0.000000,-3.601074
3.887273,-0.529299,-0.626896,10.036329,-0.361016,0.140737,-0.011051,0.793457,-0.061035,-4.669189
3.897338,-0.304766,-0.714315,10.015373,-0.136482,0.053318,-0.032007,-1.342773,-0.152588,-7.171631
3.907403,-0.253273,-0.656235,9.995015,-0.084990,0.111398,-0.052365,-3.356934,-0.274658,-6.652832
3.917469,-0.619113,-0.824485,10.051897,-0.450829,-0.056853,0.004517,-2.990723,-0.152588,-7.507324
3.927535,-0.242496,-1.058599,10.011780,-0.074212,-0.290966,-0.035600,-0.305176,0.122070,-8.453369
3.937601,0.004191,-1.037043,10.123149,0.172475,-0.269411,0.075769,0.000000,-0.213623,-7.324219
3.947666,-0.675994,-1.013692,9.981843,-0.507710,-0.246059,-0.065537,-0.549316,-0.671387,-4.974365
3.957733,-0.302970,-1.180745,10.035132,-0.134686,-0.413112,-0.012248,0.213623,-0.579834,-5.371094
3.967798,-0.080233,-1.155597,10.056088,0.088051,-0.387964,0.008708,1.312256,-0.061035,-3.692627
3.977864,-0.438887,-0.985551,9.955497,-0.270604,-0.217918,-0.091883,2.166748,0.213623,-2.960205
3.987929,-0.064067,-0.636476,9.962682,0.104217,0.131157,-0.084698,1.159668,-0.030518,-1.770020
3.997995,-0.514330,-1.094524,10.089619,-0.346047,-0.326891,0.042238,-2.380371,0.823975,-4.058838
4.008060,-0.301174,-0.927471,10.175839,-0.132890,-0.159838,0.128459,-1.586914,0.976562,-4.089355
4.018127,-0.381407,-0.697549,10.081835,-0.213123,0.070084,0.034455,-1.007080,1.220703,-0.610352
4.028192,-0.420925,-0.675994,10.004595,-0.252641,0.091639,-0.042785,-0.488281,0.946045,0.671387
4.038258,-0.408351,-0.799338,10.020762,-0.240067,-0.031705,-0.026618,-1.770020,0.030518,0.122070
4.048323,-0.243094,-0.873583,10.136321,-0.074811,-0.105950,0.088941,-2.655029,-0.061035,1.617432
4.058388,-0.134720,-0.777184,10.042916,0.033564,-0.009551,-0.004464,-0.427246,0.091553,1.251221
4.068453,-0.092807,-0.856219,10.117760,0.075477,-0.088587,0.070380,-2.502441,0.305176,-1.983643
4.078518,-0.038919,-0.921484,10.137519,0.129365,-0.153851,0.090139,-1.495361,0.366211,-3.540039
4.088583,-0.041913,-1.094524,10.124945,0.126371,-0.326891,0.077565,1.586914,0.305176,-2.349854
4.098649,-0.103585,-1.007106,10.181827,0.064699,-0.239473,0.134447,2.136230,0.061035,-1.495361
4.108714,-0.116757,-0.647853,9.982441,0.051527,0.119780,-0.064939,0.701904,0.091553,1.007080
4.118779,-0.256267,-0.859812,9.921967,-0.087983,-0.092179,-0.125413,1.586914,0.061035,0.244141
4.128844,-0.135319,-0.676593,9.977053,0.032965,0.091040,-0.070328,2.105713,-0.274658,-0.244141
4.138910,-0.064666,-0.730481,10.048304,0.103618,0.037152,0.000924,1.037598,-0.183105,-0.518799
4.148975,0.042512,-0.801134,10.032138,0.210795,-0.033501,-0.015242,1.861572,-0.274658,-1.281738
4.159041,-0.260458,-0.880768,10.163265,-0.092175,-0.113135,0.115885,-0.030518,-0.427246,0.122070
4.169107,-0.263452,-0.326920,10.047107,-0.095168,0.440713,-0.000273,-0.610352,0.183105,-0.366211
4.179173,-0.263452,-0.635279,9.971065,-0.095168,0.132354,-0.076315,0.152588,0.305176,-0.091553
4.189238,-0.129331,-0.667612,10.222542,0.038953,0.100021,0.175162,-1.342773,0.274658,-1.251221
4.199304,-0.116757,-0.904719,10.208172,0.051527,-0.137086,0.160792,-1.403809,0.366211,-2.746582
4.209370,-0.104183,-0.947230,10.205777,0.064100,-0.179597,0.158397,0.579834,0.213623,-3.997803
4.219436,-0.013173,-0.719105,9.987231,0.155111,0.048528,-0.060149,0.762939,0.579834,-2.716064
4.229501,-0.022753,-0.780776,10.077045,0.145531,-0.013143,0.029665,-0.366211,0.335693,-4.119873
4.239567,-0.068857,-0.829874,10.061477,0.099427,-0.062241,0.014097,-0.030518,0.518799,-5.096436
4.249633,-0.172441,-1.035247,10.132130,-0.004158,-0.267614,0.084750,0.000000,-0.091553,-4.455566
4.259698,-0.031135,-0.900527,10.169253,0.137149,-0.132894,0.121873,-0.457764,-0.640869,-3.387451
4.269764,-0.064666,-0.907114,10.088421,0.103618,-0.139481,0.041041,-0.976562,-0.610352,-2.990723
4.279830,-0.143701,-0.871787,10.139315,0.024583,-0.104154,0.091935,-1.068115,-0.518799,-3.570557
4.289896,0.029938,-0.787363,10.003997,0.198222,-0.019730,-0.043384,-0.091553,-0.305176,-3.082275
4.299963,0.144899,-0.941243,10.206974,0.313182,-0.173610,0.159594,0.457764,-0.183105,-3.021240
4.310028,0.146096,-0.787363,10.132130,0.314380,-0.019730,0.084750,0.701904,0.091553,-3.265381
4.320094,0.327519,-0.625100,10.023157,0.495803,0.142533,-0.024223,0.732422,0.823975,-6.439209
4.330160,0.040715,-0.644260,10.090217,0.208999,0.123373,0.042837,0.488281,1.068115,-7.995605
4.340226,-0.065863,-0.637075,10.042916,0.102421,0.130558,-0.004464,1.007080,1.251221,-8.972168
4.350291,-0.022154,-0.784968,10.092014,0.146130,-0.017335,0.044633,-3.875732,0.976562,-8.666992
4.360358,0.189805,-0.770598,10.199789,0.358089,-0.002965,0.152409,-2.044678,0.885010,-8.850098
4.370425,-0.107177,-0.769400,9.992021,0.061107,-0.001767,-0.055359,-1.800537,0.701904,-6.927490
4.380489,-0.222737,-0.729882,10.058483,-0.054453,0.037751,0.011103,-1.708984,1.129150,-6.622314
4.390554,-0.237706,-0.644260,9.918973,-0.069422,0.123373,-0.128407,-1.403809,1.281738,-6.011963
4.400620,0.139510,-0.813708,10.047107,0.307794,-0.046075,-0.000273,-0.732422,1.251221,-4.699707
4.410686,-0.340093,-0.846041,9.997410,-0.171809,-0.078408,-0.049970,0.457764,1.220703,-4.638672
4.420752,-0.044907,-0.929866,9.915381,0.123377,-0.162233,-0.131999,2.105713,1.647949,-2.044678
4.430818,-0.219743,-0.986748,9.898616,-0.051459,-0.219115,-0.148764,0.213623,0.946045,-0.976562
4.440884,-0.449066,-0.877176,9.981843,-0.280782,-0.109543,-0.065537,2.380371,0.640869,1.678467
4.450949,-0.285606,-0.698747,10.031539,-0.117322,0.068886,-0.015841,1.159668,-0.183105,3.814697
4.461015,-0.211360,-0.938848,10.066866,-0.043077,-0.171215,0.019486,-1.098633,-0.701904,0.732422
4.471081,-0.259261,-0.898132,9.998608,-0.090977,-0.130499,-0.048772,-0.488281,-0.366211,-0.823975
4.481147,-0.036524,-0.802930,9.996213,0.131760,-0.035297,-0.051167,0.335693,-0.549316,-0.915527
4.491213,-0.096400,-0.749641,10.006392,0.071884,0.017992,-0.040989,0.091553,-0.793457,1.007080
4.501278,-0.451461,-0.793949,10.041119,-0.283177,-0.026316,-0.006261,0.091553,-1.007080,-0.366211
4.511344,-0.328716,-0.678389,9.985435,-0.160433,0.089244,-0.061945,1.251221,0.183105,1.708984
4.521410,-0.228126,-0.843646,10.084230,-0.059842,-0.076013,0.036850,0.854492,0.244141,2.502441
4.531476,-0.562231,-0.733475,10.040521,-0.393947,0.034158,-0.006859,0.701904,-0.122070,2.899170
4.541542,-0.270637,-0.625699,9.954899,-0.102353,0.141934,-0.092481,0.122070,0.122070,5.157471
4.551608,-0.160466,-0.964594,10.113569,0.007817,-0.196961,0.066189,-0.549316,-0.213623,6.103516
4.561674,-0.402962,-0.777184,9.995614,-0.234678,-0.009551,-0.051766,-1.495361,-0.061035,1.800537
4.571739,-0.203577,-0.907114,9.902807,-0.035293,-0.139481,-0.144573,-0.946045,0.549316,0.183105
4.581829,-0.326920,-0.804128,10.060280,-0.158636,-0.036495,0.012899,-1.098633,0.457764,-1.007080
4.591926,-0.149090,-0.819097,10.080637,0.019194,-0.051464,0.033257,-0.854492,0.457764,0.061035
4.602023,-0.560435,-0.760419,9.958491,-0.392151,0.007214,-0.088889,-0.732422,-0.061035,1.495361
4.612120,-0.159269,-0.835263,10.110575,0.009015,-0.067630,0.063195,-0.244141,-0.457764,1.953125
4.622217,-0.203577,-0.775388,10.126741,-0.035293,-0.007755,0.079361,0.152588,-0.366211,3.997803
4.632311,-0.620310,-0.802332,10.124945,-0.452026,-0.034699,0.077565,-0.427246,-0.579834,2.838135
4.642404,-0.421523,-0.859213,10.006392,-0.253240,-0.091580,-0.040989,-0.091553,0.183105,0.915527
4.652502,-0.038919,-0.849633,10.095606,0.129365,-0.082000,0.048226,2.014160,1.434326,-0.030518
4.662599,-0.171244,-0.915496,10.019564,-0.002960,-0.147863,-0.027816,2.288818,1.739502,-0.091553
4.672695,-0.570613,-0.587977,10.052496,-0.402330,0.179656,0.005116,1.068115,1.312256,0.610352
4.682792,-0.427511,-0.763412,10.106982,-0.259227,0.004220,0.059602,-0.701904,0.885010,0.885010
4.692888,-0.272433,-0.805924,10.026151,-0.104150,-0.038291,-0.021230,-1.129150,-0.213623,-1.770020
4.702985,-0.265248,-0.705932,9.996213,-0.096965,0.061701,-0.051167,-0.274658,0.030518,-3.204346
4.713081,-0.427511,-0.822689,9.962682,-0.259227,-0.055056,-0.084698,-0.305176,-0.488281,-2.593994
4.723178,-0.228724,-0.875978,10.145901,-0.060441,-0.108345,0.098521,-0.152588,-0.946045,-2.685547
4.733274,0.104782,-1.229244,9.968071,0.273066,-0.461611,-0.079309,1.068115,-0.244141,-1.953125
4.743371,-0.440085,-0.539478,10.045311,-0.271801,0.228155,-0.002069,-1.403809,-0.030518,0.061035
4.753468,-0.137115,-0.726290,10.145303,0.031169,0.041343,0.097923,-1.251221,-0.579834,-0.976562
4.763566,-0.045505,-0.749641,10.053094,0.122778,0.017992,0.005714,0.640869,-1.434326,-3.356934
4.773661,-0.116158,-0.746049,10.074650,0.052125,0.021584,0.027270,0.823975,-1.647949,-3.356934
4.783759,-0.300575,-0.792751,10.145901,-0.132291,-0.025119,0.098521,1.220703,-1.281738,-3.173828
4.793854,-0.262255,-0.536484,9.986034,-0.093971,0.231149,-0.061346,0.518799,-0.854492,-3.082275
4.803951,-0.613125,-0.543071,9.960886,-0.444841,0.224562,-0.086494,0.457764,-0.030518,-3.204346
4.814047,-0.025148,-0.662822,10.050101,0.143136,0.104811,0.002721,-0.061035,-0.335693,-3.967285
4.824143,-0.234113,-0.530497,9.990225,-0.065829,0.237136,-0.057155,0.885010,-0.152588,-5.004883
4.834240,-0.742456,-0.492775,9.857302,-0.574172,0.274858,-0.190078,-0.152588,0.213623,-3.051758
4.844336,-0.069456,-0.783171,10.032737,0.098828,-0.015538,-0.014643,-0.579834,0.427246,-2.563477
4.854432,-0.180225,-0.862207,10.025552,-0.011941,-0.094574,-0.021828,0.885010,1.068115,-2.105713
4.864528,-0.256866,-0.772993,10.166259,-0.088582,-0.005360,0.118879,1.251221,1.098633,-0.732422
4.874649,-0.060474,-0.947829,10.123748,0.107810,-0.180196,0.076367,2.838135,1.586914,-0.457764
4.884746,-0.620310,-0.711920,10.039323,-0.452026,0.055713,-0.008057,2.197266,1.007080,0.946045
4.894844,-0.256267,-0.607137,9.954899,-0.087983,0.160495,-0.092481,1.647949,0.610352,1.495361
4.904940,-0.338297,-0.711321,10.086625,-0.170013,0.056312,0.039245,-0.793457,-0.061035,2.319336
4.915036,-0.521516,-0.635878,10.160272,-0.353232,0.131755,0.112891,-2.502441,-0.030518,2.716064
4.925132,-0.113165,-0.709525,9.989626,0.055119,0.058108,-0.057754,-2.471924,-0.061035,-0.274658
4.935229,-0.088017,-0.846041,10.081835,0.080267,-0.078408,0.034455,-2.319336,-0.213623,-0.793457
4.945326,-0.450264,-0.813708,10.099199,-0.281980,-0.046075,0.051818,-2.563477,-0.152588,-0.885010
4.955422,-0.221539,-1.029858,10.083631,-0.053256,-0.262225,0.036251,-3.387451,0.488281,-1.312256
4.965519,-0.732277,-0.738864,9.939930,-0.563993,0.028769,-0.107450,-3.204346,0.976562,-2.410889
4.975612,-0.024549,-0.696951,10.029743,0.143735,0.070682,-0.017637,-3.021240,0.061035,-0.823975
4.985709,-0.656235,-0.720901,9.977053,-0.487952,0.046732,-0.070328,-2.410889,-0.274658,0.030518
4.995806,-0.636476,-0.795745,10.009385,-0.468193,-0.028112,-0.037995,-0.457764,-0.915527,-0.701904
5.005898,0.019160,-0.759820,10.054891,0.187444,0.007813,0.007511,0.305176,-0.305176,-0.305176
5.015995,-0.503553,-0.863405,9.963880,-0.335269,-0.095772,-0.083500,-0.762939,0.335693,-0.427246
5.026087,-0.177830,-0.755030,9.879456,-0.009546,0.012603,-0.167925,-0.427246,1.190186,-0.305176
5.036180,0.183818,-0.622106,10.061477,0.352102,0.145527,0.014097,0.854492,1.159668,-0.305176
5.046273,-0.552052,-0.350870,10.005793,-0.383768,0.416763,-0.041587,1.434326,1.312256,0.061035
5.056367,-0.193398,-0.498763,10.112371,-0.025114,0.268870,0.064991,0.701904,0.671387,0.823975
5.066459,-0.016765,-0.573607,10.024354,0.151519,0.194026,-0.023026,1.983643,-0.091553,4.364014
5.076582,-0.170046,-0.757425,9.999805,-0.001763,0.010208,-0.047575,2.288818,-0.396729,4.272461
5.086678,-0.157473,-0.858016,9.936337,0.010811,-0.090383,-0.111043,0.061035,-0.671387,5.035400
5.096771,-0.207768,-0.831072,10.108779,-0.039484,-0.063439,0.061399,0.030518,-0.701904,4.974365
5.106865,-0.123344,-0.737666,10.184222,0.044940,0.029967,0.136842,0.091553,-0.152588,5.065918
5.117106,-0.622705,-0.735271,9.954300,-0.454421,0.032362,-0.093080,-0.671387,0.457764,2.838135
5.127200,-0.234712,-0.762814,10.032138,-0.066428,0.004819,-0.015242,-0.701904,0.213623,2.258301
5.137322,-0.731678,-0.729882,10.027348,-0.563395,0.037751,-0.020032,1.129150,-0.396729,2.777100
5.147419,-0.522713,-0.889750,10.045909,-0.354429,-0.122117,-0.001471,0.305176,-1.037598,4.089355
5.157516,-0.047302,-0.823288,9.997410,0.120982,-0.055655,-0.049970,3.540039,-1.281738,0.427246
5.167609,-0.293390,-0.853824,10.066866,-0.125106,-0.086192,0.019486,2.502441,-1.495361,0.213623
5.177738,-0.343685,-0.813708,9.948312,-0.175402,-0.046075,-0.099068,1.373291,-1.007080,0.762939
5.187831,0.104183,-1.130449,9.996812,0.272467,-0.362816,-0.050569,0.854492,-0.335693,-1.373291
5.197926,-0.115560,-1.227448,9.990824,0.052724,-0.459815,-0.056556,-0.366211,0.427246,-1.373291
5.208019,-0.235311,-1.081351,9.972861,-0.067027,-0.313718,-0.074519,-0.762939,0.183105,-1.281738
5.218115,-0.167651,-1.054407,10.139315,0.000632,-0.286774,0.091935,-0.457764,-0.457764,0.701904
5.228207,-0.336500,-1.091530,10.064471,-0.168216,-0.323897,0.017091,-0.915527,-1.098633,5.340576
5.238303,-0.173040,-0.807720,10.042317,-0.004756,-0.040087,-0.005063,-1.708984,-2.288818,7.324219
5.248396,-0.215552,-0.701741,10.041718,-0.047268,0.065892,-0.005662,-0.488281,-1.464844,6.988525
5.258491,0.123344,-0.616718,10.091415,0.291627,0.150915,0.044035,-0.396729,-0.335693,7.568359
5.268584,-0.255668,-0.594564,9.947714,-0.087385,0.173069,-0.099666,-0.732422,0.762939,8.209229
5.278772,-0.037123,-0.889750,10.071057,0.131161,-0.122117,0.023677,-0.183105,1.861572,7.049561
5.288862,-0.226329,-0.855022,9.951306,-0.058046,-0.087389,-0.096074,0.579834,1.892090,7.476807
5.298951,0.010778,-0.832868,10.035731,0.179061,-0.065235,-0.011650,0.732422,1.220703,9.429932
5.309039,0.244292,-0.974174,10.025552,0.412576,-0.206541,-0.021828,1.312256,1.037598,7.110596
5.319126,0.009580,-0.783770,10.112970,0.177864,-0.016137,0.065590,0.366211,0.213623,4.516602
5.329214,-0.038320,-0.860411,9.984238,0.129963,-0.092778,-0.063142,1.098633,-0.061035,3.265381
5.339303,0.061672,-0.801134,9.936936,0.229956,-0.033501,-0.110444,0.366211,-0.183105,3.265381
5.349391,-0.134720,-0.796943,10.095007,0.033564,-0.029310,0.047627,0.701904,-0.671387,2.258301
5.359479,-0.085023,-0.804128,9.973460,0.083261,-0.036495,-0.073920,-0.061035,-0.732422,2.044678
5.369568,-0.301772,-0.811912,9.903406,-0.133489,-0.044279,-0.143974,0.976562,0.335693,2.044678
5.379680,0.089214,-0.803529,10.079440,0.257498,-0.035896,0.032060,1.190186,0.305176,3.570557
5.389771,-0.004191,-1.017883,10.091415,0.164093,-0.250250,0.044035,0.701904,0.305176,2.990723
5.399860,0.047900,-0.874781,10.060878,0.216184,-0.107148,0.013498,0.732422,0.152588,4.302979
5.409949,0.210762,-0.878972,10.075847,0.379046,-0.111339,0.028467,-0.183105,0.213623,4.455566
5.420037,0.071252,-0.900527,9.998009,0.239536,-0.132894,-0.049371,1.831055,1.037598,3.204346
5.430126,0.402363,-1.053809,10.015373,0.570647,-0.286176,-0.032007,0.854492,1.037598,4.547119
5.440215,0.122745,-0.599354,9.975855,0.291029,0.168279,-0.071525,1.770020,1.770020,8.514404
5.450303,0.028141,-0.574206,9.997410,0.196425,0.193427,-0.049970,0.274658,1.281738,7.446289
5.460393,0.164658,-0.447270,9.887838,0.332941,0.320363,-0.159542,-1.647949,1.373291,3.265381
5.470482,0.158670,-0.997526,10.095606,0.326954,-0.229893,0.048226,-1.678467,1.007080,1.800537
5.480635,-0.096400,-1.111289,10.046508,0.071884,-0.343656,-0.000872,0.335693,0.518799,2.105713
5.490737,0.186213,-0.831072,10.061477,0.354497,-0.063439,0.014097,1.129150,-0.244141,3.234863
5.500844,-0.199385,-0.517923,10.061477,-0.031102,0.249710,0.014097,1.892090,-0.244141,2.960205
5.510942,0.101788,-0.767604,10.081835,0.270072,0.000029,0.034455,-0.793457,-0.762939,3.662109
5.521039,0.109572,-0.877176,10.189611,0.277856,-0.109543,0.142230,0.549316,-0.335693,1.617432
5.531137,-0.160466,-0.804727,10.084230,0.007817,-0.037094,0.036850,1.922607,0.396729,2.868652
5.541235,-0.046104,-0.552052,10.073452,0.122180,0.215581,0.026072,2.197266,0.701904,4.089355
5.551333,-0.214354,-0.408950,10.057286,-0.046070,0.358683,0.009906,-1.922607,0.274658,3.784180
5.561431,-0.073048,-0.483195,10.078242,0.095236,0.284438,0.030862,-3.021240,0.030518,2.655029
5.571528,0.059875,-0.702339,9.931547,0.228159,0.065293,-0.115833,-3.814697,0.305176,1.892090
5.581665,0.076042,-0.453856,10.059681,0.244326,0.313777,0.012301,-2.380371,-1.190186,3.723145
5.591762,-0.038320,-0.541873,10.136920,0.129963,0.225760,0.089540,-2.166748,-1.678467,4.577637
5.601859,0.067061,-0.673000,10.138716,0.235344,0.094632,0.091336,-1.251221,-1.800537,2.258301
5.611955,-0.211360,-0.745450,10.119556,-0.043077,0.022183,0.072176,-1.007080,-1.556396,1.647949
5.622052,-0.162263,-0.834664,10.121951,0.006021,-0.067031,0.074571,-1.159668,-1.037598,-0.701904
5.632148,-0.084424,-0.872985,10.035132,0.083859,-0.105352,-0.012248,-0.061035,-0.976562,-1.159668
5.642246,-0.201182,-0.771795,10.039323,-0.032898,-0.004162,-0.008057,0.152588,-1.312256,-0.183105
5.652344,-0.319735,-0.926873,10.129735,-0.151451,-0.159240,0.082355,-0.366211,-1.800537,0.061035
5.662441,-0.187410,-0.838257,10.076446,-0.019126,-0.070624,0.029066,0.579834,-1.281738,0.061035
5.672538,-0.594564,-0.743055,9.995015,-0.426280,0.024578,-0.052365,0.640869,-0.579834,-0.366211
5.682661,-0.542472,-0.778381,10.004595,-0.374188,-0.010748,-0.042785,0.213623,-0.305176,-0.915527
5.692759,-0.252076,-0.647254,10.136321,-0.083792,0.120379,0.088941,1.068115,0.793457,1.556396
5.702856,-0.612526,-0.957409,10.053693,-0.444242,-0.189776,0.006313,1.068115,1.190186,0.762939
5.712953,-0.649050,-0.720901,10.085427,-0.480766,0.046732,0.038047,1.068115,1.312256,2.593994
5.723050,-0.553250,-0.816702,10.110575,-0.384966,-0.049069,0.063195,-0.366211,1.159668,1.922607
5.733147,-0.479603,-0.925076,10.130334,-0.311319,-0.157443,0.082954,-0.183105,0.762939,1.159668
5.743244,-0.601150,-0.723296,10.047107,-0.432866,0.044337,-0.000273,1.007080,0.762939,3.753662
5.753341,-0.586780,-0.819695,9.955497,-0.418496,-0.052062,-0.091883,0.579834,0.061035,4.608154
5.763439,-0.758622,-0.853226,10.080038,-0.590339,-0.085593,0.032658,0.122070,-0.854492,1.739502
5.773535,-0.247885,-0.841849,10.056088,-0.079601,-0.074216,0.008708,0.183105,-1.586914,2.868652
5.783659,-0.421523,-0.916095,10.130933,-0.253240,-0.148462,0.083553,0.579834,-1.739502,1.556396
5.793756,-0.581391,-0.873583,10.003997,-0.413107,-0.105950,-0.043384,0.823975,-1.312256,0.854492
5.803853,-0.339494,-0.837658,10.036329,-0.171210,-0.070025,-0.011051,0.579834,-0.671387,0.366211
5.813950,-0.264051,-0.751437,10.051298,-0.095767,0.016196,0.003918,-0.701904,-0.183105,1.312256
5.824047,-0.337099,-0.639470,10.075248,-0.168815,0.128163,0.027868,-1.617432,0.000000,1.373291
5.834144,-0.499362,-0.512534,9.969868,-0.331078,0.255099,-0.077513,-1.983643,0.274658,0.854492
5.844241,-0.498763,-0.742456,10.024953,-0.330479,0.025177,-0.022427,-2.258301,0.793457,1.373291
5.854338,0.044308,-0.996328,10.003997,0.212592,-0.228695,-0.043384,-0.213623,2.014160,2.532959
5.864434,-0.617915,-0.783770,10.021959,-0.449631,-0.016137,-0.025421,-1.739502,1.800537,3.326416
5.874532,-0.149090,-0.772394,10.044712,0.019194,-0.004761,-0.002668,-1.922607,1.312256,3.204346
5.884654,0.019160,-0.640668,10.008787,0.187444,0.126965,-0.038593,-1.220703,1.068115,3.967285
5.894750,-0.096400,-0.576002,10.060878,0.071884,0.191631,0.013498,-1.373291,0.823975,4.302979
5.904848,0.005988,-0.711920,9.998608,0.174271,0.055713,-0.048772,-0.427246,0.152588,1.678467
5.914944,0.077239,-0.602347,10.236313,0.245523,0.165286,0.188933,-0.152588,0.183105,0.457764
5.925040,0.039518,-0.736469,10.174043,0.207802,0.031164,0.126663,0.976562,0.274658,-3.173828
5.935137,0.177830,-0.581990,10.021360,0.346114,0.185643,-0.026020,0.885010,0.366211,-6.286621
5.945235,-0.294587,-0.853824,10.117161,-0.126304,-0.086192,0.069781,-0.396729,0.152588,-3.845215
5.955333,-0.128134,-0.633483,10.113569,0.040150,0.134150,0.066189,-0.213623,0.946045,-5.981445
5.965429,-0.558040,-0.840652,9.882449,-0.389756,-0.073019,-0.164931,0.427246,0.976562,-6.195068
5.975527,-0.086221,-1.231040,10.146500,0.082063,-0.463407,0.099120,2.471924,0.701904,-7.232666
5.985656,-0.582589,-0.945434,10.009984,-0.414305,-0.177801,-0.037396,1.373291,-0.244141,-4.302979
5.995749,-0.163460,-0.881966,10.026151,0.004824,-0.114333,-0.021230,1.373291,0.122070,-5.676270
6.005848,-0.239502,-1.080753,10.209968,-0.071218,-0.313120,0.162588,-0.457764,-0.488281,-6.042480
6.015947,-0.653242,-0.825084,10.017768,-0.484958,-0.057451,-0.029612,-0.488281,-0.671387,-6.927490
6.026046,-0.271835,-0.480201,9.962682,-0.103551,0.287432,-0.084698,0.091553,-0.427246,-8.575439
6.036140,-0.173639,-0.790955,10.186018,-0.005355,-0.023322,0.138638,0.183105,-0.549316,-8.850098
6.046234,-0.215552,-0.950224,10.087822,-0.047268,-0.182591,0.040442,-1.129150,-0.366211,-6.744385
6.056328,-0.245490,-0.843047,10.018367,-0.077206,-0.075414,-0.029013,0.213623,0.335693,-7.415771
6.066421,-0.386796,-0.919089,10.059681,-0.218512,-0.151456,0.012301,-1.403809,0.427246,-4.211426
6.076515,-0.182021,-0.738265,10.148297,-0.013738,0.029368,0.100916,-1.403809,0.823975,-5.004883
6.086609,-0.233514,-0.915496,10.166858,-0.065231,-0.147863,0.119478,0.244141,0.946045,-5.401611
6.096703,-0.164059,-1.051414,10.002799,0.004225,-0.283781,-0.044581,-0.244141,0.610352,-5.035400
6.106798,-0.124541,-0.655038,10.003997,0.043743,0.112595,-0.043384,0.732422,0.030518,-5.126953
6.116895,0.035327,-0.970582,10.200388,0.203610,-0.202949,0.153008,1.434326,0.244141,-3.875732
6.126988,-0.199984,-0.771795,9.947115,-0.031700,-0.004162,-0.100265,0.152588,0.427246,-0.427246
6.137084,-0.416135,-1.254391,9.995614,-0.247851,-0.486759,-0.051766,0.122070,0.396729,-1.098633
6.147179,-0.079634,-1.338816,9.881252,0.088649,-0.571183,-0.166128,0.305176,-0.457764,0.549316
6.157276,0.000000,-0.711920,9.898616,0.168284,0.055713,-0.148764,-0.091553,-0.610352,1.922607
6.167370,-0.556842,-0.555645,9.923165,-0.388558,0.211988,-0.124215,-1.831055,-1.098633,1.098633
6.177466,0.055684,-0.349074,9.981843,0.223968,0.418559,-0.065537,-1.617432,-1.007080,-2.166748
6.187560,-0.274828,-0.574805,10.098600,-0.106545,0.192828,0.051220,-1.953125,-1.037598,-8.483887
6.197655,-0.330513,-0.594564,10.115365,-0.162229,0.173069,0.067985,-0.976562,-0.549316,-10.925293
6.207748,-1.093925,-0.767005,10.113569,-0.925641,0.000628,0.066189,1.098633,0.640869,-11.474609
6.217842,-0.243693,-0.784968,10.096804,-0.075409,-0.017335,0.049423,0.488281,0.701904,-10.345459
6.227936,0.325124,-0.862207,10.004595,0.493408,-0.094574,-0.042785,0.000000,0.793457,-10.833740
6.238028,-0.840652,-0.745450,10.030941,-0.672368,0.022183,-0.016440,-0.610352,0.854492,-10.803223
6.248122,-0.489183,-0.953218,10.159074,-0.320899,-0.185585,0.111694,-0.457764,0.946045,-7.659912
6.258215,0.195793,-0.925076,10.197394,0.364077,-0.157443,0.150014,0.610352,1.220703,-6.011963
6.268309,0.081431,-1.207689,10.083631,0.249714,-0.440056,0.036251,0.579834,0.915527,-6.469727
6.278406,0.296982,-0.956212,10.047706,0.465266,-0.188579,0.000326,0.061035,0.122070,-9.124756
6.288499,0.095801,-0.898132,9.965078,0.264085,-0.130499,-0.082303,-0.732422,0.274658,-11.169434
6.298596,-0.165256,-0.808319,10.022558,0.003027,-0.040686,-0.024822,-1.495361,0.671387,-10.406494
6.308691,0.077838,-0.913700,10.012978,0.246122,-0.146067,-0.034402,-2.014160,0.427246,-9.429932
6.318787,0.222138,-0.731080,10.082433,0.390422,0.036553,0.035053,-1.342773,0.549316,-7.690430
6.328884,-0.032333,-0.831072,9.895622,0.135951,-0.063439,-0.151758,-1.129150,0.701904,-6.805420
6.338981,-0.096400,-0.943638,10.160272,0.071884,-0.176005,0.112891,-1.770020,0.518799,-5.859375
6.349077,-0.065264,-1.068179,10.017768,0.103020,-0.300546,-0.029612,0.274658,-0.518799,-2.960205
6.359174,0.240699,-0.786764,10.022558,0.408983,-0.019131,-0.024822,0.762939,-0.030518,-2.929688
6.369272,-0.279619,-0.749042,9.906998,-0.111335,0.018591,-0.140382,1.281738,-0.030518,-6.042480
6.379370,-0.285606,-0.762215,10.062076,-0.117322,0.005418,0.014696,0.213623,-0.030518,-6.713867
6.389494,0.174238,-0.892145,9.992021,0.342521,-0.124512,-0.055359,0.457764,-0.854492,-6.958008
6.399592,-0.756227,-0.726888,10.018367,-0.587944,0.040745,-0.029013,-0.244141,-1.342773,-4.638672
6.409689,-0.008981,-0.752635,9.836944,0.159302,0.014998,-0.210436,-0.610352,-0.762939,-5.340576
6.419785,-0.314945,-0.753234,9.959090,-0.146661,0.014399,-0.088290,0.000000,-0.122070,-5.096436
6.429882,-0.148491,-0.738265,10.098001,0.019793,0.029368,0.050621,0.305176,-0.213623,-3.051758
6.439976,0.007185,-0.633483,9.995015,0.175469,0.134150,-0.052365,1.342773,0.396729,-3.967285
6.450072,-0.219743,-0.526306,10.048903,-0.051459,0.241327,0.001523,0.732422,1.403809,-5.615234
6.460166,-0.415536,-0.715512,9.962084,-0.247252,0.052121,-0.085296,-1.281738,1.586914,-5.950928
6.470263,0.032932,-0.842448,10.105785,0.201215,-0.074815,0.058405,-1.953125,1.037598,-6.408691
6.480360,-0.005988,-0.860411,10.200987,0.162296,-0.092778,0.153607,-1.922607,0.579834,-7.598877
6.490484,-0.332908,-0.675994,10.092612,-0.164624,0.091639,0.045232,-0.701904,0.732422,-8.331299
6.500581,-0.198188,-0.548459,10.058483,-0.029904,0.219173,0.011103,-0.274658,0.335693,-6.103516
6.510678,-0.095801,-0.575403,10.012978,0.072483,0.192230,-0.034402,0.823975,-0.030518,-6.958008
6.520774,-0.020358,-0.492775,9.862690,0.147926,0.274858,-0.184690,0.274658,-0.335693,-10.375977
6.530870,-0.507145,-0.723895,10.107581,-0.338862,0.043738,0.060201,-0.854492,-1.373291,-6.622314
6.540967,-0.274230,-0.695753,9.952504,-0.105946,0.071880,-0.094876,-0.152588,-1.281738,-3.173828
6.551064,0.100591,-0.859812,9.838141,0.268875,-0.092179,-0.209239,-0.518799,-1.770020,-2.349854
6.561161,-0.193398,-0.611927,10.083631,-0.025114,0.155705,0.036251,-0.640869,-1.190186,-2.655029
6.571257,0.207768,-0.846639,10.008188,0.376052,-0.079006,-0.039192,0.701904,-0.335693,-2.777100
6.581352,-0.342488,-0.708926,10.026749,-0.174204,0.058707,-0.020631,-2.746582,0.762939,-1.037598
6.591475,0.284409,-1.055006,10.172247,0.452692,-0.287373,0.124867,-1.586914,0.640869,-1.464844
6.601572,-0.090412,-0.950224,10.033336,0.077872,-0.182591,-0.014045,-0.671387,0.091553,0.366211
6.611669,-0.091609,-0.835862,10.057885,0.076674,-0.068229,0.010504,-0.762939,-0.061035,1.190186
6.621765,0.090412,-1.031655,10.115365,0.258696,-0.264022,0.067985,0.122070,-0.427246,1.739502
6.631862,-0.314945,-0.792751,9.927955,-0.146661,-0.025119,-0.119425,0.457764,-0.457764,1.800537
6.641960,-0.331111,-0.872386,10.017768,-0.162828,-0.104753,-0.029612,-0.793457,-0.610352,2.502441
6.652057,0.106578,-1.121468,10.003997,0.274862,-0.353835,-0.043384,0.000000,0.213623,4.119873
6.662153,-0.225731,-1.094524,10.175839,-0.057447,-0.326891,0.128459,0.457764,0.701904,3.387451
6.672251,-0.374821,-1.004112,9.966275,-0.206537,-0.236479,-0.081105,0.671387,1.068115,6.072998
6.682347,-0.383203,-1.028661,9.871672,-0.214919,-0.261028,-0.175708,0.000000,0.793457,6.988525
6.692465,-0.223934,-0.826880,9.939331,-0.055651,-0.059248,-0.108049,-2.777100,0.335693,7.507324
6.702563,-0.259860,-0.875380,10.044113,-0.091576,-0.107747,-0.003267,-4.241943,0.457764,6.652832
6.712660,-0.080233,-1.035247,10.065070,0.088051,-0.267614,0.017689,-4.089355,1.129150,5.432129
6.722756,-0.270038,-0.792153,10.245295,-0.101755,-0.024520,0.197915,-2.410889,0.488281,8.178711
6.732853,-0.155676,-1.074765,10.159074,0.012608,-0.307132,0.111694,-0.152588,0.610352,9.277344
6.742950,-0.425715,-0.851429,10.040521,-0.257431,-0.083796,-0.006859,1.251221,-0.091553,6.439209
6.753046,0.219144,-0.859213,10.068063,0.387428,-0.091580,0.020683,1.983643,-0.915527,6.683350
6.763143,-0.174836,-0.882565,10.161469,-0.006553,-0.114932,0.114089,0.152588,0.030518,5.615234
6.773237,-0.411943,-0.992736,10.120155,-0.243660,-0.225103,0.072775,0.518799,0.946045,5.004883
6.783334,-0.245490,-1.134641,9.967473,-0.077206,-0.367008,-0.079908,1.464844,-0.396729,5.218506
6.793461,-0.456251,-0.692161,9.981244,-0.287967,0.075472,-0.066136,1.800537,-0.579834,5.493164
6.803556,-0.513133,-0.674797,9.968071,-0.344849,0.092836,-0.079309,2.258301,0.000000,4.638672
6.813653,-0.062271,-0.797542,10.035132,0.106013,-0.029909,-0.012248,-0.427246,0.061035,7.293701
6.823750,-0.126936,-0.699944,10.044113,0.041348,0.067688,-0.003267,-0.640869,-0.183105,5.310059
6.833848,0.175435,-0.818498,10.032138,0.343719,-0.050865,-0.015242,2.655029,0.640869,1.861572
6.843944,-0.059875,-0.789758,10.020163,0.108408,-0.022125,-0.027217,1.861572,0.427246,3.570557
6.854041,-0.517923,-0.513732,9.918375,-0.349639,0.253901,-0.129005,-0.366211,0.061035,3.845215
6.864140,0.031734,-0.808319,9.989028,0.200018,-0.040686,-0.058352,-0.427246,0.030518,1.312256
6.874239,0.295186,-0.855621,10.151290,0.463470,-0.087988,0.103910,-0.549316,-0.396729,-0.610352
6.884337,-0.248483,-0.952020,10.146500,-0.080199,-0.184387,0.099120,-0.823975,-0.885010,-1.678467
6.894463,-0.029339,-0.929268,10.220746,0.138945,-0.161635,0.173366,-0.396729,-1.037598,-0.823975
6.904560,-0.154479,-0.896336,10.033934,0.013805,-0.128703,-0.013446,-1.098633,0.640869,0.213623
6.914657,0.178429,-1.262774,10.158475,0.346713,-0.495141,0.111095,-0.518799,0.915527,1.312256
6.924755,-0.248483,-1.224454,9.970466,-0.080199,-0.456821,-0.076914,5.859375,2.105713,0.061035
6.934851,-0.277224,-0.845442,9.939331,-0.108940,-0.077809,-0.108049,1.922607,0.335693,5.371094
6.944948,-0.568218,-0.547861,9.965676,-0.399935,0.219772,-0.081704,0.030518,-0.183105,9.307861
6.955045,-0.311951,-0.413740,10.014175,-0.143667,0.353893,-0.033205,0.152588,-0.457764,6.713867
6.965142,0.165855,-0.409548,10.098600,0.334139,0.358085,0.051220,-1.220703,-0.976562,6.622314
6.975239,-0.452659,-0.507145,10.061477,-0.284375,0.260488,0.014097,-1.037598,0.122070,3.356934
6.985336,-0.000599,-0.741857,9.901609,0.167685,0.025776,-0.145771,-2.105713,1.373291,0.366211
6.995458,-0.147892,-0.689766,9.960886,0.020391,0.077867,-0.086494,-4.302979,1.586914,1.983643
7.005555,-0.327519,-0.741259,10.148895,-0.159235,0.026374,0.101515,-2.838135,0.305176,2.563477
7.015652,0.114961,-0.593965,10.088421,0.283245,0.173668,0.041041,-0.671387,-0.213623,0.030518
7.025745,-0.622705,-0.747845,10.136321,-0.454421,0.019788,0.088941,-0.976562,-0.427246,0.122070
7.035843,-0.200583,-0.722098,10.032737,-0.032299,0.045535,-0.014643,-0.274658,-0.305176,0.366211
7.045937,-0.162263,-0.623903,10.279424,0.006021,0.143730,0.232044,-0.762939,-0.488281,3.051758
7.056031,-0.308359,-0.746049,10.120754,-0.140075,0.021584,0.073374,0.915527,-0.793457,1.922607
7.066125,-0.161664,-0.729283,9.968071,0.006620,0.038350,-0.079309,1.281738,-1.800537,3.387451
7.076218,0.259261,-0.857417,10.189012,0.427545,-0.089784,0.141632,1.617432,-1.861572,3.387451
7.086313,-0.216151,-0.748444,10.089619,-0.047867,0.019189,0.042238,-1.068115,-1.525879,0.152588
7.096407,0.244292,-0.835263,10.126143,0.412576,-0.067630,0.078762,-0.671387,-1.342773,0.793457
7.106501,0.310155,-0.816103,10.170450,0.478439,-0.048470,0.123070,-1.251221,-0.885010,2.349854
7.116595,-0.453856,-0.711920,9.971664,-0.285572,0.055713,-0.075716,-0.579834,0.152588,1.403809
7.126692,-0.076042,-0.758024,10.127939,0.092242,0.009609,0.080559,-1.617432,0.854492,1.525879
7.136788,-0.155676,-0.623304,9.963880,0.012608,0.144329,-0.083500,-2.014160,0.946045,2.929688
7.146882,-0.191602,-0.940644,10.141710,-0.023318,-0.173011,0.094330,-1.983643,0.946045,2.380371
7.156976,0.169448,-0.718506,10.192006,0.337731,0.049127,0.144625,3.021240,2.227783,4.943848
7.167070,-0.183818,-0.920286,10.060280,-0.015534,-0.152653,0.012899,1.708984,1.434326,6.164551
7.177167,-0.274230,-0.816702,10.011780,-0.105946,-0.049069,-0.035600,0.610352,1.159668,4.547119
7.187261,-0.014969,-1.075364,9.677076,0.153315,-0.307731,-0.370304,2.685547,1.525879,3.570557
7.197382,-0.726290,-0.813708,9.829160,-0.558006,-0.046075,-0.218220,1.281738,0.823975,4.669189
7.207477,-0.072449,-1.045426,10.040521,0.095834,-0.277793,-0.006859,-1.373291,-0.671387,4.333496
7.217573,-0.362845,-1.228645,10.080637,-0.194562,-0.461012,0.033257,-0.732422,-0.732422,3.814697
7.227667,-0.566422,-1.051414,9.917177,-0.398138,-0.283781,-0.130203,-0.213623,-1.525879,5.981445
7.237763,-0.240101,-1.091530,10.037527,-0.071817,-0.323897,-0.009853,-1.220703,-1.953125,5.828857
7.247856,-0.211360,-0.786165,10.054292,-0.043077,-0.018532,0.006912,-1.037598,-1.403809,6.164551
7.257953,0.055085,-1.254391,10.044113,0.223369,-0.486759,-0.003267,-0.762939,-0.488281,7.110596
7.268047,-0.170046,-0.981958,9.802216,-0.001763,-0.214325,-0.245164,-1.373291,0.152588,8.789062
7.278144,-0.052092,-0.822090,10.015972,0.116192,-0.054458,-0.031408,-0.518799,-0.244141,11.291504
7.288239,-0.166454,-0.748444,10.111772,0.001830,0.019189,0.064392,0.213623,-0.701904,14.038086
7.298362,0.326920,-0.688568,10.174043,0.495204,0.079065,0.126663,2.716064,-1.037598,12.512207
7.308456,-0.079036,-1.053210,10.064471,0.089248,-0.285577,0.017091,1.007080,-1.739502,12.512207
7.318551,-0.219743,-0.741857,9.975855,-0.051459,0.025776,-0.071525,0.732422,-1.892090,10.589600
7.328646,0.206570,-0.613125,10.111174,0.374854,0.154508,0.063794,1.892090,-1.220703,9.246826
7.338742,-0.173639,-0.741857,10.023755,-0.005355,0.025776,-0.023625,1.312256,-1.251221,8.026123
7.348839,0.107776,-0.699944,10.056088,0.276060,0.067688,0.008708,-0.549316,-2.044678,3.906250
7.358935,-0.020956,-0.878972,10.039922,0.147327,-0.111339,-0.007458,-0.885010,-2.288818,3.112793
7.369032,-0.120350,-0.937650,9.993818,0.047934,-0.170017,-0.053562,-1.892090,-0.854492,-0.213623
7.379126,-0.418530,-0.950823,10.074051,-0.250246,-0.183190,0.026671,-1.739502,0.000000,-1.495361
7.389224,-0.183219,-0.968785,9.997410,-0.014935,-0.201152,-0.049970,-0.335693,0.915527,-3.631592
7.399345,-0.292791,-0.869392,10.146500,-0.124507,-0.101759,0.099120,-1.342773,1.037598,-2.655029
7.409441,-0.625100,-0.869392,10.141710,-0.456816,-0.101759,0.094330,-2.014160,1.434326,-6.713867
7.419538,-0.432301,-1.282533,10.084828,-0.264017,-0.514900,0.037448,-4.089355,1.861572,-11.138916
7.429634,-0.157473,-1.034050,10.159673,0.010811,-0.266417,0.112293,-2.014160,1.739502,-11.138916
7.439731,-0.783171,-0.832269,9.988429,-0.614888,-0.064636,-0.058951,-3.295898,1.464844,-11.871338
7.449828,-0.462838,-0.484991,10.252480,-0.294554,0.282641,0.205100,-1.525879,0.701904,-10.803223
7.459926,-0.550854,-1.207090,9.957892,-0.382571,-0.439457,-0.089488,0.579834,0.274658,-10.437012
7.470022,-0.169448,-0.370031,10.050699,-0.001164,0.397602,0.003319,1.678467,-0.488281,-8.300781
7.480119,-0.351469,-1.200504,9.906400,-0.183185,-0.432871,-0.140981,2.197266,-1.892090,-7.995605
7.490215,-0.277224,-1.508862,10.345886,-0.108940,-0.741229,0.298506,1.739502,-0.976562,-14.373779
7.500339,-0.085023,-0.838856,9.831555,0.083261,-0.071223,-0.215825,6.286621,1.434326,-12.329102
7.510433,-0.888552,-0.470023,9.847722,-0.720268,0.297610,-0.199659,2.990723,1.464844,2.410889
7.520530,-0.692161,-1.304088,9.942924,-0.523877,-0.536455,-0.104457,1.251221,1.220703,1.373291
7.530626,0.156874,-1.144819,10.214758,0.325158,-0.377186,0.167378,-1.525879,-0.701904,-0.732422
7.540723,-0.678389,-0.820294,10.045311,-0.510105,-0.052661,-0.002069,-2.716064,0.427246,1.708984
7.550819,-0.344883,-0.743654,10.081835,-0.176599,0.023979,0.034455,-2.502441,1.647949,2.197266
7.560915,-0.547262,-0.850831,9.710607,-0.378978,-0.083198,-0.336773,-1.892090,1.098633,1.129150
7.571011,0.477806,-0.865201,10.540481,0.646090,-0.097568,0.493101,-1.831055,-4.272461,1.678467
7.581108,-0.614323,-0.471220,9.960287,-0.446039,0.296413,-0.087093,-0.854492,-2.197266,5.187988
7.591205,0.019759,-0.460443,9.897418,0.188043,0.307190,-0.149962,1.342773,-0.640869,4.913330
7.601328,-0.345482,-1.244811,10.071656,-0.177198,-0.477178,0.024276,-1.647949,-0.701904,1.678467
7.611425,-0.770598,-0.920286,10.156080,-0.602314,-0.152653,0.108700,-1.770020,-0.152588,2.777100
7.621521,-0.075443,-0.962798,9.968670,0.092841,-0.195165,-0.078710,-0.488281,1.190186,9.216309
7.631617,-0.622705,-1.279539,10.168055,-0.454421,-0.511906,0.120675,-1.281738,1.342773,9.704590
7.641715,0.209564,-0.566422,10.166858,0.377848,0.201211,0.119478,-1.678467,0.671387,11.505127
7.651813,-0.122146,-0.610730,10.162667,0.046138,0.156903,0.115287,-4.516602,0.640869,14.556885
7.661910,0.301772,-0.376018,10.079440,0.470056,0.391615,0.032060,-3.906250,1.037598,10.345459
7.672006,0.074246,-0.695154,10.303973,0.242529,0.072479,0.256593,-4.943848,0.213623,5.889893
7.682103,0.271835,-0.907114,10.056088,0.440119,-0.139481,0.008708,-2.227783,-0.366211,4.852295
7.692199,0.299377,-0.644859,10.097402,0.467661,0.122774,0.050022,0.061035,-1.617432,4.791260
7.702320,0.107177,-0.784369,10.074650,0.275461,-0.016736,0.027270,0.061035,-1.342773,5.218506
7.712417,0.541274,-0.855022,9.989028,0.709558,-0.087389,-0.058352,0.823975,-0.732422,5.432129
7.722515,-0.259261,-0.893342,10.042916,-0.090977,-0.125709,-0.004464,-2.349854,1.159668,2.441406
7.732613,-0.103585,-0.850232,10.012379,0.064699,-0.082599,-0.035001,-0.396729,1.525879,2.593994
7.742710,0.371827,-0.858615,9.985435,0.540111,-0.090982,-0.061945,2.380371,1.434326,5.798340
7.752806,0.156275,-0.937051,10.133328,0.324559,-0.169418,0.085948,2.990723,1.068115,4.760742
7.762903,0.389789,-0.936453,10.111174,0.558073,-0.168820,0.063794,1.495361,0.122070,3.387451
7.773001,-0.048499,-0.874182,10.072853,0.119785,-0.106549,0.025473,0.122070,-0.457764,2.258301
7.783098,0.137115,-0.966390,10.132130,0.305399,-0.198757,0.084750,-0.976562,-1.190186,0.366211
7.793194,0.117955,-1.063987,10.096205,0.286239,-0.296354,0.048825,-1.098633,-0.915527,0.610352
7.803316,0.013173,-1.016087,10.072255,0.181456,-0.248454,0.024875,0.396729,-0.671387,1.281738
7.813412,0.255668,-0.789758,10.001602,0.423952,-0.022125,-0.045779,0.854492,-0.762939,3.295898
7.823507,-0.074844,-0.850232,10.079440,0.093439,-0.082599,0.032060,-0.579834,-0.701904,3.082275
7.833604,0.476010,-1.204695,10.027348,0.644294,-0.437062,-0.020032,0.579834,0.610352,2.471924
7.843702,0.076641,-0.648452,9.972861,0.244924,0.119181,-0.074519,1.342773,1.159668,3.692627
7.853798,-0.006586,-0.878972,10.105785,0.161697,-0.111339,0.058405,-0.518799,0.793457,3.692627
7.863894,0.135917,-0.753234,10.108779,0.304201,0.014399,0.061399,-0.579834,0.610352,2.685547
7.873990,-0.129930,-0.819097,10.032737,0.038354,-0.051464,-0.014643,-0.091553,0.305176,2.960205
7.884087,-0.130529,-0.849633,10.011182,0.037755,-0.082000,-0.036198,-0.915527,-0.762939,1.617432
7.894184,-0.003593,-0.816103,10.024953,0.164691,-0.048470,-0.022427,-0.854492,-0.762939,0.305176
7.904307,-0.243693,-0.952619,10.032737,-0.075409,-0.184986,-0.014643,-0.762939,-0.854492,0.732422
7.914404,-0.417931,-0.902922,10.001003,-0.249647,-0.135289,-0.046377,-1.098633,-0.732422,2.349854
7.924502,0.049697,-0.793949,10.059082,0.217980,-0.026316,0.011702,-0.305176,-0.152588,1.190186
7.934599,-0.244292,-0.855022,10.133926,-0.076008,-0.087389,0.086546,-1.159668,0.152588,0.671387
7.944695,0.134720,-0.798739,10.020163,0.303004,-0.031106,-0.027217,-0.610352,1.068115,-0.335693
7.954792,-0.374222,-0.938249,10.078242,-0.205938,-0.170616,0.030862,1.129150,0.366211,-2.838135
7.964890,-0.198787,-0.887355,10.029743,-0.030503,-0.119722,-0.017637,1.770020,-0.122070,-1.922607
7.974988,-0.387993,-0.758024,9.974059,-0.219709,0.009609,-0.073321,1.678467,-0.640869,-2.655029
7.985085,-0.438289,-0.758622,9.988429,-0.270005,0.009011,-0.058951,0.946045,-1.373291,-2.624512
7.995183,-0.252076,-0.764610,9.994417,-0.083792,0.003023,-0.052964,0.518799,0.122070,-2.166748
8.005305,-0.311951,-0.732277,9.964479,-0.143667,0.035356,-0.082901,0.427246,-0.091553,-2.655029
8.015402,-0.327519,-0.725691,9.998608,-0.159235,0.041942,-0.048772,0.427246,-0.061035,-1.556396
8.025499,-0.310754,-0.894540,10.093810,-0.142470,-0.126907,0.046430,0.640869,0.396729,-1.037598
8.035596,-0.441282,-0.807720,10.148297,-0.272999,-0.040087,0.100916,-0.152588,0.488281,-2.685547
8.045690,-0.259261,-0.767604,10.120155,-0.090977,0.000029,0.072775,-1.281738,1.068115,-3.295898
8.055787,-0.208367,-0.723296,10.078242,-0.040083,0.044337,0.030862,-2.929688,1.678467,-2.990723
8.065884,-0.587977,-0.858615,9.921368,-0.419693,-0.090982,-0.126012,-0.335693,0.640869,-6.530762
8.075981,-0.317340,-0.964594,10.114167,-0.149056,-0.196961,0.066787,-0.244141,-0.366211,-5.584717
8.086078,-0.131127,-1.024470,10.054891,0.037156,-0.256837,0.007511,0.091553,-0.549316,-5.432129
8.096175,-0.370031,-0.710123,9.946516,-0.201747,0.057510,-0.100864,0.152588,-0.396729,-4.791260
8.106269,-0.181423,-0.856818,9.938732,-0.013139,-0.089185,-0.108648,0.823975,0.152588,-4.608154
8.116363,-0.395178,-0.916694,10.012379,-0.226894,-0.149061,-0.035001,2.624512,0.213623,-4.974365
8.126456,-0.167651,-0.922083,10.125544,0.000632,-0.154450,0.078164,2.014160,0.152588,-4.516602
8.136550,-0.210163,-0.923280,10.120155,-0.041879,-0.155647,0.072775,0.305176,0.946045,-3.997803
8.146643,-0.323926,-1.020877,10.046508,-0.155643,-0.253244,-0.000872,0.915527,0.976562,-3.356934
8.156762,-0.049098,-1.205294,10.045311,0.119186,-0.437661,-0.002069,2.410889,1.098633,-5.859375
8.166856,-0.196990,-1.002914,9.872271,-0.028707,-0.235281,-0.175110,2.655029,0.976562,-7.110596
8.176954,-0.089813,-1.217867,10.148895,0.078471,-0.450234,0.101515,1.770020,0.671387,-7.019043
8.187047,0.258662,-1.181343,10.024354,0.426946,-0.413710,-0.023026,3.021240,1.800537,-5.645752
8.197144,-0.246687,-0.757425,9.933344,-0.078403,0.010208,-0.114037,1.434326,1.647949,-5.737305
8.207237,-0.049697,-0.620310,10.095007,0.118587,0.147323,0.047627,1.281738,0.305176,-4.272461
8.217331,0.455652,-0.362845,9.896221,0.623936,0.404787,-0.151159,2.014160,0.396729,-4.882812
8.227426,-0.020358,-0.613724,9.974658,0.147926,0.153909,-0.072723,1.495361,0.000000,-7.232666
8.237523,-0.361049,-0.574206,9.921368,-0.192765,0.193427,-0.126012,-0.671387,-0.518799,-7.965088
8.247617,0.048499,-0.356259,9.924362,0.216783,0.411374,-0.123018,-0.122070,0.152588,-7.720947
8.257715,-0.056882,-1.006507,10.106384,0.111402,-0.238874,0.059004,-2.166748,0.000000,-12.878418
8.267809,-0.370031,-0.878972,10.135723,-0.201747,-0.111339,0.088343,-2.319336,-0.030518,-14.007568
8.277906,0.414937,-0.699346,10.034533,0.583221,0.068287,-0.012847,1.190186,0.579834,-10.742188
8.288001,-0.792153,-0.477208,10.153685,-0.623869,0.290425,0.106305,-0.488281,-0.579834,-8.514404
8.298094,-0.796943,-0.647254,9.942924,-0.628659,0.120379,-0.104457,2.960205,0.244141,-13.214111
8.308188,0.339494,-0.707728,10.033934,0.507778,0.059905,-0.013446,3.692627,0.854492,-14.373779
8.318284,-0.682581,-0.893941,10.017169,-0.514297,-0.126308,-0.030211,-0.762939,1.953125,-12.359619
8.328377,0.027543,-1.128054,9.913585,0.195827,-0.360421,-0.133796,0.335693,2.899170,-13.763428
8.338475,0.484393,-0.926873,9.890233,0.652677,-0.159240,-0.157147,-0.793457,1.647949,-11.962891
8.348569,-0.704136,-1.007106,10.154284,-0.535852,-0.239473,0.106904,-4.455566,0.457764,-12.512207
8.358666,-0.611329,-1.162183,9.951306,-0.443045,-0.394550,-0.096074,-5.157471,-0.122070,-15.563965
8.368761,0.171843,-1.477727,10.092612,0.340126,-0.710094,0.045232,-0.946045,0.427246,-16.845703
8.378858,-0.561033,-1.331631,10.027947,-0.392750,-0.563998,-0.019433,-2.227783,-0.244141,-11.840820
8.389006,-0.629291,-1.262774,9.972861,-0.461008,-0.495141,-0.074519,-4.333496,0.915527,-8.331299
8.400218,-0.172441,-1.225651,10.166259,-0.004158,-0.458018,0.118879,-3.906250,0.610352,-6.622314
8.410333,-0.429906,-1.133443,10.011182,-0.261622,-0.365810,-0.036198,-1.251221,-0.488281,-0.244141
8.420415,-0.172441,-0.901725,9.972263,-0.004158,-0.134092,-0.075118,0.579834,-1.098633,1.190186
8.430501,-0.086819,-0.859213,10.086625,0.081464,-0.091580,0.039245,1.098633,-1.373291,2.227783
8.440587,-0.062869,-0.862806,10.034533,0.105415,-0.095173,-0.012847,0.366211,-1.190186,3.875732
8.450673,-0.238304,-0.658630,10.061477,-0.070021,0.109003,0.014097,-0.152588,-1.037598,5.462646
8.460758,-0.101190,-0.614323,10.104587,0.067094,0.153310,0.057207,-1.098633,-0.213623,4.028320
8.470844,-0.107776,-0.695154,10.114167,0.060508,0.072479,0.066787,-1.037598,0.122070,3.204346
8.480930,-0.217348,-0.681982,9.911788,-0.049064,0.085651,-0.135592,-0.915527,0.457764,4.364014
8.491015,-0.209564,-1.013692,10.049502,-0.041280,-0.246059,0.002122,-0.366211,0.152588,3.631592
8.501102,-0.222737,-0.911305,9.937535,-0.054453,-0.143672,-0.109845,0.000000,0.091553,3.234863
8.511188,-0.211959,-0.771196,10.036329,-0.043675,-0.003563,-0.011051,-0.671387,0.061035,2.136230
8.521286,-0.161065,-0.807720,10.188413,0.007219,-0.040087,0.141033,-0.762939,0.122070,0.488281
8.531384,-0.474813,-0.943039,10.121951,-0.306529,-0.175406,0.074571,0.732422,-0.274658,-1.586914
8.541481,-0.328716,-0.968785,9.909393,-0.160433,-0.201152,-0.137987,1.159668,-0.274658,-3.479004
8.551578,-0.305365,-0.834066,10.005194,-0.137081,-0.066433,-0.042186,0.122070,-0.061035,-2.563477
8.561675,-0.702938,-0.920286,10.014774,-0.534654,-0.152653,-0.032606,-0.061035,-0.061035,-2.624512
8.571771,-0.337099,-1.020877,9.968071,-0.168815,-0.253244,-0.079309,0.640869,0.732422,-3.814697
8.581872,-0.310155,-0.692161,9.933344,-0.141871,0.075472,-0.114037,-0.030518,1.007080,-4.577637
8.591969,-0.519719,-0.486189,10.250085,-0.351435,0.281444,0.202705,-1.159668,0.793457,-4.913330
8.602066,-0.234113,-0.802930,9.859098,-0.065829,-0.035297,-0.188282,-1.251221,0.366211,-9.033203
8.612236,-0.146695,-1.011297,9.918973,0.021589,-0.243664,-0.128407,-0.610352,0.732422,-11.352539
8.622326,-0.411345,-0.875380,9.883048,-0.243061,-0.107747,-0.164332,1.342773,0.793457,-9.368896
8.632414,-0.247885,-0.925675,10.048903,-0.079601,-0.158042,0.001523,0.457764,0.671387,-9.338379
8.642504,-0.122745,-1.039438,10.083032,0.045539,-0.271806,0.035652,-0.335693,0.823975,-10.467529
8.652593,-0.240101,-0.961002,10.236912,-0.071817,-0.193369,0.189532,-0.976562,0.701904,-9.704590
8.662684,-0.205972,-0.975970,10.079440,-0.037688,-0.208338,0.032060,-0.457764,0.976562,-9.857178
8.672774,-0.219144,-1.062790,9.974658,-0.050860,-0.295157,-0.072723,0.640869,1.342773,-11.047363
8.682864,-0.479004,-1.014890,10.018965,-0.310720,-0.247257,-0.028415,0.671387,1.312256,-10.528564
8.692953,-0.055684,-1.025068,9.994417,0.112600,-0.257435,-0.052964,0.732422,1.586914,-8.483887
8.703043,0.055085,-0.792751,10.131531,0.223369,-0.025119,0.084151,3.021240,1.556396,-5.737305
8.713190,-0.211959,-0.998124,10.012978,-0.043675,-0.230491,-0.034402,-1.739502,1.159668,-6.225586
8.723287,0.150886,-1.228046,10.150692,0.319170,-0.460413,0.103311,-0.854492,0.213623,-7.141113
8.733383,0.373623,-0.704136,10.021360,0.541907,0.063497,-0.026020,1.770020,0.732422,-4.364014
8.743480,-0.502355,-0.294587,10.056687,-0.334072,0.473046,0.009307,1.586914,0.213623,0.915527
8.753577,0.243094,-0.768203,10.003997,0.411378,-0.000570,-0.043384,0.518799,0.183105,-2.746582
8.763673,-0.269440,-0.604144,10.012379,-0.101156,0.163489,-0.035001,-1.556396,0.488281,-8.361816
8.773770,0.036524,-0.216151,9.799821,0.204808,0.551482,-0.247559,0.274658,1.464844,-5.676270
8.783866,0.017963,-0.719703,9.828561,0.186246,0.047930,-0.218819,-5.035400,1.281738,-6.500244
8.793961,0.091011,-0.864602,9.995015,0.259295,-0.096969,-0.052365,-5.310059,0.457764,-8.728027
8.804057,-0.089214,-0.987946,10.238708,0.079069,-0.220313,0.191328,0.213623,-1.190186,-6.439209
8.814177,-0.490380,-0.683778,10.027348,-0.322096,0.083855,-0.020032,0.335693,-0.854492,-3.234863
8.824272,0.008383,-0.895139,10.070458,0.176666,-0.127506,0.023078,0.457764,-1.708984,-2.838135
8.834368,0.100591,-0.761017,9.971664,0.268875,0.006615,-0.075716,0.610352,-1.525879,-0.122070
8.844465,-0.165855,-0.627495,10.024953,0.002429,0.140138,-0.022427,0.396729,-1.312256,1.220703
8.854561,0.010179,-0.756227,9.941127,0.178463,0.011406,-0.106253,0.152588,-0.976562,0.396729
8.864657,0.387993,-0.917292,10.131531,0.556277,-0.149660,0.084151,0.183105,-0.976562,-0.274658
8.874754,-0.161664,-0.593366,10.116563,0.006620,0.174267,0.069182,1.556396,-0.854492,0.183105
8.884851,0.117955,-0.806523,10.148297,0.286239,-0.038890,0.100916,0.610352,-0.640869,-0.671387
8.894948,0.025746,-0.675994,10.046508,0.194030,0.091639,-0.000872,0.854492,-0.366211,-3.295898
8.905044,-0.349074,-0.702938,10.071656,-0.180790,0.064695,0.024276,0.488281,-0.183105,-4.608154
8.915167,-0.102387,-0.790356,10.036329,0.065897,-0.022723,-0.011051,0.000000,-0.061035,-4.364014
8.925264,-0.192200,-0.749641,10.114167,-0.023917,0.017992,0.066787,0.427246,0.274658,-5.523682
8.935361,-0.376617,-0.801733,10.004595,-0.208333,-0.034100,-0.042785,-0.244141,0.518799,-5.493164
8.945457,-0.404758,-0.865201,9.905202,-0.236474,-0.097568,-0.142178,-0.091553,0.335693,-4.760742
8.955553,-0.218546,-0.978964,10.048304,-0.050262,-0.211331,0.000924,0.366211,0.488281,-3.784180
8.965649,-0.508942,-0.983156,9.920770,-0.340658,-0.215523,-0.126610,-0.152588,0.335693,-3.814697
8.975746,-0.453856,-1.014890,10.071656,-0.285572,-0.247257,0.024276,-0.457764,0.122070,-2.105713
8.985843,-0.361049,-0.871188,10.015373,-0.192765,-0.103555,-0.032007,-1.220703,0.030518,-0.885010
8.995940,-0.110770,-1.152004,10.177635,0.057514,-0.384371,0.130255,-1.495361,-0.274658,1.525879
9.006037,-0.127535,-1.037043,10.135124,0.040749,-0.269411,0.087744,-1.617432,-0.640869,-0.091553
9.016158,-0.413141,-1.089135,10.119556,-0.244857,-0.321502,0.072176,1.373291,-0.183105,0.427246
9.026255,-0.202379,-0.987347,10.194999,-0.034095,-0.219714,0.147619,1.159668,-0.183105,2.929688
9.036351,0.557441,-1.056802,10.020762,0.725725,-0.289169,-0.026618,0.274658,0.549316,3.723145
9.046447,-0.688568,-0.847238,10.045311,-0.520284,-0.079605,-0.002069,0.579834,0.366211,2.166748
9.056543,0.275427,-0.743654,9.835746,0.443711,0.023979,-0.211634,0.610352,0.488281,3.540039
9.066640,-0.180824,-0.837059,9.983639,-0.012540,-0.069426,-0.063741,-0.915527,0.152588,4.150391
9.076773,-0.022753,-1.059197,10.050699,0.145531,-0.291564,0.003319,-0.335693,0.091553,2.502441
9.086875,-0.316741,-0.982557,10.068662,-0.148458,-0.214924,0.021282,-1.098633,-0.030518,3.906250
9.096973,-0.323926,-0.886756,10.041119,-0.155643,-0.119123,-0.006261,-0.885010,-0.396729,5.310059
9.107070,0.000599,-1.033451,9.986034,0.168883,-0.265818,-0.061346,0.976562,-0.366211,8.056641
9.117234,-0.523911,-0.895737,10.117161,-0.355627,-0.128104,0.069781,0.579834,-0.457764,7.354736
9.127332,-0.477806,-0.929268,10.112371,-0.309523,-0.161635,0.064991,0.366211,-0.427246,7.110596
9.137429,-0.101190,-0.883163,10.014774,0.067094,-0.115531,-0.032606,0.335693,-0.946045,10.681152
9.147525,-0.191602,-0.983754,10.214160,-0.023318,-0.216121,0.166779,-0.122070,-0.457764,7.598877
9.157620,-0.373024,-0.893342,10.024953,-0.204740,-0.125709,-0.022427,-0.579834,0.030518,7.263184
9.167716,-0.311951,-0.765807,9.966275,-0.143667,0.001825,-0.081105,-1.464844,-0.030518,7.354736
9.177812,-0.273032,-0.774190,9.955497,-0.104748,-0.006557,-0.091883,0.732422,0.030518,7.110596
9.187908,-0.032333,-0.880768,10.112371,0.135951,-0.113135,0.064991,0.701904,0.183105,7.690430
9.198005,-0.247885,-0.559836,10.050101,-0.079601,0.207797,0.002721,1.770020,0.457764,7.751465
9.208101,0.001198,-0.657433,10.071057,0.169481,0.110200,0.023677,1.007080,0.732422,7.385254
9.218222,-0.245490,-0.605940,10.006392,-0.077206,0.161693,-0.040989,0.396729,0.701904,7.324219
9.228318,-0.135319,-0.783770,10.035731,0.032965,-0.016137,-0.011650,-0.915527,0.488281,5.889893
9.238412,-0.231119,-0.934058,10.120754,-0.062836,-0.166425,0.073374,-1.251221,0.183105,5.676270
9.248507,-0.300575,-0.793949,9.984238,-0.132291,-0.026316,-0.063142,-1.373291,-0.122070,4.913330
9.258604,-0.089214,-0.782573,10.059681,0.079069,-0.014940,0.012301,-1.281738,-0.457764,4.730225
9.268699,-0.298180,-0.874182,9.933942,-0.129896,-0.106549,-0.113438,-1.190186,-0.518799,3.234863
9.278796,-0.421523,-0.904719,9.980046,-0.253240,-0.137086,-0.067334,-0.457764,-0.518799,4.272461
9.288892,-0.080233,-0.750839,10.062076,0.088051,0.016794,0.014696,0.213623,-0.915527,5.401611
9.298989,0.068258,-1.055006,10.107581,0.236542,-0.287373,0.060201,0.671387,-1.403809,2.960205
9.309275,-0.619113,-0.898132,10.047107,-0.450829,-0.130499,-0.000273,0.061035,-1.617432,3.204346
9.319393,-0.042512,-0.920885,10.044113,0.125772,-0.153252,-0.003267,-0.183105,-1.190186,4.699707
9.329491,-0.135319,-0.971180,10.011780,0.032965,-0.203547,-0.035600,0.122070,-0.701904,3.875732
9.339587,0.101190,-1.157393,9.972263,0.269473,-0.389760,-0.075118,-1.068115,-0.946045,5.035400
9.349684,-0.070054,-0.858016,10.203981,0.098229,-0.090383,0.156601,-0.976562,-0.610352,3.784180
9.359785,-0.053289,-0.811912,10.030941,0.114995,-0.044279,-0.016440,0.366211,0.061035,4.119873
9.369882,-0.091609,-0.876577,10.194999,0.076674,-0.108944,0.147619,0.488281,-0.427246,5.706787
9.379979,-0.111967,-0.904120,10.212363,0.056317,-0.136487,0.164983,-0.091553,-0.213623,5.340576
9.390077,-0.168849,-0.923280,10.088421,-0.000565,-0.155647,0.041041,0.701904,-0.122070,7.232666
9.400174,-0.448467,-0.737666,9.969269,-0.280184,0.029967,-0.078111,0.213623,-0.183105,7.141113
9.410272,-0.198787,-0.872386,9.909992,-0.030503,-0.104753,-0.137388,0.122070,-0.213623,8.483887
9.420393,-0.480201,-0.755629,9.954300,-0.311918,0.012004,-0.093080,-0.640869,0.183105,7.598877
9.430490,-0.318538,-0.858615,10.030342,-0.150254,-0.090982,-0.017038,-0.396729,0.122070,9.185791
9.440591,-0.034129,-0.972977,10.050699,0.134155,-0.205344,0.003319,-0.793457,-0.183105,10.101318
9.450689,-0.207169,-0.907712,9.961485,-0.038885,-0.140079,-0.085895,-1.281738,-0.427246,8.331299
9.460786,-0.094603,-0.846041,10.021360,0.073681,-0.078408,-0.026020,-1.068115,-0.823975,9.887695
9.470884,-0.205972,-0.909509,10.002799,-0.037688,-0.141876,-0.044581,-1.342773,-0.457764,9.124756
9.480982,-0.292192,-0.881966,10.025552,-0.123909,-0.114333,-0.021828,-1.068115,-0.122070,7.324219
9.491080,-0.179626,-0.851429,10.079440,-0.011343,-0.083796,0.032060,-1.129150,-0.030518,6.622314
9.501220,-0.004790,-0.958607,10.035132,0.163494,-0.190974,-0.012248,-0.335693,-0.427246,5.767822
9.511317,-0.319735,-0.809517,10.039323,-0.151451,-0.041884,-0.008057,-0.305176,-0.305176,5.310059
9.521441,-0.255070,-0.986748,10.180629,-0.086786,-0.219115,0.133249,0.030518,-0.274658,4.547119
9.531538,-0.434696,-0.786165,9.903406,-0.266412,-0.018532,-0.143974,2.807617,-0.030518,6.317139
9.541635,-0.601150,-0.652643,10.041718,-0.432866,0.114990,-0.005662,2.075195,-0.427246,5.889893
9.551732,-0.598755,-0.868793,10.036928,-0.430471,-0.101160,-0.010452,0.732422,-1.312256,4.150391
9.561829,-0.439486,-0.970582,10.083631,-0.271202,-0.202949,0.036251,-0.640869,-1.708984,4.760742
9.571926,-0.449066,-0.930465,9.986633,-0.280782,-0.162832,-0.060747,0.701904,-0.610352,6.988525
9.582024,-0.407153,-1.163979,10.114167,-0.238870,-0.396347,0.066787,-0.915527,-0.701904,7.324219
9.592121,-0.335303,-0.984353,10.120155,-0.167019,-0.216720,0.072775,-0.915527,-0.152588,6.652832
9.602218,-0.332309,-0.999322,10.117760,-0.164025,-0.231689,0.070380,-0.305176,0.244141,8.575439
9.612315,-0.265248,-0.971779,10.110575,-0.096965,-0.204146,0.063195,-0.701904,0.061035,7.781982
9.622436,-0.138911,-0.979563,10.071057,0.029373,-0.211930,0.023677,-1.098633,1.190186,6.164551
9.632534,-0.088616,-0.913101,9.947714,0.079668,-0.145468,-0.099666,-0.457764,1.556396,5.737305
9.642631,-0.546064,-0.738864,9.962084,-0.377781,0.028769,-0.085296,-3.936768,1.464844,5.523682
9.652807,0.121547,-0.946631,10.030941,0.289831,-0.178999,-0.016440,-3.540039,1.525879,4.669189
9.662905,-0.008383,-1.013093,9.946516,0.159901,-0.245460,-0.100864,-4.119873,1.403809,4.211426
9.673001,-0.089214,-1.162183,10.192006,0.079069,-0.394550,0.144625,-2.319336,1.037598,1.556396
9.683099,0.037722,-1.271157,10.057286,0.206005,-0.503524,0.009906,2.197266,1.464844,1.983643
9.693191,-0.802332,-0.694556,10.061477,-0.634048,0.073077,0.014097,0.946045,0.610352,3.784180
9.703288,-0.485590,-0.742456,10.001003,-0.317306,0.025177,-0.046377,0.549316,0.579834,1.770020
9.713385,-0.299976,-0.901725,10.139914,-0.131692,-0.134092,0.092534,-0.610352,0.640869,2.044678
9.723506,-0.760419,-1.056204,10.058483,-0.592135,-0.288571,0.011103,-0.518799,0.457764,1.831055
9.733603,-0.531096,-0.842448,10.032737,-0.362812,-0.074815,-0.014643,-0.305176,-0.976562,2.349854
9.743699,-0.244292,-0.657433,10.025552,-0.076008,0.110200,-0.021828,0.488281,-1.586914,2.655029
9.753796,-0.619711,-0.828078,10.060878,-0.451428,-0.060445,0.013498,0.549316,-1.892090,1.525879
9.763893,-0.120948,-0.869991,10.095606,0.047335,-0.102358,0.048226,1.953125,-1.647949,2.410889
9.773989,-0.465233,-0.838257,10.084230,-0.296949,-0.070624,0.036850,1.739502,-1.434326,3.570557
9.784087,-0.326920,-0.824485,10.013577,-0.158636,-0.056853,-0.033803,1.098633,-0.183105,4.089355
9.794183,0.016765,-0.873583,10.030941,0.185049,-0.105950,-0.016440,1.525879,0.640869,4.913330
9.804280,-0.553848,-0.918490,10.027947,-0.385564,-0.150857,-0.019433,1.373291,1.800537,3.936768
9.814376,-0.058678,-0.946033,10.015972,0.109606,-0.178400,-0.031408,1.403809,1.525879,4.364014
9.824497,-0.480201,-0.759221,9.944720,-0.311918,0.008412,-0.102660,1.861572,1.190186,4.943848
9.834595,-0.459245,-0.740660,9.966275,-0.290961,0.026973,-0.081105,-0.946045,-0.335693,4.577637
9.844692,-0.177231,-1.071771,10.095007,-0.008948,-0.304138,0.047627,-1.312256,-0.488281,3.967285
9.854789,-0.272433,-0.837059,10.196197,-0.104150,-0.069426,0.148817,-0.457764,-1.098633,5.828857
9.864886,-0.234113,-0.838856,10.126741,-0.065829,-0.071223,0.079361,-0.823975,-0.701904,6.561279
9.874983,-0.559237,-0.852627,9.921967,-0.390953,-0.084994,-0.125413,0.885010,1.342773,5.767822
9.885080,-0.493374,-0.847238,10.014175,-0.325090,-0.079605,-0.033205,0.030518,1.556396,6.896973
9.895175,-0.502954,-0.755629,10.150093,-0.334670,0.012004,0.102713,-0.946045,1.159668,7.293701
9.905273,-0.460443,-0.632285,10.151290,-0.292159,0.135348,0.103910,-0.793457,0.122070,4.516602
9.915370,-0.445474,-0.603545,9.946516,-0.277190,0.164088,-0.100864,-0.488281,0.152588,4.516602
9.925491,-0.248483,-0.938848,10.055490,-0.080199,-0.171215,0.008109,-0.091553,-0.610352,3.417969
9.935588,-0.251477,-1.004711,10.248289,-0.083193,-0.237078,0.200908,0.213623,-1.159668,3.021240
9.945684,-0.415536,-0.727487,10.124945,-0.247252,0.040146,0.077565,4.425049,-0.488281,3.356934
9.955780,0.253273,-0.900527,9.936337,0.421557,-0.132894,-0.111043,3.540039,-0.640869,6.225586
9.965876,0.043709,-0.661624,10.084828,0.211993,0.106009,0.037448,3.173828,-0.122070,4.241943
9.975973,-0.047302,-0.635279,9.988429,0.120982,0.132354,-0.058951,1.922607,-0.030518,4.821777
9.986069,0.046104,-0.682581,9.960886,0.214388,0.085052,-0.086494,0.915527,-0.061035,4.516602
9.996166,0.178429,-0.808319,10.221943,0.346713,-0.040686,0.174563,-1.007080,-0.732422,2.624512
10.006262,-0.108973,-0.950224,10.166858,0.059310,-0.182591,0.119478,-0.213623,-0.823975,0.762939
10.016358,0.074844,-1.099314,9.884844,0.243128,-0.331681,-0.162536,-2.532959,-1.068115,2.624512
10.026480,0.364043,-0.838257,9.988429,0.532327,-0.070624,-0.058951,-4.058838,-1.159668,1.342773
10.036576,0.188608,-0.789758,9.983040,0.356892,-0.022125,-0.064340,-1.983643,-0.366211,-0.152588
10.046673,-0.071252,-0.887355,10.021959,0.097032,-0.119722,-0.025421,-3.448486,-0.061035,-0.549316
10.056771,0.116158,-0.835263,10.109976,0.284442,-0.067630,0.062596,-3.204346,0.946045,-0.091553
10.066867,0.272433,-1.143023,10.243499,0.440717,-0.375390,0.196118,-2.014160,0.640869,2.197266
10.076963,0.000000,-1.178350,10.215956,0.168284,-0.410717,0.168576,-2.471924,-0.152588,0.427246
10.087060,-0.001796,-1.093326,10.284813,0.166488,-0.325693,0.237433,1.739502,-1.190186,3.204346
10.097157,-0.226329,-0.998124,10.213561,-0.058046,-0.230491,0.166181,2.471924,-1.098633,5.767822
10.107254,-0.103585,-0.840053,9.971065,0.064699,-0.072420,-0.076315,2.136230,-0.427246,5.523682
10.117494,-0.182620,-1.013093,10.021959,-0.014336,-0.245460,-0.025421,1.617432,-0.823975,6.561279
10.127617,-0.122745,-0.812510,10.006392,0.045539,-0.044877,-0.040989,1.831055,-0.213623,8.850098
10.137714,0.107177,-0.860411,10.075248,0.275461,-0.092778,0.027868,0.823975,-0.457764,7.354736
10.147811,-0.282612,-0.682581,10.015373,-0.114329,0.085052,-0.032007,0.396729,-0.274658,6.591797
10.157907,-0.128134,-0.738864,10.095007,0.040150,0.028769,0.047627,-0.335693,0.457764,7.751465
10.168000,-0.183219,-0.779579,10.116563,-0.014935,-0.011946,0.069182,-1.953125,0.366211,8.483887
10.178097,-0.052092,-0.872985,10.179432,0.116192,-0.105352,0.132052,-1.617432,0.091553,6.286621
10.188194,-0.288600,-0.858016,10.148297,-0.120316,-0.090383,0.100916,-1.373291,0.610352,7.781982
10.198291,0.219743,-0.786764,10.128538,0.388027,-0.019131,0.081157,0.335693,-0.549316,8.178711
10.208388,-0.149090,-0.809517,10.070458,0.019194,-0.041884,0.023078,0.518799,-1.312256,7.049561
10.218484,-0.082029,-0.727487,10.020762,0.086254,0.040146,-0.026618,0.976562,-1.861572,7.781982
10.228605,0.293390,-0.605341,10.001003,0.461674,0.162292,-0.046377,1.434326,-1.861572,8.728027
10.238702,0.097597,-0.677791,10.010583,0.265881,0.089842,-0.036797,0.976562,-1.403809,7.781982
10.248798,0.011376,-0.818498,9.971664,0.179660,-0.050865,-0.075716,0.549316,-1.220703,5.065918
10.258893,0.302371,-0.908910,10.007589,0.470655,-0.141277,-0.039791,-0.640869,-1.403809,4.394531
10.269021,0.349673,-0.848436,10.048304,0.517957,-0.080803,0.000924,-1.098633,-0.915527,2.655029
10.279119,0.468226,-1.066382,10.086625,0.636510,-0.298749,0.039245,-0.579834,-0.579834,1.464844
10.289215,-0.014370,-1.065185,10.044113,0.153914,-0.297552,-0.003267,0.366211,-0.152588,0.762939
10.299313,0.222138,-1.165177,10.050699,0.390422,-0.397544,0.003319,-0.946045,0.579834,-1.617432
10.309409,0.188608,-1.205294,10.127939,0.356892,-0.437661,0.080559,-0.732422,0.579834,-1.892090
10.319505,-0.035327,-1.107098,10.030941,0.132957,-0.339465,-0.016440,-0.976562,0.396729,-2.197266
10.329693,0.050894,-0.964594,10.010583,0.219178,-0.196961,-0.036797,-0.915527,0.610352,-1.312256
10.339783,-0.026345,-1.017285,9.962682,0.141939,-0.249652,-0.084698,0.305176,0.427246,-0.518799
10.349874,0.044308,-1.059197,10.033336,0.212592,-0.291564,-0.014045,0.976562,0.396729,-0.213623
10.359977,-0.082029,-1.016686,10.039323,0.086254,-0.249053,-0.008057,0.183105,0.274658,-1.678467
10.370066,-0.070653,-1.005908,9.964479,0.097631,-0.238275,-0.082901,-0.457764,-0.518799,-0.396729
10.380156,-0.098196,-0.992736,10.063872,0.070088,-0.225103,0.016492,-1.098633,-0.183105,0.915527
10.390244,-0.025148,-1.046025,10.120754,0.143136,-0.278392,0.073374,-1.159668,0.122070,-0.213623
10.400334,-0.134720,-0.806523,10.135124,0.033564,-0.038890,0.087744,-0.640869,0.549316,0.671387
10.410424,-0.024549,-0.838257,10.066866,0.143735,-0.070624,0.019486,-0.488281,0.915527,1.373291
10.420514,-0.125140,-0.844843,10.113569,0.043144,-0.077210,0.066189,-0.762939,0.885010,0.366211
10.430666,-0.119751,-0.755030,10.058483,0.048533,0.012603,0.011103,-0.885010,0.457764,-0.793457
10.440762,0.039518,-0.828677,10.042317,0.207802,-0.061044,-0.005063,-1.037598,0.183105,-1.312256
10.450858,-0.042512,-0.695753,10.093810,0.125772,0.071880,0.046430,-0.488281,0.122070,-2.044678
10.460956,0.170645,-0.826880,10.093211,0.338929,-0.059248,0.045831,0.122070,-0.091553,-2.624512
10.471052,-0.088616,-0.764610,10.035132,0.079668,0.003023,-0.012248,1.251221,-0.152588,-2.777100
10.481149,-0.052690,-1.071172,10.059681,0.115593,-0.303540,0.012301,2.716064,-0.396729,-4.119873
10.491246,-0.152084,-0.944835,9.890832,0.016200,-0.177202,-0.156548,3.967285,-0.396729,-2.716064
10.501338,0.113165,-1.057401,10.020163,0.281448,-0.289768,-0.027217,1.525879,-0.549316,-2.685547
10.511434,-0.144300,-0.995131,10.075847,0.023984,-0.227498,0.028467,1.708984,-0.610352,-4.058838
10.521531,-0.231119,-1.029858,10.024354,-0.062836,-0.262225,-0.023026,0.335693,-0.793457,-3.784180
10.531719,-0.022154,-1.007106,10.016570,0.146130,-0.239473,-0.030810,1.617432,-0.366211,-3.967285
10.541810,-0.207169,-0.788560,9.939930,-0.038885,-0.020927,-0.107450,1.770020,-0.396729,-3.784180
10.551900,-0.414937,-0.837059,10.041119,-0.246653,-0.069426,-0.006261,-0.610352,-0.640869,-3.570557
10.561991,-0.343685,-0.857417,10.061477,-0.175402,-0.089784,0.014097,-1.251221,-0.793457,-4.547119
10.572081,-0.033530,-0.915496,10.054891,0.134754,-0.147863,0.007511,0.732422,-0.366211,-4.364014
10.582170,-0.471819,-0.910706,10.112371,-0.303535,-0.143073,0.064991,0.091553,-0.457764,-5.187988
10.592260,-0.235311,-0.992736,10.095007,-0.067027,-0.225103,0.047627,-0.122070,-0.152588,-5.828857
10.602350,-0.476010,-0.890947,10.060280,-0.307726,-0.123314,0.012899,0.122070,-0.274658,-4.669189
10.612441,-0.300575,-1.046025,10.044113,-0.132291,-0.278392,-0.003267,0.335693,-0.335693,-4.425049
10.622531,-0.182620,-1.162183,10.064471,-0.014336,-0.394550,0.017091,1.770020,-0.366211,-2.471924
10.632680,-0.513732,-1.004112,10.057286,-0.345448,-0.236479,0.009906,0.091553,-1.007080,-1.068115
10.642778,0.137115,-0.817300,10.053094,0.305399,-0.049667,0.005714,0.976562,-1.037598,-2.319336
10.652876,-0.295186,-0.805924,10.007589,-0.126902,-0.038291,-0.039791,1.373291,-0.885010,-1.037598
10.662972,-0.442480,-0.913700,10.073452,-0.274196,-0.146067,0.026072,0.823975,-0.640869,-2.960205
10.673069,0.092807,-0.710722,9.989626,0.261091,0.056911,-0.057754,0.701904,-0.183105,-2.166748
10.683166,-0.263452,-0.726888,10.018965,-0.095168,0.040745,-0.028415,-0.366211,-0.030518,-0.457764
10.693263,0.020956,-0.713716,10.068063,0.189240,0.053917,0.020683,-1.129150,0.213623,-2.258301
10.703360,-0.043709,-0.624501,10.115365,0.124575,0.143132,0.067985,-2.075195,0.030518,-2.532959
10.713456,0.308958,-0.652044,10.093810,0.477241,0.115589,0.046430,-1.739502,0.183105,-3.356934
10.723553,0.531096,-0.802332,9.914183,0.699379,-0.034699,-0.133197,1.922607,1.159668,-2.197266
10.733675,-0.068857,-1.004711,9.973460,0.099427,-0.237078,-0.073920,0.396729,0.396729,-6.011963
10.743772,0.150886,-0.666414,10.128538,0.319170,0.101219,0.081157,0.457764,0.244141,-6.530762
10.753869,-0.099393,-0.778381,10.075847,0.068890,-0.010748,0.028467,0.701904,-0.061035,-4.882812
10.763967,0.328118,-1.077160,10.050101,0.496401,-0.309527,0.002721,0.854492,-0.061035,-9.124756
10.774063,-0.310155,-0.918490,9.901011,-0.141871,-0.150857,-0.146369,1.312256,0.488281,-8.880615
10.784160,0.094005,-0.581990,10.065668,0.262288,0.185643,0.018288,0.915527,-0.091553,-6.408691
10.794256,-0.307760,-0.469424,10.090816,-0.139476,0.298209,0.043436,-0.549316,-0.793457,-4.730225
10.804353,-0.170645,-0.871787,10.015373,-0.002361,-0.104154,-0.032007,-1.373291,-1.434326,-12.420654
10.814449,0.291594,-0.784968,9.988429,0.459877,-0.017335,-0.058951,0.305176,-0.610352,-11.413574
10.824546,-0.240101,-0.793350,10.118359,-0.071817,-0.025717,0.070979,-0.640869,-0.823975,-7.659912
10.834668,-0.121547,-0.860411,9.995614,0.046737,-0.092778,-0.051766,-0.640869,-1.098633,-10.467529
10.844764,-0.122146,-1.115480,10.017768,0.046138,-0.347847,-0.029612,0.152588,-0.701904,-11.688232
10.854861,-0.503553,-1.198707,10.006990,-0.335269,-0.431074,-0.040390,1.495361,-0.488281,-7.263184
10.864958,-0.101190,-1.328637,9.939331,0.067094,-0.561004,-0.108049,1.922607,-0.701904,-6.347656
10.875055,-0.279020,-0.866997,9.953701,-0.110736,-0.099364,-0.093679,2.319336,-0.183105,-1.464844
10.885152,-0.309556,-1.333427,10.001003,-0.141272,-0.565794,-0.046377,1.525879,-0.549316,-0.762939
10.895246,0.252076,-1.171763,9.967473,0.420360,-0.404130,-0.079908,0.579834,-0.335693,-0.640869
10.905343,-0.503553,-0.754431,10.072853,-0.335269,0.013202,0.025473,-0.213623,-0.640869,-0.488281
10.915439,-0.246088,-0.849034,10.019564,-0.077804,-0.081401,-0.027816,-0.854492,-1.007080,-0.762939
10.925536,0.283211,-0.859812,10.108180,0.451495,-0.092179,0.060800,-1.403809,-1.281738,-2.655029
10.935659,-0.210163,-0.835862,10.024354,-0.041879,-0.068229,-0.023026,-1.159668,-1.434326,-2.227783
10.945756,-0.035925,-0.616718,10.023157,0.132359,0.150915,-0.024223,-1.037598,-2.136230,-1.770020
10.955853,0.065863,-0.719703,10.103989,0.234147,0.047930,0.056609,-1.098633,-2.471924,-1.464844
10.965950,0.111967,-0.637075,10.144105,0.280251,0.130558,0.096725,1.068115,-2.380371,-0.885010
10.976047,0.310155,-0.809517,10.078841,0.478439,-0.041884,0.031461,0.762939,-2.166748,-0.457764
10.986144,0.343087,-0.776585,10.034533,0.511370,-0.008952,-0.012847,0.915527,-2.075195,-1.342773
10.996241,-0.076042,-0.829276,10.017169,0.092242,-0.061643,-0.030211,0.396729,-1.861572,-2.258301
11.006336,0.243693,-0.829874,10.033336,0.411977,-0.062241,-0.014045,-0.061035,-1.983643,-2.166748
11.016433,0.204175,-0.793949,10.042317,0.372459,-0.026316,-0.005063,-0.549316,-1.556396,-2.716064
11.026529,0.162263,-0.798739,10.062675,0.330546,-0.031106,0.015294,-0.244141,-1.190186,-3.662109
11.036650,-0.064666,-0.952020,10.065668,0.103618,-0.184387,0.018288,-0.427246,-0.976562,-1.922607
11.046747,0.258662,-0.935255,10.036329,0.426946,-0.167622,-0.011051,-0.030518,-0.640869,-1.068115
11.056845,0.064067,-0.962199,10.056088,0.232351,-0.194566,0.008708,-0.305176,-0.610352,-0.457764
11.066941,0.125140,-0.875380,10.072255,0.293424,-0.107747,0.024875,0.610352,-0.579834,1.861572
11.077038,0.035925,-0.868195,10.048304,0.204209,-0.100562,0.000924,0.640869,-0.640869,2.777100
11.087135,0.290995,-0.797542,10.093810,0.459279,-0.029909,0.046430,0.366211,-0.305176,1.770020
11.097232,0.144300,-0.769400,9.992021,0.312584,-0.001767,-0.055359,0.366211,-0.244141,1.495361
11.107329,0.346080,-0.634081,10.072853,0.514364,0.133552,0.025473,0.244141,-0.518799,0.549316
11.117425,-0.205373,-0.673599,10.047706,-0.037089,0.094034,0.000326,0.122070,-0.488281,-0.091553
11.127522,0.199984,-0.695154,10.023755,0.368268,0.072479,-0.023625,0.061035,-0.488281,1.068115
11.137643,0.210163,-0.678389,10.068662,0.378447,0.089244,0.021282,0.183105,-0.091553,-0.427246
11.147743,-0.165855,-0.821492,10.064471,0.002429,-0.053859,0.017091,0.549316,0.000000,-1.525879
11.157841,0.262255,-0.932261,10.028546,0.430538,-0.164628,-0.018835,1.159668,-0.122070,0.244141
11.167937,0.171244,-0.816702,10.025552,0.339528,-0.049069,-0.021828,1.220703,-0.061035,0.610352
11.178034,0.101788,-0.732876,10.051298,0.270072,0.034757,0.003918,0.488281,-0.030518,0.885010
11.188131,0.016166,-0.836461,10.080637,0.184450,-0.068828,0.033257,0.335693,-0.183105,0.152588
11.198227,-0.040117,-0.880768,10.056088,0.128167,-0.113135,0.008708,0.457764,0.030518,0.610352
11.208323,0.010778,-0.891546,10.077045,0.179061,-0.123913,0.029665,0.122070,-0.061035,0.793457
11.218419,-0.185614,-0.893941,10.056088,-0.017330,-0.126308,0.008708,0.488281,0.030518,0.305176
11.228515,-0.061073,-0.884960,10.000404,0.107211,-0.117327,-0.046976,0.396729,0.061035,2.349854
11.238639,-0.059875,-0.846639,10.051298,0.108408,-0.079006,0.003918,0.122070,0.061035,3.051758
11.248760,-0.007185,-0.735271,10.025552,0.161099,0.032362,-0.021828,-0.183105,0.152588,3.570557
11.258857,-0.097597,-0.793949,10.050101,0.070687,-0.026316,0.002721,-0.518799,0.000000,3.082275
11.268953,-0.131127,-0.771795,10.047107,0.037156,-0.004162,-0.000273,-0.244141,0.213623,1.678467
11.279050,0.047302,-0.835862,10.058483,0.215585,-0.068229,0.011103,-0.427246,0.091553,1.861572
11.289147,-0.202379,-0.817899,10.023157,-0.034095,-0.050266,-0.024223,0.000000,0.122070,2.014160
11.299243,0.009580,-0.890947,10.027348,0.177864,-0.123314,-0.020032,-0.427246,-0.152588,2.197266
11.309339,-0.070054,-0.873583,10.032138,0.098229,-0.105950,-0.015242,-1.037598,0.000000,2.502441
11.319436,-0.064666,-0.789159,10.060280,0.103618,-0.021526,0.012899,-0.701904,-0.244141,2.777100
11.329533,-0.103585,-0.814905,10.050101,0.064699,-0.047272,0.002721,-1.007080,-0.366211,3.082275
11.339654,-0.029938,-0.838257,10.013577,0.138346,-0.070624,-0.033803,-1.159668,-0.305176,2.624512
11.349751,-0.058079,-0.753832,9.986034,0.110205,0.013801,-0.061346,-1.251221,-0.427246,2.532959
11.359860,-0.050295,-0.799338,10.053094,0.117988,-0.031705,0.005714,-1.617432,-0.488281,2.014160
11.369958,0.210163,-0.786165,10.121353,0.378447,-0.018532,0.073972,-2.868652,-0.854492,1.892090
11.380056,0.082628,-0.832269,10.062675,0.250912,-0.064636,0.015294,-2.655029,-0.793457,1.281738
11.390152,0.152682,-0.804128,10.068063,0.320966,-0.036495,0.020683,-1.373291,-1.098633,-1.098633
11.400248,-0.180824,-0.866997,10.075847,-0.012540,-0.099364,0.028467,-0.671387,-1.373291,-1.068115
11.410345,0.307760,-0.850232,10.065668,0.476044,-0.082599,0.018288,0.030518,-1.708984,-0.213623
11.420442,0.113763,-0.804128,10.044712,0.282047,-0.036495,-0.002668,0.091553,-1.373291,-0.305176
11.430538,0.059875,-0.840652,10.042916,0.228159,-0.073019,-0.004464,-0.213623,-0.885010,0.549316
11.440660,0.142504,-0.877775,10.059082,0.310787,-0.110142,0.011702,-0.183105,-0.701904,1.129150
11.450757,0.133522,-0.804727,10.051298,0.301806,-0.037094,0.003918,-0.030518,-0.488281,1.312256
11.460855,0.204774,-0.785566,10.053094,0.373058,-0.017933,0.005714,0.061035,-0.335693,1.068115
11.470952,0.156874,-0.798739,10.043514,0.325158,-0.031106,-0.003866,0.030518,-0.183105,0.579834
11.481049,0.140109,-0.789758,10.054891,0.308392,-0.022125,0.007511,-0.366211,0.000000,-0.579834
11.491146,0.146695,-0.785566,10.056088,0.314979,-0.017933,0.008708,-0.427246,0.091553,-0.854492
11.501244,0.123942,-0.799937,10.051897,0.292226,-0.032304,0.004517,-0.457764,0.122070,-1.373291
11.511341,0.017963,-0.737067,10.058483,0.186246,0.030566,0.011103,0.030518,0.030518,-2.227783
11.521437,-0.062271,-0.728685,10.054891,0.106013,0.038948,0.007511,0.091553,-0.030518,-2.441406
11.531534,0.013173,-0.606539,10.024354,0.181456,0.161094,-0.023026,-0.457764,-0.030518,-4.089355
11.541654,0.399370,-0.743654,10.072255,0.567653,0.023979,0.024875,-0.823975,0.152588,-8.514404
11.551751,-0.053289,-1.056204,10.061477,0.114995,-0.288571,0.014097,-0.915527,0.762939,-22.521973
11.561848,-0.330513,-1.138832,9.987231,-0.162229,-0.371199,-0.060149,-0.518799,1.037598,-28.930664
11.571944,-0.317340,-1.045426,10.069261,-0.149056,-0.277793,0.021881,-0.579834,0.885010,-30.151367
11.582041,0.061073,-0.599354,10.054891,0.229357,0.168279,0.007511,-0.701904,0.701904,-22.125244
11.592138,0.117356,-0.777783,10.064471,0.285640,-0.010150,0.017091,-0.396729,0.305176,-8.972168
11.602234,0.135319,-0.720901,9.995015,0.303602,0.046732,-0.052365,-0.885010,0.305176,-5.065918
11.612331,0.196392,-0.870590,10.115964,0.364675,-0.102957,0.068584,-2.014160,0.732422,-1.953125
11.622428,0.105381,-0.959804,10.072853,0.273665,-0.192171,0.025473,-0.885010,0.366211,0.366211
11.632525,0.068857,-0.944236,10.059082,0.237141,-0.176604,0.011702,-0.427246,0.305176,0.915527
11.642645,0.040117,-0.969983,10.053693,0.208400,-0.202350,0.006313,-0.274658,0.244141,1.556396
11.652745,0.020956,-0.969983,10.046508,0.189240,-0.202350,-0.000872,-0.274658,0.213623,1.373291
11.662841,-0.002395,-0.953218,10.039922,0.165889,-0.185585,-0.007458,-0.213623,0.213623,0.915527
11.672938,-0.034129,-0.923879,10.048903,0.134155,-0.156246,0.001523,-0.213623,0.183105,0.701904
11.683034,-0.041913,-0.913700,10.052496,0.126371,-0.146067,0.005116,-0.213623,0.122070,0.549316
11.693132,-0.056882,-0.891546,10.044113,0.111402,-0.123913,-0.003267,-0.152588,0.122070,0.335693
11.703225,-0.055085,-0.890349,10.049502,0.113198,-0.122716,0.002122,-0.183105,0.122070,0.274658
11.713321,-0.064666,-0.884361,10.044113,0.103618,-0.116728,-0.003267,-0.152588,0.061035,0.213623
11.723419,-0.076641,-0.878972,10.045311,0.091643,-0.111339,-0.002069,-0.122070,0.061035,0.213623
11.733516,-0.077239,-0.871188,10.048304,0.091044,-0.103555,0.000924,-0.122070,0.030518,0.091553
11.743637,-0.077838,-0.871188,10.033934,0.090446,-0.103555,-0.013446,-0.122070,0.061035,0.091553
11.753734,-0.082029,-0.869991,10.033336,0.086254,-0.102358,-0.014045,-0.122070,0.091553,0.122070
11.763831,-0.078437,-0.869392,10.032138,0.089847,-0.101759,-0.015242,-0.091553,0.061035,0.152588
11.773927,-0.079634,-0.868793,10.044712,0.088649,-0.101160,-0.002668,-0.091553,0.091553,0.152588
11.784023,-0.078437,-0.878373,10.048903,0.089847,-0.110740,0.001523,-0.091553,0.061035,0.213623
11.794120,-0.076641,-0.877775,10.054891,0.091643,-0.110142,0.007511,-0.061035,0.061035,0.213623
11.804218,-0.076641,-0.881367,10.059082,0.091643,-0.113734,0.011702,-0.030518,0.030518,0.183105
11.814314,-0.081431,-0.881966,10.053693,0.086853,-0.114333,0.006313,-0.030518,0.000000,0.152588
11.824410,-0.078437,-0.879571,10.054891,0.089847,-0.111938,0.007511,-0.061035,0.061035,0.152588
11.834507,-0.071851,-0.880768,10.053094,0.096433,-0.113135,0.005714,-0.030518,0.030518,0.152588
11.844628,-0.071252,-0.880170,10.048304,0.097032,-0.112537,0.000924,-0.030518,0.061035,0.122070
11.854725,-0.071851,-0.880768,10.045311,0.096433,-0.113135,-0.002069,-0.030518,0.061035,0.091553
11.864822,-0.074246,-0.881367,10.044712,0.094038,-0.113734,-0.002668,-0.030518,0.030518,0.061035
11.874920,-0.085023,-0.879571,10.046508,0.083261,-0.111938,-0.000872,-0.030518,0.061035,0.030518
11.885016,-0.084424,-0.877775,10.050101,0.083859,-0.110142,0.002721,-0.061035,0.061035,0.000000
11.895110,-0.074246,-0.875380,10.051298,0.094038,-0.107747,0.003918,-0.061035,0.061035,0.000000
11.905207,-0.071252,-0.872386,10.042916,0.097032,-0.104753,-0.004464,-0.030518,0.061035,0.000000
11.915303,-0.070054,-0.872386,10.039323,0.098229,-0.104753,-0.008057,-0.030518,0.061035,0.000000
11.925399,-0.077838,-0.865201,10.045311,0.090446,-0.097568,-0.002069,-0.061035,0.061035,0.030518
11.935497,-0.076641,-0.865201,10.047107,0.091643,-0.097568,-0.000273,-0.030518,0.061035,0.030518
11.945617,-0.075443,-0.871787,10.041718,0.092841,-0.104154,-0.005662,-0.061035,0.061035,0.000000
11.955714,-0.077239,-0.874182,10.035731,0.091044,-0.106549,-0.011650,-0.061035,0.030518,0.000000
11.965811,-0.079036,-0.871188,10.030941,0.089248,-0.103555,-0.016440,-0.061035,0.061035,0.000000
11.975908,-0.073647,-0.869392,10.036928,0.094637,-0.101759,-0.010452,-0.061035,0.061035,0.030518
11.986005,-0.074844,-0.863405,10.030342,0.093439,-0.095772,-0.017038,-0.091553,0.030518,0.030518
11.996101,-0.076641,-0.871787,10.029144,0.091643,-0.104154,-0.018236,-0.061035,0.030518,-0.030518
12.006200,-0.079036,-0.874781,10.028546,0.089248,-0.107148,-0.018835,-0.061035,0.000000,0.000000
12.016297,-0.088017,-0.874182,10.023755,0.080267,-0.106549,-0.023625,-0.061035,0.030518,-0.061035
12.026395,-0.087418,-0.871787,10.028546,0.080866,-0.104154,-0.018835,-0.091553,0.030518,-0.030518
12.036492,-0.089813,-0.869991,10.035731,0.078471,-0.102358,-0.011650,-0.061035,0.030518,-0.030518
12.046613,-0.086819,-0.866997,10.036928,0.081464,-0.099364,-0.010452,-0.091553,0.030518,-0.030518
12.056710,-0.084424,-0.871188,10.038126,0.083859,-0.103555,-0.009255,-0.061035,0.030518,-0.030518
12.066807,-0.084424,-0.871188,10.045311,0.083859,-0.103555,-0.002069,-0.030518,0.000000,-0.030518
12.076904,-0.087418,-0.868793,10.046508,0.080866,-0.101160,-0.000872,-0.061035,0.000000,0.000000
12.087001,-0.084424,-0.871188,10.041119,0.083859,-0.103555,-0.006261,-0.061035,0.000000,0.030518
12.097098,-0.086221,-0.866398,10.036329,0.082063,-0.098765,-0.011051,-0.061035,0.030518,0.030518
12.107194,-0.084424,-0.869392,10.037527,0.083859,-0.101759,-0.009853,-0.061035,0.000000,0.030518
12.117292,-0.080832,-0.870590,10.044712,0.087452,-0.102957,-0.002668,-0.030518,0.030518,0.000000
12.127389,-0.082628,-0.867596,10.047706,0.085656,-0.099963,0.000326,0.000000,0.000000,0.000000
12.137486,-0.084424,-0.861010,10.048304,0.083859,-0.093377,0.000924,-0.030518,0.000000,0.030518
12.147608,-0.083227,-0.859812,10.042916,0.085057,-0.092179,-0.004464,0.000000,0.000000,0.030518
12.157705,-0.077239,-0.869991,10.033336,0.091044,-0.102358,-0.014045,0.030518,0.030518,0.000000
12.167802,-0.079036,-0.871188,10.038126,0.089248,-0.103555,-0.009255,0.000000,0.030518,0.000000
12.177900,-0.074844,-0.869392,10.043514,0.093439,-0.101759,-0.003866,0.000000,0.030518,0.030518
12.187995,-0.080832,-0.870590,10.047107,0.087452,-0.102957,-0.000273,-0.030518,0.030518,0.030518
12.198093,-0.082029,-0.870590,10.048903,0.086254,-0.102957,0.001523,-0.030518,0.000000,0.030518
12.208189,-0.084424,-0.868793,10.051298,0.083859,-0.101160,0.003918,-0.030518,0.000000,0.061035
12.218287,-0.086221,-0.874781,10.048903,0.082063,-0.107148,0.001523,0.000000,0.030518,0.061035
12.228383,-0.082628,-0.878972,10.050101,0.085656,-0.111339,0.002721,0.000000,0.061035,0.030518
12.238479,-0.085622,-0.878373,10.045909,0.082662,-0.110740,-0.001471,0.000000,0.061035,0.000000
12.248599,-0.079634,-0.877176,10.044712,0.088649,-0.109543,-0.002668,-0.030518,0.061035,0.030518
12.258696,-0.082029,-0.872386,10.042317,0.086254,-0.104753,-0.005063,-0.030518,0.061035,0.030518
12.268793,-0.081431,-0.872985,10.049502,0.086853,-0.105352,0.002122,-0.061035,0.061035,0.030518
12.278887,-0.082628,-0.869991,10.058483,0.085656,-0.102358,0.011103,-0.061035,0.091553,-0.030518
12.288983,-0.079634,-0.872985,10.058483,0.088649,-0.105352,0.011103,-0.061035,0.091553,0.000000
12.299079,-0.082029,-0.874781,10.051298,0.086254,-0.107148,0.003918,-0.061035,0.030518,0.030518
12.309174,-0.079634,-0.871787,10.045909,0.088649,-0.104154,-0.001471,-0.061035,0.061035,0.000000
12.319270,-0.081431,-0.871188,10.055490,0.086853,-0.103555,0.008109,-0.030518,0.030518,-0.030518
12.329366,-0.082029,-0.872985,10.051298,0.086254,-0.105352,0.003918,-0.061035,0.061035,-0.030518
12.339463,-0.085622,-0.875978,10.048304,0.082662,-0.108345,0.000924,-0.061035,0.061035,0.030518
12.349584,-0.088017,-0.868195,10.044113,0.080267,-0.100562,-0.003267,-0.030518,0.030518,0.030518
12.359693,-0.091011,-0.868195,10.045909,0.077273,-0.100562,-0.001471,-0.061035,0.061035,0.030518
12.369790,-0.089813,-0.869392,10.047107,0.078471,-0.101759,-0.000273,-0.030518,0.030518,0.030518
12.379888,-0.088616,-0.864003,10.052496,0.079668,-0.096370,0.005116,-0.091553,0.030518,0.061035
12.389985,-0.080832,-0.866398,10.045311,0.087452,-0.098765,-0.002069,-0.061035,0.030518,0.061035
12.400082,-0.072449,-0.866997,10.046508,0.095834,-0.099364,-0.000872,-0.061035,0.000000,0.061035
12.410179,-0.081431,-0.869392,10.042916,0.086853,-0.101759,-0.004464,-0.061035,0.000000,0.030518
12.420273,-0.079036,-0.867596,10.049502,0.089248,-0.099963,0.002122,-0.061035,0.000000,0.061035
12.430370,-0.079634,-0.870590,10.057885,0.088649,-0.102957,0.010504,-0.061035,0.000000,0.061035
12.440465,-0.091609,-0.872985,10.056088,0.076674,-0.105352,0.008708,-0.061035,0.030518,0.030518
12.450588,-0.095202,-0.871188,10.053094,0.073082,-0.103555,0.005714,-0.061035,0.000000,0.030518
12.460686,-0.089813,-0.873583,10.050699,0.078471,-0.105950,0.003319,-0.030518,0.030518,0.061035
12.470783,-0.086819,-0.872985,10.052496,0.081464,-0.105352,0.005116,-0.030518,0.030518,0.030518
