time,ax_raw,ay_raw,az_raw,ax,ay,az,gx,gy,gz
0.000684,-0.094603,0.569416,10.037527,0.002917,-0.002957,0.003995,0.000000,0.000000,0.030518
0.010751,-0.098795,0.563428,10.033336,-0.001275,-0.008945,-0.000196,0.030518,0.000000,0.030518
0.020819,-0.098196,0.570613,10.021360,-0.000676,-0.001760,-0.012171,0.061035,0.030518,0.061035
0.030886,-0.098795,0.572410,10.020163,-0.001275,0.000037,-0.013369,0.061035,0.030518,0.061035
0.040951,-0.099992,0.570613,10.018367,-0.002472,-0.001760,-0.015165,0.030518,0.030518,0.061035
0.051016,-0.094005,0.570613,10.026749,0.003515,-0.001760,-0.006782,0.061035,0.030518,0.061035
0.061083,-0.098795,0.569416,10.030342,-0.001275,-0.002957,-0.003190,0.030518,0.061035,0.061035
0.071149,-0.100591,0.569416,10.032737,-0.003071,-0.002957,-0.000795,0.030518,0.061035,0.030518
0.081214,-0.099393,0.565225,10.032138,-0.001873,-0.007148,-0.001394,0.030518,0.030518,0.030518
0.091280,-0.099992,0.563428,10.033934,-0.002472,-0.008945,0.000403,0.061035,0.000000,0.000000
0.101346,-0.097597,0.564027,10.033934,-0.000077,-0.008346,0.000403,0.061035,0.030518,0.030518
0.111411,-0.099992,0.559836,10.040521,-0.002472,-0.012537,0.006989,0.091553,0.030518,0.061035
0.121477,-0.101190,0.559237,10.035731,-0.003670,-0.013136,0.002199,0.061035,0.000000,0.061035
0.131544,-0.101788,0.561033,10.039323,-0.004268,-0.011340,0.005791,0.030518,0.061035,0.030518
0.141609,-0.099992,0.560435,10.032737,-0.002472,-0.011938,-0.000795,0.030518,0.030518,0.091553
0.151675,-0.096998,0.557441,10.032737,0.000522,-0.014932,-0.000795,0.030518,0.061035,0.091553
0.161741,-0.099393,0.572410,10.030941,-0.001873,0.000037,-0.002591,0.000000,0.000000,0.061035
0.171806,-0.101788,0.570015,10.028546,-0.004268,-0.002358,-0.004986,-0.030518,0.000000,0.061035
0.181872,-0.099992,0.568817,10.028546,-0.002472,-0.003556,-0.004986,-0.061035,0.030518,0.030518
0.191939,-0.099393,0.568218,10.029743,-0.001873,-0.004155,-0.003789,-0.061035,0.030518,0.030518
0.202005,-0.100591,0.570015,10.033934,-0.003071,-0.002358,0.000403,0.000000,0.061035,0.000000
0.212072,-0.104183,0.574805,10.039323,-0.006663,0.002432,0.005791,0.000000,0.061035,0.000000
0.222137,-0.104183,0.572410,10.036329,-0.006663,0.000037,0.002798,0.000000,0.030518,0.000000
0.232204,-0.103585,0.571212,10.029144,-0.006065,-0.001161,-0.004387,0.000000,0.030518,0.061035
0.242271,-0.101788,0.572410,10.029144,-0.004268,0.000037,-0.004387,0.000000,0.030518,0.061035
0.252338,-0.095801,0.570015,10.038126,0.001719,-0.002358,0.004594,0.061035,0.030518,0.030518
0.262404,-0.091609,0.572410,10.035731,0.005910,0.000037,0.002199,0.030518,0.030518,0.000000
0.272470,-0.090412,0.573008,10.032138,0.007108,0.000635,-0.001394,0.000000,0.030518,0.030518
0.282535,-0.095202,0.577798,10.030941,0.002318,0.005425,-0.002591,0.030518,0.030518,0.061035
0.292601,-0.096400,0.573008,10.033934,0.001120,0.000635,0.000403,0.061035,0.030518,0.091553
0.302667,-0.101788,0.574206,10.038126,-0.004268,0.001833,0.004594,0.030518,0.000000,0.061035
0.312733,-0.098795,0.580193,10.033934,-0.001275,0.007820,0.000403,0.061035,0.000000,0.091553
0.322799,-0.094005,0.576601,10.037527,0.003515,0.004228,0.003995,0.091553,0.000000,0.061035
0.332865,-0.095801,0.569416,10.030342,0.001719,-0.002957,-0.003190,0.091553,0.030518,0.030518
0.342935,-0.095801,0.566422,10.030342,0.001719,-0.005951,-0.003190,0.030518,0.030518,0.030518
0.353002,-0.099393,0.569416,10.039922,-0.001873,-0.002957,0.006390,0.030518,0.030518,0.030518
0.363069,-0.095801,0.573008,10.033934,0.001719,0.000635,0.000403,0.061035,0.000000,0.061035
0.373149,-0.102387,0.567620,10.026151,-0.004867,-0.004753,-0.007381,0.030518,0.000000,0.030518
0.383220,-0.101190,0.568817,10.021959,-0.003670,-0.003556,-0.011572,0.000000,0.000000,0.030518
0.393287,-0.096400,0.569416,10.020163,0.001120,-0.002957,-0.013369,0.000000,0.030518,0.061035
0.403352,-0.099992,0.568817,10.027947,-0.002472,-0.003556,-0.005585,0.030518,0.061035,0.061035
0.413417,-0.098795,0.573008,10.021959,-0.001275,0.000635,-0.011572,0.061035,0.030518,0.061035
0.423482,-0.109572,0.564027,10.024953,-0.012052,-0.008346,-0.008579,0.061035,0.000000,0.061035
0.433554,-0.110770,0.559237,10.018965,-0.013250,-0.013136,-0.014566,0.091553,0.000000,0.061035
0.443621,-0.108973,0.567021,10.027348,-0.011453,-0.005352,-0.006184,0.030518,0.000000,0.091553
0.453686,-0.108375,0.570015,10.021959,-0.010855,-0.002358,-0.011572,0.030518,0.000000,0.061035
0.463750,-0.104782,0.571811,10.009984,-0.007262,-0.000562,-0.023548,0.030518,-0.030518,0.061035
0.473814,-0.108375,0.572410,10.005793,-0.010855,0.000037,-0.027739,0.030518,0.000000,0.030518
0.483880,-0.107177,0.574206,10.009385,-0.009657,0.001833,-0.024146,0.000000,-0.030518,0.091553
0.493946,-0.104782,0.565823,10.012379,-0.007262,-0.006550,-0.021153,0.030518,-0.030518,0.061035
0.504014,-0.103585,0.558040,10.015373,-0.006065,-0.014333,-0.018159,0.000000,-0.030518,0.061035
0.514080,-0.099393,0.559836,10.014774,-0.001873,-0.012537,-0.018757,0.000000,0.000000,0.091553
0.524146,-0.103585,0.559836,10.008787,-0.006065,-0.012537,-0.024745,0.030518,0.000000,0.061035
0.534211,-0.102986,0.560435,10.011182,-0.005466,-0.011938,-0.022350,0.000000,-0.030518,0.030518
0.544276,-0.101788,0.561632,10.015972,-0.004268,-0.010741,-0.017560,0.000000,0.000000,0.061035
0.554349,-0.101788,0.564027,10.012379,-0.004268,-0.008346,-0.021153,-0.030518,0.000000,0.030518
0.564420,-0.113165,0.563428,10.011780,-0.015645,-0.008945,-0.021751,-0.030518,0.030518,0.030518
0.574485,-0.110770,0.564626,10.012379,-0.013250,-0.007747,-0.021153,-0.030518,0.030518,0.030518
0.584552,-0.101190,0.558040,10.019564,-0.003670,-0.014333,-0.013967,-0.061035,0.061035,0.000000
0.594617,-0.096400,0.555645,10.029743,0.001120,-0.016728,-0.003789,-0.061035,0.030518,0.000000
0.604683,-0.098795,0.566422,10.027348,-0.001275,-0.005951,-0.006184,0.000000,0.000000,0.000000
0.614754,-0.095202,0.566422,10.029144,0.002318,-0.005951,-0.004387,0.030518,0.030518,-0.030518
0.624819,-0.097597,0.571811,10.026151,-0.000077,-0.000562,-0.007381,0.030518,0.030518,-0.030518
0.634884,-0.101788,0.571212,10.023755,-0.004268,-0.001161,-0.009776,0.000000,0.030518,0.000000
0.644949,-0.100591,0.563428,10.029144,-0.003071,-0.008945,-0.004387,0.061035,0.061035,0.000000
0.655014,-0.102986,0.553848,10.030342,-0.005466,-0.018525,-0.003190,0.030518,0.000000,0.000000
0.665078,-0.105980,0.550854,10.029743,-0.008460,-0.021519,-0.003789,0.030518,0.030518,0.030518
0.675151,-0.098795,0.559836,10.024953,-0.001275,-0.012537,-0.008579,0.030518,0.030518,0.000000
0.685225,-0.101190,0.566422,10.022558,-0.003670,-0.005951,-0.010974,0.091553,0.061035,0.000000
0.695291,-0.098196,0.561632,10.022558,-0.000676,-0.010741,-0.010974,0.061035,0.091553,0.030518
0.705364,-0.095202,0.556243,10.029144,0.002318,-0.016130,-0.004387,0.030518,0.091553,0.030518
0.715429,-0.097597,0.556842,10.027348,-0.000077,-0.015531,-0.006184,0.061035,0.091553,0.000000
0.725494,-0.099992,0.564626,10.022558,-0.002472,-0.007747,-0.010974,0.030518,0.061035,0.030518
0.735559,-0.107776,0.562231,10.020762,-0.010256,-0.010142,-0.012770,0.061035,0.061035,0.030518
0.745677,-0.107776,0.565823,10.026749,-0.010256,-0.006550,-0.006782,0.061035,0.061035,0.061035
0.755769,-0.099992,0.569416,10.025552,-0.002472,-0.002957,-0.007980,0.091553,0.030518,0.061035
0.765847,-0.101190,0.569416,10.020163,-0.003670,-0.002957,-0.013369,0.030518,0.030518,0.030518
0.775911,-0.105980,0.554447,10.023157,-0.008460,-0.017926,-0.010375,0.000000,0.000000,0.061035
0.785996,-0.100591,0.555046,10.025552,-0.003071,-0.017327,-0.007980,0.000000,0.000000,0.061035
0.796060,-0.101190,0.565225,10.030941,-0.003670,-0.007148,-0.002591,0.000000,0.030518,0.030518
0.806127,-0.098196,0.571811,10.033336,-0.000676,-0.000562,-0.000196,0.030518,0.030518,0.030518
0.816193,-0.096400,0.578996,10.031539,0.001120,0.006623,-0.001992,0.030518,0.030518,0.030518
0.826259,-0.104183,0.569416,10.031539,-0.006663,-0.002957,-0.001992,0.030518,0.030518,0.061035
0.836327,-0.104782,0.573008,10.022558,-0.007262,0.000635,-0.010974,0.000000,0.030518,0.061035
0.846393,-0.094603,0.571811,10.035731,0.002917,-0.000562,0.002199,-0.030518,0.030518,0.061035
0.856465,-0.095801,0.572410,10.035731,0.001719,0.000037,0.002199,0.000000,0.030518,0.091553
0.866533,-0.091609,0.569416,10.030342,0.005910,-0.002957,-0.003190,0.000000,0.000000,0.030518
0.876600,-0.096998,0.568817,10.029743,0.000522,-0.003556,-0.003789,-0.030518,0.000000,0.030518
0.886666,-0.097597,0.565225,10.024953,-0.000077,-0.007148,-0.008579,-0.030518,-0.030518,0.030518
0.896732,-0.097597,0.562231,10.027348,-0.000077,-0.010142,-0.006184,-0.030518,0.000000,0.030518
0.906799,-0.095801,0.559237,10.030941,0.001719,-0.013136,-0.002591,0.000000,0.030518,0.030518
0.916864,-0.104183,0.562231,10.031539,-0.006663,-0.010142,-0.001992,0.000000,0.030518,0.030518
0.926930,-0.099393,0.558638,10.027348,-0.001873,-0.013735,-0.006184,0.000000,0.030518,0.030518
0.936996,-0.105980,0.553250,10.030941,-0.008460,-0.019123,-0.002591,0.000000,0.061035,0.030518
0.947062,-0.108375,0.553250,10.032138,-0.010855,-0.019123,-0.001394,0.030518,0.061035,0.061035
0.957128,-0.104183,0.559237,10.032138,-0.006663,-0.013136,-0.001394,0.030518,0.030518,0.061035
0.967193,-0.100591,0.558638,10.034533,-0.003071,-0.013735,0.001001,0.061035,0.061035,0.061035
0.977259,-0.100591,0.558638,10.030342,-0.003071,-0.013735,-0.003190,0.061035,0.030518,0.061035
0.987324,-0.101190,0.565823,10.027947,-0.003670,-0.006550,-0.005585,0.061035,0.030518,0.000000
0.997390,-0.098196,0.563428,10.029743,-0.000676,-0.008945,-0.003789,0.061035,0.030518,0.000000
1.007455,-0.099393,0.564027,10.031539,-0.001873,-0.008346,-0.001992,0.091553,0.061035,0.030518
1.017521,-0.101788,0.568218,10.028546,-0.004268,-0.004155,-0.004986,0.091553,0.061035,0.030518
1.027586,-0.105381,0.565225,10.024354,-0.007861,-0.007148,-0.009177,0.030518,0.000000,0.000000
1.037652,-0.098795,0.564027,10.029144,-0.001275,-0.008346,-0.004387,0.030518,0.030518,-0.030518
1.047717,-0.098196,0.569416,10.038126,-0.000676,-0.002957,0.004594,0.030518,0.030518,0.000000
1.057782,-0.092208,0.578397,10.029743,0.005312,0.006024,-0.003789,0.030518,0.061035,0.000000
1.067847,-0.091011,0.576601,10.028546,0.006509,0.004228,-0.004986,0.061035,0.030518,0.000000
1.077913,-0.095202,0.581990,10.028546,0.002318,0.009617,-0.004986,0.061035,0.030518,0.030518
1.087978,-0.094603,0.580792,10.029743,0.002917,0.008419,-0.003789,0.061035,0.000000,0.030518
1.098043,-0.096998,0.581990,10.035731,0.000522,0.009617,0.002199,0.061035,0.000000,0.061035
1.108109,-0.096998,0.581391,10.034533,0.000522,0.009018,0.001001,0.061035,-0.030518,0.061035
1.118174,-0.091609,0.584984,10.029743,0.005910,0.012611,-0.003789,0.091553,0.030518,0.061035
1.128240,-0.096400,0.576601,10.026151,0.001120,0.004228,-0.007381,0.122070,0.000000,0.030518
1.138307,-0.090412,0.577798,10.023157,0.007108,0.005425,-0.010375,0.122070,0.000000,0.061035
1.148372,-0.091609,0.574206,10.033934,0.005910,0.001833,0.000403,0.091553,0.030518,0.061035
1.158438,-0.094603,0.574206,10.032737,0.002917,0.001833,-0.000795,0.122070,0.000000,0.030518
1.168504,-0.091609,0.576601,10.029144,0.005910,0.004228,-0.004387,0.091553,0.030518,0.030518
1.178570,-0.098196,0.574206,10.024953,-0.000676,0.001833,-0.008579,0.091553,0.030518,0.030518
1.188636,-0.096998,0.570015,10.022558,0.000522,-0.002358,-0.010974,0.091553,0.061035,0.000000
1.198701,-0.096998,0.561632,10.030342,0.000522,-0.010741,-0.003190,0.061035,0.061035,0.000000
1.208768,-0.097597,0.562231,10.031539,-0.000077,-0.010142,-0.001992,0.091553,0.061035,0.061035
1.218834,-0.098196,0.554447,10.014774,-0.000676,-0.017926,-0.018757,0.091553,0.000000,0.061035
1.228900,-0.103585,0.547262,10.024354,-0.006065,-0.025111,-0.009177,0.091553,-0.030518,0.061035
1.238965,-0.113165,0.522713,10.079440,-0.015645,-0.049660,0.045908,1.037598,-0.366211,0.091553
1.249031,-0.106578,0.525108,10.074051,-0.009058,-0.047265,0.040519,1.800537,-0.671387,0.091553
1.259097,-0.103585,0.536484,10.060878,-0.006065,-0.035889,0.027347,2.868652,-1.037598,0.061035
1.269163,-0.099992,0.565823,10.035132,-0.002472,-0.006550,0.001600,3.173828,-1.129150,0.091553
1.279228,-0.089813,0.578397,10.021959,0.007707,0.006024,-0.011572,3.356934,-1.190186,0.061035
1.289294,-0.078437,0.596959,10.009385,0.019083,0.024586,-0.024146,3.265381,-1.159668,0.061035
1.299359,-0.080832,0.602946,10.003398,0.016688,0.030573,-0.030134,3.051758,-1.068115,0.061035
1.309464,-0.083227,0.602946,9.999207,0.014293,0.030573,-0.034325,2.532959,-0.915527,0.061035
1.319529,-0.094005,0.603545,10.012978,0.003515,0.031172,-0.020554,2.349854,-0.823975,0.030518
1.329595,-0.092807,0.589774,10.036329,0.004713,0.017401,0.002798,2.532959,-0.885010,0.030518
1.339660,-0.095801,0.581391,10.058483,0.001719,0.009018,0.024952,2.960205,-1.037598,0.030518
1.349725,-0.093406,0.581391,10.071656,0.004114,0.009018,0.038124,4.211426,-1.525879,0.091553
1.359790,-0.083227,0.623304,10.033934,0.014293,0.050931,0.000403,4.760742,-1.739502,0.091553
1.369855,-0.061073,0.674198,9.960886,0.036447,0.101825,-0.072645,4.699707,-1.708984,0.091553
1.379921,-0.047302,0.704734,9.921368,0.050218,0.132362,-0.112163,2.410889,-0.793457,0.061035
1.389987,-0.063468,0.678988,9.975256,0.034052,0.106615,-0.058275,1.220703,-0.366211,0.061035
1.400052,-0.077239,0.626896,10.044712,0.020281,0.054523,0.011180,0.885010,-0.244141,0.061035
1.410118,-0.076042,0.641865,10.023755,0.021478,0.069492,-0.009776,1.159668,-0.335693,0.061035
1.420183,-0.068258,0.670605,9.980046,0.029262,0.098232,-0.053485,0.610352,-0.122070,0.061035
1.430248,-0.070653,0.671803,9.981244,0.026867,0.099430,-0.052288,0.000000,0.091553,0.061035
1.440315,-0.079634,0.650847,10.009984,0.017886,0.078474,-0.023548,-0.305176,0.244141,0.030518
1.450380,-0.080233,0.637075,10.027947,0.017287,0.064702,-0.005585,-0.091553,0.183105,0.030518
1.460446,-0.077239,0.646057,10.012978,0.020281,0.073684,-0.020554,0.030518,0.091553,0.030518
1.470512,-0.074844,0.665815,9.988429,0.022676,0.093442,-0.045103,-0.274658,0.183105,0.030518
1.480578,-0.071252,0.659229,9.991423,0.026268,0.086856,-0.042109,-0.579834,0.274658,0.030518
1.490643,-0.068258,0.650248,10.001602,0.029262,0.077875,-0.031930,-0.762939,0.305176,-0.030518
1.500710,-0.070653,0.640069,10.017768,0.026867,0.067696,-0.015764,-0.701904,0.274658,0.030518
1.510776,-0.073048,0.644260,10.020762,0.024472,0.071887,-0.012770,-0.640869,0.244141,0.030518
1.520842,-0.073647,0.644859,10.008188,0.023873,0.072486,-0.025344,-0.549316,0.213623,0.000000
1.530907,-0.073048,0.643063,10.005793,0.024472,0.070690,-0.027739,-0.549316,0.213623,0.030518
1.540972,-0.077239,0.641865,10.011182,0.020281,0.069492,-0.022350,-0.671387,0.274658,0.000000
1.551037,-0.077838,0.629291,10.017169,0.019682,0.056918,-0.016362,-0.640869,0.274658,0.000000
1.561107,-0.080832,0.629291,10.023157,0.016688,0.056918,-0.010375,-0.335693,0.183105,-0.030518
1.571251,-0.083826,0.616718,10.035731,0.013694,0.044345,0.002199,-0.030518,0.061035,-0.030518
1.581317,-0.087418,0.612526,10.035731,0.010102,0.040153,0.002199,0.335693,-0.061035,0.000000
1.591383,-0.079036,0.631088,10.037527,0.018484,0.058715,0.003995,1.098633,-0.427246,0.030518
1.601449,-0.071252,0.639470,10.022558,0.026268,0.067097,-0.010974,1.281738,-0.488281,0.030518
1.611515,-0.062271,0.662223,9.997410,0.035249,0.089850,-0.036121,1.007080,-0.366211,0.000000
1.621580,-0.067061,0.650248,10.006990,0.030459,0.077875,-0.026541,0.762939,-0.274658,0.000000
1.631646,-0.068857,0.640668,10.021959,0.028663,0.068295,-0.011572,0.701904,-0.244141,0.030518
1.641712,-0.074246,0.639470,10.031539,0.023274,0.067097,-0.001992,0.823975,-0.274658,0.030518
1.651778,-0.074844,0.646057,10.024953,0.022676,0.073684,-0.008579,0.854492,-0.274658,0.061035
1.661843,-0.068857,0.654439,10.009385,0.028663,0.082066,-0.024146,0.640869,-0.244141,0.030518
1.671908,-0.068857,0.649649,10.018965,0.028663,0.077276,-0.014566,0.549316,-0.213623,0.000000
1.681974,-0.065863,0.650248,10.022558,0.031657,0.077875,-0.010974,0.579834,-0.183105,0.030518
1.692040,-0.064666,0.653840,10.022558,0.032854,0.081467,-0.010974,0.610352,-0.183105,0.000000
1.702105,-0.054487,0.657433,10.015972,0.043033,0.085060,-0.017560,0.549316,-0.122070,0.030518
1.712170,-0.013771,0.773591,9.777667,0.083749,0.201218,-0.255864,0.366211,0.030518,0.122070
1.722235,0.096998,1.132245,9.345965,0.194518,0.559872,-0.687567,-3.631592,1.708984,0.091553
1.732301,-0.333506,1.233435,10.029144,-0.235987,0.661062,-0.004387,-12.054443,4.486084,2.349854
1.742367,-0.446671,1.635200,10.014175,-0.349151,1.062827,-0.019356,-8.819580,3.936768,5.645752
1.752432,-0.436492,1.860930,9.932745,-0.338972,1.288557,-0.100787,-5.157471,2.838135,11.871338
1.762496,-0.303569,1.436413,10.018367,-0.206049,0.864040,-0.015165,-4.364014,2.868652,14.160156
1.772561,-0.130529,1.119073,9.847123,-0.033009,0.546700,-0.186409,-1.190186,2.624512,18.798828
1.782625,0.022753,-0.590372,10.163265,0.120273,-1.162745,0.129734,-0.244141,2.777100,20.660400
1.792690,0.067061,-0.652044,10.227332,0.164581,-1.224417,0.193800,0.732422,2.166748,16.784668
1.802754,0.120350,-0.664618,9.964479,0.217870,-1.236991,-0.069053,2.410889,0.885010,7.965088
1.812818,0.044308,-0.880768,10.165062,0.141828,-1.453141,0.131530,1.159668,0.152588,-0.030518
1.822883,-1.275348,0.636476,10.046508,-1.177828,0.064103,0.012977,2.532959,-0.579834,-7.354736
1.832947,-1.815425,0.911305,10.012379,-1.717905,0.338932,-0.021153,2.929688,-0.183105,-4.486084
1.843011,-1.720822,1.001118,10.022558,-1.623302,0.428745,-0.010974,3.051758,0.518799,-0.335693
1.853076,-0.784369,0.857417,10.026151,-0.686849,0.285044,-0.007381,2.105713,0.579834,0.091553
1.863140,-0.447270,0.750240,10.029144,-0.349750,0.177867,-0.004387,2.197266,0.427246,-0.762939
1.873204,-0.103585,0.539478,10.008188,-0.006065,-0.032895,-0.025344,2.258301,0.183105,-2.044678
1.883269,0.046104,0.517923,10.003398,0.143624,-0.054450,-0.030134,2.258301,0.183105,-2.868652
1.893333,0.046104,0.606539,10.020762,0.143624,0.034166,-0.012770,2.624512,-0.213623,-5.554199
1.903398,-0.111368,0.643661,10.044712,-0.013848,0.071289,0.011180,2.746582,-0.457764,-7.507324
1.913492,-0.149090,0.841849,10.023157,-0.051570,0.269476,-0.010375,1.373291,-1.129150,-13.061523
1.923586,-0.175435,0.844244,10.014175,-0.077915,0.271871,-0.019356,0.793457,-1.251221,-14.404297
1.933680,-0.292791,0.812510,10.005194,-0.195271,0.240137,-0.028338,0.793457,-1.312256,-14.739990
1.943773,-0.128732,0.559836,9.984238,-0.031212,-0.012537,-0.049294,1.403809,-1.190186,-13.793945
1.953865,-0.259860,0.559836,9.996213,-0.162340,-0.012537,-0.037319,2.624512,-1.068115,-13.336182
1.963959,-0.327519,0.552651,10.057885,-0.229999,-0.019722,0.024353,3.570557,-0.915527,-11.901855
1.974051,-0.410147,0.549058,10.027947,-0.312627,-0.023315,-0.005585,3.845215,-0.793457,-10.833740
1.984144,-0.385598,0.541873,10.054891,-0.288078,-0.030500,0.021359,2.685547,-0.885010,-10.009766
1.994237,-0.356858,0.591570,10.041119,-0.259338,0.019197,0.007588,2.258301,-0.854492,-9.033203
2.004366,-0.288001,0.522713,10.070458,-0.190481,-0.049660,0.036927,1.281738,-0.854492,-8.270264
2.014458,-0.411345,0.540676,10.039323,-0.313825,-0.031697,0.005791,0.579834,-0.915527,-8.544922
2.024555,-0.038919,0.474214,10.024354,0.058601,-0.098159,-0.009177,0.183105,-1.098633,-9.185791
2.034647,-0.325723,0.608335,10.027348,-0.228203,0.035962,-0.006184,1.190186,-1.159668,-9.185791
2.044743,-0.615520,0.578397,10.086625,-0.518000,0.006024,0.053093,1.007080,-1.129150,-8.819580
2.054854,-0.312550,0.680784,10.056687,-0.215030,0.108411,0.023155,0.122070,-1.068115,-9.277344
2.064944,-0.387394,0.701142,10.042317,-0.289874,0.128769,0.008785,0.396729,-1.129150,-9.246826
2.075035,-0.282612,0.682581,10.042916,-0.185092,0.110208,0.009384,0.549316,-1.434326,-8.697510
2.085127,-0.490380,0.594564,10.062076,-0.392860,0.022191,0.028544,0.091553,-1.525879,-8.331299
2.095220,-0.435894,0.649649,10.033336,-0.338374,0.077276,-0.000196,0.457764,-1.556396,-8.850098
2.105343,-0.124541,0.702938,10.000404,-0.027021,0.130565,-0.033128,0.183105,-1.251221,-7.263184
2.115436,-0.135917,0.710123,10.007589,-0.038397,0.137750,-0.025943,0.457764,-1.007080,-6.652832
2.125531,0.151485,0.686772,9.996812,0.249005,0.114399,-0.036720,1.403809,-0.396729,-4.211426
2.135623,0.167651,0.625100,9.999805,0.265171,0.052727,-0.033726,1.281738,-0.396729,-3.448486
2.145718,-0.015568,0.661624,10.023157,0.081952,0.089251,-0.010375,1.464844,-0.061035,-1.831055
2.155811,-0.257465,0.689766,10.039323,-0.159945,0.117393,0.005791,0.823975,0.152588,-1.586914
2.165907,-0.107776,0.715512,10.016570,-0.010256,0.143139,-0.016961,-0.305176,0.335693,-2.258301
2.176002,-0.247885,0.701741,10.040521,-0.150365,0.129368,0.006989,-0.762939,0.396729,-2.502441
2.186098,-0.153281,0.665815,10.020163,-0.055761,0.093442,-0.013369,-0.640869,0.488281,-2.960205
2.196195,-0.604742,0.618514,10.046508,-0.507222,0.046141,0.012977,-0.671387,0.885010,-2.136230
2.206316,-0.441282,0.527503,10.055490,-0.343762,-0.044870,0.021958,-1.159668,0.946045,-1.464844
2.216411,-0.492177,0.517324,10.056687,-0.394657,-0.055049,0.023155,-1.556396,0.732422,-0.366211
2.226504,-0.555645,0.516725,10.043514,-0.458125,-0.055648,0.009983,-2.441406,0.549316,0.000000
2.236599,-0.589774,0.467628,9.987231,-0.492254,-0.104745,-0.046300,-3.875732,-0.244141,-1.129150
2.246694,-0.455054,0.373623,10.125544,-0.357534,-0.198750,0.092012,-3.692627,-0.640869,-2.746582
2.256790,-0.566422,0.277822,10.070458,-0.468902,-0.294551,0.036927,-3.021240,-1.251221,-4.730225
2.266886,-0.228724,0.416733,10.019564,-0.131204,-0.155640,-0.013967,-1.037598,-2.136230,-9.307861
2.276980,-0.231718,0.505349,10.032138,-0.134198,-0.067024,-0.001394,-0.152588,-2.319336,-9.887695
2.287076,-0.096400,0.614323,9.973460,0.001120,0.041950,-0.060072,0.793457,-2.014160,-10.833740
2.297171,0.111967,0.708926,9.993219,0.209487,0.136553,-0.040313,0.640869,-1.892090,-11.535645
2.307292,0.091609,0.769999,10.003398,0.189129,0.197626,-0.030134,1.098633,-1.373291,-9.765625
2.317388,-0.481399,0.674797,10.015972,-0.383879,0.102424,-0.017560,0.762939,-1.159668,-8.026123
2.327484,-0.591570,0.612526,10.044712,-0.494050,0.040153,0.011180,0.396729,-0.885010,-7.537842
2.337580,-0.214953,0.822090,9.969269,-0.117433,0.249717,-0.064263,1.617432,-0.457764,-8.331299
2.347672,-0.476609,0.826880,10.016570,-0.379089,0.254507,-0.016961,2.105713,-0.396729,-7.324219
2.357767,-0.346080,0.841251,10.033336,-0.248560,0.268878,-0.000196,1.464844,-0.396729,-7.476807
2.367862,-0.201780,0.823288,9.989626,-0.104260,0.250915,-0.043905,1.281738,-0.274658,-7.446289
2.377958,-0.384999,0.654439,9.987231,-0.287479,0.082066,-0.046300,1.922607,-0.091553,-6.713867
2.388054,-0.525108,0.680784,10.014175,-0.427588,0.108411,-0.019356,1.129150,0.030518,-5.401611
2.398150,-0.328118,0.507744,10.037527,-0.230598,-0.064629,0.003995,2.838135,0.244141,-6.103516
2.408270,-0.476010,0.634081,10.045909,-0.378490,0.061708,0.012378,2.655029,0.152588,-6.042480
2.418365,-0.346679,0.599354,10.035132,-0.249159,0.026981,0.001600,2.380371,0.335693,-6.835938
2.428461,-0.607137,0.743654,10.017169,-0.509617,0.171281,-0.016362,2.441406,0.335693,-8.056641
2.438556,-0.852028,0.609532,10.089020,-0.754508,0.037159,0.055488,0.671387,0.030518,-8.026123
2.448649,-0.670007,0.690364,9.995015,-0.572487,0.117991,-0.038516,0.579834,0.061035,-9.429932
2.458744,-0.727487,0.505948,10.037527,-0.629967,-0.066425,0.003995,1.159668,0.030518,-9.643555
2.468843,-0.641266,0.651445,10.034533,-0.543747,0.079072,0.001001,1.220703,-0.244141,-10.192871
2.478940,-0.664019,0.853824,10.063872,-0.566499,0.281451,0.030340,0.976562,-0.518799,-10.864258
2.489037,-0.937650,1.021476,9.988429,-0.840130,0.449103,-0.045103,0.244141,-0.396729,-8.514404
2.499132,-0.704136,0.577200,10.036329,-0.606616,0.004827,0.002798,-1.129150,-0.244141,-7.110596
2.509257,-0.728086,0.557441,10.066267,-0.630566,-0.014932,0.032735,-1.312256,-0.305176,-8.575439
2.519353,-0.934058,0.678389,10.026749,-0.836538,0.106016,-0.006782,-0.091553,-0.305176,-8.178711
2.529448,-0.544867,0.738864,10.017169,-0.447347,0.166491,-0.016362,-0.213623,-0.244141,-6.683350
2.539544,-0.565225,0.788560,10.087822,-0.467705,0.216187,0.054291,1.251221,-1.007080,-4.211426
2.549639,-0.700543,0.729283,9.984238,-0.603023,0.156910,-0.049294,1.770020,-1.098633,-4.058838
2.559735,-0.526904,0.861608,10.018367,-0.429384,0.289235,-0.015165,1.129150,-0.854492,-1.495361
2.569832,-0.247286,0.776585,10.057885,-0.149766,0.204212,0.024353,1.678467,-0.030518,0.732422
2.579928,-0.339494,0.701741,10.000404,-0.241974,0.129368,-0.033128,3.173828,0.518799,-0.213623
2.590025,-0.683778,0.716710,9.996213,-0.586258,0.144337,-0.037319,1.464844,1.403809,-0.183105
2.600123,-0.840652,0.628693,10.009385,-0.743132,0.056320,-0.024146,-0.640869,1.739502,-0.244141
2.610315,-0.516725,0.646655,10.086625,-0.419206,0.074282,0.053093,-2.746582,1.251221,-1.434326
2.620405,-0.121547,0.771196,10.026151,-0.024027,0.198823,-0.007381,-3.723145,0.213623,-3.326416
2.630496,-0.070054,0.874182,10.036329,0.027466,0.301809,0.002798,-2.014160,-1.281738,-3.204346
2.640582,-0.769400,0.713716,10.024354,-0.671880,0.141343,-0.009177,-0.335693,-2.136230,-3.356934
2.650672,-0.972378,0.840652,9.993818,-0.874858,0.268279,-0.039714,2.593994,-1.617432,-3.173828
2.660762,-0.716111,0.640668,9.930948,-0.618591,0.068295,-0.102583,0.488281,-0.793457,-1.434326
2.670851,-0.755030,0.538879,9.910591,-0.657510,-0.033494,-0.122941,0.335693,-0.091553,-0.732422
2.680940,-1.425037,0.755629,10.127340,-1.327517,0.183256,0.093808,0.244141,1.617432,0.305176
2.691030,-1.081950,0.527503,10.073452,-0.984430,-0.044870,0.039920,-0.640869,0.915527,0.366211
2.701120,-0.508343,0.708327,9.944121,-0.410823,0.135954,-0.089411,3.082275,0.549316,0.061035
2.711278,-1.260978,0.684976,10.039922,-1.163458,0.112603,0.006390,2.136230,0.305176,1.525879
2.721374,-1.135239,0.804727,9.972263,-1.037719,0.232354,-0.061269,0.854492,0.396729,2.258301
2.731470,-1.008902,0.690364,9.966874,-0.911382,0.117991,-0.066658,2.685547,-0.549316,2.899170
2.741565,-0.907712,0.830473,10.018965,-0.810192,0.258100,-0.014566,2.380371,-0.854492,1.556396
2.751660,-0.983156,0.661624,10.038126,-0.885636,0.089251,0.004594,1.953125,-0.366211,-0.213623
2.761756,-0.898132,0.869991,9.986034,-0.800612,0.297618,-0.047498,1.739502,-0.091553,-1.586914
2.771849,-0.731678,0.833467,9.896221,-0.634159,0.261094,-0.137311,0.335693,1.129150,0.366211
2.781945,-0.446072,1.052611,9.756112,-0.348552,0.480238,-0.277420,0.762939,1.251221,1.953125
2.792042,-0.453856,0.940644,10.142309,-0.356336,0.368271,0.108777,2.349854,1.037598,2.380371
2.802141,-0.829276,0.949026,10.021959,-0.731756,0.376653,-0.011572,2.044678,0.640869,-0.122070
2.812276,-0.613125,0.820893,10.030342,-0.515605,0.248520,-0.003190,0.152588,0.732422,-0.854492
2.822374,-0.359852,0.862806,9.869277,-0.262332,0.290433,-0.164255,0.671387,-1.129150,-6.286621
2.832470,-0.145497,1.004112,9.983040,-0.047977,0.431739,-0.050492,2.166748,-1.342773,-8.758545
2.842568,-0.434097,1.098116,10.068662,-0.336577,0.525743,0.035130,2.227783,-1.068115,-10.162354
2.852665,-0.162263,1.054407,9.979448,-0.064743,0.482034,-0.054084,1.495361,-0.915527,-11.596680
2.862761,-0.073647,1.229843,9.852512,0.023873,0.657470,-0.181020,1.373291,-0.213623,-12.817383
2.872858,-0.403561,0.994532,10.047706,-0.306041,0.422159,0.014174,0.122070,-0.854492,-14.739990
2.882949,-0.403561,1.068777,9.949510,-0.306041,0.496404,-0.084022,0.762939,-0.976562,-14.556885
2.893044,-0.137115,0.962199,10.038724,-0.039595,0.389826,0.005193,-0.152588,-1.770020,-13.885498
2.903137,-0.616718,0.861608,9.899813,-0.519198,0.289235,-0.133718,0.610352,-1.678467,-12.176514
2.913228,-0.628693,0.671803,9.986034,-0.531173,0.099430,-0.047498,-0.793457,-2.166748,-10.559082
2.923319,-0.384999,0.369432,9.914183,-0.287479,-0.202941,-0.119348,-1.281738,-2.075195,-11.962891
2.933414,-0.197589,0.950823,9.948911,-0.100069,0.378450,-0.084621,-1.312256,-2.136230,-16.754150
2.943504,-0.648452,0.971180,9.979448,-0.550932,0.398807,-0.054084,-1.342773,-1.251221,-14.862061
2.953595,-0.432900,0.701142,10.083631,-0.335380,0.128769,0.050099,-2.685547,-0.885010,-13.671875
2.963689,-0.098196,0.725691,10.233918,-0.000676,0.153318,0.200387,-1.708984,-1.281738,-14.801025
2.973780,0.143102,0.874182,9.884246,0.240622,0.301809,-0.149286,0.061035,0.030518,-13.610840
2.983871,-0.526904,0.640069,9.948911,-0.429384,0.067696,-0.084621,-1.037598,0.213623,-8.972168
2.993964,-0.432900,0.458047,10.062076,-0.335380,-0.114326,0.028544,-1.312256,-0.518799,-7.629395
3.004058,0.315544,0.318538,10.075847,0.413064,-0.253835,0.042316,0.213623,-1.007080,-6.744385
3.014150,0.185614,0.539478,9.994417,0.283134,-0.032895,-0.039115,1.556396,-0.915527,-4.760742
3.024245,-0.040117,0.480800,10.036329,0.057403,-0.091573,0.002798,1.281738,-0.518799,-2.868652
3.034335,-0.026345,0.523312,9.971664,0.071175,-0.049061,-0.061868,0.701904,-0.091553,-2.624512
3.044426,0.146695,0.261656,10.142908,0.244215,-0.310717,0.109376,-0.732422,-0.366211,-3.265381
3.054520,0.107776,0.632884,10.034533,0.205296,0.060511,0.001001,-1.464844,0.061035,-7.019043
3.064614,-0.032932,0.638273,9.986034,0.064588,0.065900,-0.047498,-1.861572,-0.671387,-7.629395
3.074705,-0.441282,0.678389,10.229727,-0.343762,0.106016,0.196196,-0.640869,-0.854492,-7.781982
3.084803,-0.108375,0.719703,9.871672,-0.010855,0.147330,-0.161860,-0.457764,-0.305176,-6.591797
3.094894,-0.156275,0.650847,9.948911,-0.058755,0.078474,-0.084621,0.305176,0.457764,-4.180908
3.104989,-0.511935,0.868793,10.020163,-0.414415,0.296420,-0.013369,0.640869,1.159668,0.701904
3.115109,-0.846041,0.792751,10.008188,-0.748521,0.220378,-0.025344,-1.312256,0.518799,3.509521
3.125204,-0.252675,0.435894,9.995614,-0.155155,-0.136479,-0.037918,-1.525879,-0.823975,1.953125
3.135295,-0.176034,0.762215,10.071656,-0.078514,0.189842,0.038124,-1.495361,-0.946045,2.014160
3.145391,-0.365240,0.679587,10.035731,-0.267721,0.107214,0.002199,0.274658,-0.091553,4.669189
3.155483,-0.387993,0.662822,10.026749,-0.290473,0.090449,-0.006782,0.183105,-0.732422,9.094238
3.165577,0.257465,0.532293,9.968670,0.354985,-0.040080,-0.064862,1.190186,-0.579834,7.781982
3.175669,-0.247885,0.743654,9.918375,-0.150365,0.171281,-0.115157,1.007080,0.000000,8.270264
3.185764,-0.501757,0.790356,10.098600,-0.404237,0.217983,0.065068,0.946045,0.061035,9.002686
3.195856,-0.011975,0.414937,10.160272,0.085545,-0.157436,0.126740,-0.885010,1.190186,10.284424
3.205951,0.238304,0.623903,10.067465,0.335824,0.051530,0.033933,1.983643,2.319336,8.575439
3.216072,-1.020278,0.726290,9.995614,-0.922758,0.153917,-0.037918,1.586914,1.770020,6.469727
3.226167,-0.862806,0.625699,9.912387,-0.765286,0.053326,-0.121145,-1.525879,1.342773,5.645752
3.236264,-0.383203,0.439486,10.144704,-0.285683,-0.132887,0.111172,-1.800537,1.342773,1.525879
3.246358,-0.256267,1.244811,10.040521,-0.158747,0.672438,0.006989,-1.647949,0.457764,-0.122070
3.256454,-0.586181,1.038241,9.930350,-0.488661,0.465868,-0.103182,-3.356934,0.854492,1.861572
3.266551,-0.621508,0.680784,9.993219,-0.523988,0.108411,-0.040313,-1.800537,1.281738,0.122070
3.276646,-0.176633,0.786165,9.875264,-0.079113,0.213792,-0.158267,-0.274658,0.183105,2.075195
3.286737,-0.577200,0.983156,9.974059,-0.479680,0.410783,-0.059473,1.098633,1.586914,4.821777
3.296834,-0.371228,1.168171,9.862690,-0.273708,0.595798,-0.170841,1.403809,1.617432,6.042480
3.306928,-0.278421,1.122067,9.883647,-0.180901,0.549694,-0.149885,4.394531,1.617432,7.019043
3.317051,-0.705932,0.985551,9.992620,-0.608412,0.413178,-0.040911,5.828857,0.610352,6.439209
3.327147,-1.233435,1.203497,9.924961,-1.135915,0.631124,-0.108571,6.164551,1.708984,6.713867
3.337245,-0.236508,1.369352,10.050101,-0.138988,0.796979,0.016569,2.960205,1.770020,4.547119
3.347339,-0.727487,1.104703,9.843530,-0.629967,0.532330,-0.190001,3.723145,2.380371,6.408691
3.357435,-0.728685,0.653242,10.063872,-0.631165,0.080869,0.030340,0.854492,1.159668,7.080078
3.367531,0.124541,0.805325,9.904603,0.222061,0.232952,-0.128928,2.532959,-1.800537,3.021240
3.377627,0.271236,1.122665,9.690249,0.368756,0.550292,-0.343283,6.866455,-0.793457,4.211426
3.387724,-1.283730,0.831671,10.180629,-1.186211,0.259298,0.147098,5.523682,0.549316,9.490967
3.397821,-1.002316,0.810714,10.108779,-0.904796,0.238341,0.075247,1.892090,1.281738,11.474609
3.407918,-0.857417,0.882565,9.991423,-0.759897,0.310192,-0.042109,1.647949,-0.976562,5.371094
3.418040,-0.172441,0.893941,9.895622,-0.074921,0.321568,-0.137910,0.610352,-1.342773,3.845215
3.428136,-1.080753,0.977767,10.152488,-0.983233,0.405394,0.118956,0.091553,2.349854,4.760742
3.438232,-0.510139,1.044229,10.009984,-0.412619,0.471856,-0.023548,0.122070,2.105713,5.096436
3.448328,-0.690963,0.969983,9.887239,-0.593443,0.397610,-0.146292,0.885010,1.098633,3.997803
3.458424,-0.641266,0.776585,10.077045,-0.543747,0.204212,0.043513,1.342773,1.037598,4.180908
3.468527,-0.212558,0.502954,9.898616,-0.115038,-0.069419,-0.134916,3.784180,2.044678,1.129150
3.478624,-0.339494,0.974174,10.140513,-0.241974,0.401801,0.106981,3.540039,1.770020,2.929688
3.488720,-0.140707,1.444796,10.181228,-0.043187,0.872423,0.147696,5.615234,1.007080,4.089355
3.498817,-0.176633,0.563428,9.949510,-0.079113,-0.008945,-0.084022,-2.563477,2.532959,5.584717
3.508911,0.254471,0.798739,9.960886,0.351991,0.226366,-0.072645,-0.701904,2.319336,1.281738
3.519095,-0.121547,0.981958,9.958491,-0.024027,0.409585,-0.075040,0.610352,1.739502,-0.732422
3.529186,0.201780,0.912502,10.020762,0.299300,0.340129,-0.012770,-0.427246,1.525879,-2.502441
3.539277,0.644260,0.758622,9.829759,0.741780,0.186249,-0.203773,2.105713,1.647949,-4.730225
3.549366,-1.161584,0.638871,10.127340,-1.064065,0.066498,0.093808,-2.410889,1.281738,-5.676270
3.559457,-0.037722,0.924478,10.062675,0.059798,0.352105,0.029143,-6.530762,-1.251221,-8.117676
3.569546,0.709525,0.782573,9.887838,0.807044,0.210200,-0.145694,-5.249023,-3.631592,-11.566162
3.579636,0.361049,0.804128,9.911788,0.458569,0.231755,-0.121743,-3.662109,-4.913330,-12.268066
3.589725,0.163460,1.056802,9.876462,0.260980,0.484429,-0.157070,-4.547119,-4.364014,-3.570557
3.599815,0.094005,0.846041,9.932146,0.191524,0.273668,-0.101386,-3.570557,-2.258301,1.129150
3.609905,0.326321,0.819695,9.945917,0.423841,0.247322,-0.087614,-2.868652,0.915527,8.056641
3.620056,-0.294587,0.827479,9.992021,-0.197067,0.255106,-0.041510,-2.410889,1.220703,9.246826
3.630153,-0.546663,0.849633,10.038724,-0.449143,0.277260,0.005193,-1.617432,1.342773,9.552002
3.640248,-0.544867,0.631088,10.034533,-0.447347,0.058715,0.001001,-0.213623,-1.251221,2.899170
3.650344,0.105980,0.769400,9.895023,0.203500,0.197027,-0.138508,-0.640869,-2.197266,0.488281
3.660441,-0.566422,1.245410,9.769883,-0.468902,0.673037,-0.263648,-0.701904,0.091553,3.234863
3.670538,-0.832868,0.979563,9.917776,-0.735348,0.407190,-0.115756,-1.220703,1.342773,4.791260
3.680635,-0.236508,0.652643,9.955497,-0.138988,0.080270,-0.078034,-1.342773,2.136230,-1.312256
3.690732,-0.250280,0.787363,10.001602,-0.152760,0.214990,-0.031930,-0.885010,2.105713,-1.434326
3.700829,-0.491578,0.614921,10.026151,-0.394058,0.042548,-0.007381,0.762939,1.708984,-2.014160
3.710925,-0.029938,1.001717,10.009984,0.067582,0.429344,-0.023548,-0.366211,0.946045,0.427246
3.721046,0.231119,1.135239,9.910591,0.328639,0.562866,-0.122941,0.915527,1.373291,2.716064
3.731142,-0.216151,1.187331,9.947115,-0.118631,0.614958,-0.086417,0.946045,2.838135,14.617920
3.741239,0.329914,0.690364,9.910591,0.427434,0.117991,-0.122941,-0.457764,2.105713,17.364502
3.751336,0.367037,0.941841,10.057286,0.464557,0.369468,0.023754,0.396729,-0.305176,14.038086
3.761430,-0.069456,0.852627,10.001602,0.028064,0.280254,-0.031930,-1.739502,-0.335693,17.913818
3.771527,0.584385,0.615520,9.972861,0.681905,0.043147,-0.060670,-4.364014,1.007080,18.493652
3.781622,0.809517,0.640069,10.067465,0.907037,0.067696,0.033933,-3.845215,1.892090,17.089844
3.791719,0.586181,0.613125,10.090217,0.683701,0.040752,0.056686,-3.356934,1.770020,16.296387
3.801815,0.537083,0.842448,9.789044,0.634603,0.270075,-0.244488,-2.258301,1.464844,19.012451
3.811911,0.579595,0.659229,9.877061,0.677115,0.086856,-0.156471,-3.143311,1.342773,20.172119
3.822033,0.194595,0.510738,9.974059,0.292115,-0.061635,-0.059473,-2.105713,1.251221,16.357422
3.832129,0.462838,0.477208,9.851913,0.560357,-0.095165,-0.181619,-2.593994,-0.091553,13.488770
3.842228,0.542472,0.611927,9.869277,0.639992,0.039554,-0.164255,1.251221,0.244141,8.758545
3.852324,-0.340692,0.692161,9.986034,-0.243172,0.119788,-0.047498,0.701904,0.579834,9.460449
3.862420,-0.182021,0.476609,10.123748,-0.084502,-0.095764,0.090216,-0.213623,0.488281,9.033203
3.872513,0.207169,0.799338,10.005194,0.304689,0.226965,-0.028338,3.234863,-0.061035,2.899170
3.882610,0.002395,0.738864,9.936337,0.099915,0.166491,-0.097194,2.716064,0.671387,1.953125
3.892707,-0.458646,0.565225,10.016570,-0.361126,-0.007148,-0.016961,-0.305176,0.610352,0.183105
3.902797,0.111967,0.642464,10.018367,0.209487,0.070091,-0.015165,-1.037598,0.000000,-3.173828
3.912894,0.567021,0.798140,9.833351,0.664541,0.225767,-0.200180,2.380371,-0.549316,-3.448486
3.922988,-0.866398,0.800535,10.021360,-0.768878,0.228162,-0.012171,3.082275,0.030518,-2.197266
3.933079,-0.151485,0.111967,10.097402,-0.053965,-0.460406,0.063871,1.556396,0.579834,-4.425049
3.943172,0.410147,0.743654,9.884246,0.507667,0.171281,-0.149286,2.105713,0.976562,-5.096436
3.953264,0.167651,0.884361,10.121951,0.265171,0.311988,0.088420,1.892090,1.159668,-1.525879
3.963356,-0.162861,0.526904,9.928553,-0.065341,-0.045469,-0.104978,2.868652,-0.030518,0.946045
3.973451,0.018561,0.417332,9.983040,0.116081,-0.155041,-0.050492,1.556396,-0.091553,0.244141
3.983548,0.034728,0.966390,9.935739,0.132248,0.394017,-0.097793,-0.640869,-0.122070,0.854492
3.993639,-0.303569,0.868195,9.985435,-0.206049,0.295822,-0.048096,-0.762939,-0.335693,3.814697
4.003731,-0.098196,0.836461,10.018367,-0.000676,0.264088,-0.015165,-0.396729,-1.251221,3.051758
4.013823,-0.505349,0.802332,9.969269,-0.407829,0.229959,-0.064263,0.762939,-0.762939,0.335693
4.023940,-0.470621,0.688568,10.092612,-0.373101,0.116195,0.059081,-1.190186,0.000000,-0.427246
4.034031,0.032333,0.874182,10.063872,0.129853,0.301809,0.030340,-1.434326,-0.183105,-4.974365
4.044125,-0.333506,0.772993,9.991423,-0.235987,0.200620,-0.042109,-1.373291,-0.671387,-6.500244
4.054216,-0.019759,0.848436,9.804012,0.077761,0.276063,-0.229519,0.061035,-0.640869,-7.598877
4.064309,-0.479004,0.670605,10.077643,-0.381484,0.098232,0.044112,-1.495361,-1.068115,-7.354736
4.074402,-0.007784,0.532293,10.032737,0.089736,-0.040080,-0.000795,-0.671387,-1.678467,-8.605957
4.084497,-0.447270,0.779579,9.896819,-0.349750,0.207206,-0.136712,-0.793457,-1.647949,-5.615234
4.094588,-0.183818,0.460443,10.051897,-0.086298,-0.111930,0.018365,-0.061035,-1.617432,-5.889893
4.104685,-0.221539,1.049019,9.850715,-0.124019,0.476646,-0.182816,2.349854,-0.976562,-4.730225
4.114777,-0.894540,0.645458,10.105785,-0.797020,0.073085,0.072253,2.014160,-0.976562,-3.387451
4.124896,-0.059875,0.120350,9.915980,0.037644,-0.452023,-0.117552,-5.157471,-1.739502,-6.408691
4.134989,0.132924,0.568817,9.816586,0.230444,-0.003556,-0.216945,0.854492,-1.586914,-10.955811
4.145084,-0.447270,0.980162,10.011182,-0.349750,0.407789,-0.022350,-1.495361,-0.183105,-7.843018
4.155175,-0.501158,0.424517,9.929152,-0.403638,-0.147856,-0.104379,-3.967285,-0.366211,-7.110596
4.165272,-0.265847,0.546064,10.038126,-0.168327,-0.026309,0.004594,-2.319336,0.518799,-7.324219
4.175363,-0.314346,0.876577,9.988429,-0.216826,0.304204,-0.045103,0.823975,1.464844,-7.232666
4.185454,-0.441881,1.200504,10.196796,-0.344361,0.628131,0.163264,3.021240,0.640869,-4.058838
4.195547,-0.643661,1.076561,10.063872,-0.546142,0.504188,0.030340,2.258301,0.152588,2.197266
4.205642,-0.613125,0.549058,10.135723,-0.515605,-0.023315,0.102191,-1.800537,0.518799,2.258301
4.215733,0.323926,0.159868,9.924362,0.421446,-0.412505,-0.109169,5.065918,0.274658,-5.645752
4.225854,-0.551453,1.261577,9.947115,-0.453933,0.689204,-0.086417,-0.122070,0.549316,-2.471924
4.235976,-0.200583,0.588576,9.923165,-0.103063,0.016203,-0.110367,-2.502441,1.068115,-5.035400
4.246071,0.230521,0.665217,9.896819,0.328041,0.092844,-0.136712,-0.671387,0.976562,-6.469727
4.256168,-0.561033,0.843646,10.228530,-0.463513,0.271273,0.194998,0.885010,1.464844,-7.049561
4.266263,-0.384999,0.680186,9.993818,-0.287479,0.107813,-0.039714,3.051758,-1.892090,-4.486084
4.276356,-0.232916,0.754431,9.939930,-0.135396,0.182058,-0.093602,4.821777,-0.701904,-3.997803
4.286453,-0.343087,0.938848,9.990225,-0.245567,0.366475,-0.043306,-1.892090,0.335693,-0.854492
4.296548,0.057480,1.046624,9.920171,0.155000,0.474251,-0.113361,-2.166748,-0.091553,0.915527
4.306643,0.092208,0.623304,10.110575,0.189728,0.050931,0.077043,0.854492,0.732422,-1.831055
4.316740,-0.578397,0.920286,10.028546,-0.480877,0.347913,-0.004986,-1.312256,1.159668,-2.929688
4.326859,0.026944,0.845442,9.706415,0.124464,0.273069,-0.327116,-0.396729,0.915527,-4.241943
4.336954,-1.059197,0.996927,10.001602,-0.961677,0.424554,-0.031930,2.716064,-0.335693,-8.728027
4.347052,-0.689766,0.726290,10.047107,-0.592246,0.153917,0.013575,-0.701904,-0.183105,-8.087158
4.357150,-0.353864,0.864602,9.949510,-0.256344,0.292229,-0.084022,3.662109,-1.556396,-10.559082
4.367245,-0.725691,1.122665,9.954899,-0.628171,0.550292,-0.078633,3.906250,-1.342773,-11.138916
4.377341,-1.087339,0.960403,9.874067,-0.989819,0.388030,-0.159465,1.678467,-0.701904,-11.291504
4.387438,-1.056802,0.675396,9.878258,-0.959282,0.103023,-0.155274,1.251221,-0.183105,-16.082764
4.397533,-0.682581,0.992137,10.036928,-0.585061,0.419764,0.003396,-0.823975,0.976562,-13.916016
4.407630,0.043709,1.033451,9.863289,0.141229,0.461078,-0.170242,2.807617,0.213623,-11.322021
4.417726,-0.141306,1.253793,9.908196,-0.043786,0.681420,-0.125336,5.981445,0.122070,-10.894775
4.427901,-0.454455,0.762215,10.053094,-0.356935,0.189842,0.019563,3.082275,-2.380371,-6.835938
4.437992,-1.229244,1.432820,10.069860,-1.131724,0.860447,0.036328,3.753662,-1.464844,-2.563477
4.448081,-1.167572,1.021476,10.155482,-1.070052,0.449103,0.121950,-2.624512,1.647949,7.965088
4.458171,-0.601749,0.859213,10.054891,-0.504229,0.286840,0.021359,-1.037598,1.068115,8.361816
4.468262,-0.937051,0.573607,10.197394,-0.839531,0.001234,0.163863,1.556396,-1.770020,2.258301
4.478352,-0.773591,0.625100,9.859697,-0.676071,0.052727,-0.173835,1.129150,-1.922607,-2.471924
4.488442,-0.666414,0.920885,10.002200,-0.568894,0.348512,-0.031331,0.457764,-2.105713,-3.631592
4.498528,-0.674198,1.231040,9.833950,-0.576678,0.658667,-0.199581,0.091553,-0.091553,-5.249023
4.508618,-0.617915,0.922083,10.325528,-0.520395,0.349710,0.291996,-1.739502,1.495361,-1.464844
4.518705,0.241897,1.019680,10.047706,0.339417,0.447307,0.014174,-3.295898,1.190186,-0.946045
4.528865,0.426912,1.080154,9.880054,0.524432,0.507781,-0.153477,-1.617432,-0.030518,0.152588
4.538963,-0.186812,1.043031,10.217752,-0.089292,0.470658,0.184220,-1.831055,-2.990723,-4.699707
4.549060,0.866997,1.415457,9.877061,0.964517,0.843084,-0.156471,0.091553,-3.173828,-1.586914
4.559155,0.316143,1.422043,10.009984,0.413663,0.849670,-0.023548,2.502441,-1.556396,0.762939
4.569252,-0.189207,0.811912,9.909393,-0.091687,0.239539,-0.124138,0.122070,0.518799,-1.098633
4.579348,0.413740,0.910706,9.797426,0.511260,0.338333,-0.236106,0.549316,0.305176,-5.065918
4.589443,0.606539,1.304088,9.967473,0.704059,0.731715,-0.066059,0.640869,-2.166748,-12.359619
4.599536,0.070653,1.523232,9.829160,0.168173,0.950859,-0.204372,0.549316,-2.319336,-8.819580
4.609634,-0.043110,1.157393,9.897418,0.054410,0.585020,-0.136113,-2.563477,-1.373291,-5.767822
4.619729,0.547262,1.089734,9.743538,0.644782,0.517361,-0.289993,-1.403809,0.061035,-3.631592
4.629916,0.308958,0.977767,9.774075,0.406477,0.405394,-0.259457,-0.701904,1.464844,-0.732422
4.640006,-0.674198,1.346600,10.069860,-0.576678,0.774227,0.036328,-3.265381,2.227783,2.044678
4.650095,0.458047,0.687969,10.039922,0.555567,0.115596,0.006390,-3.631592,2.380371,0.427246
4.660183,-0.488584,1.038241,10.075248,-0.391064,0.465868,0.041717,-0.061035,0.366211,-4.913330
4.670273,0.077239,0.872386,10.054891,0.174759,0.300013,0.021359,-1.861572,-0.091553,-5.249023
4.680362,0.385598,0.480800,9.960886,0.483118,-0.091573,-0.072645,-0.152588,0.518799,-11.596680
4.690455,0.043110,0.483794,10.048903,0.140630,-0.088579,0.015372,0.427246,-0.152588,-14.038086
4.700547,-0.362845,0.720302,9.989626,-0.265326,0.147929,-0.043905,-4.943848,-0.610352,-11.688232
4.710636,0.441881,0.422721,10.108180,0.539401,-0.149652,0.074648,-4.058838,-1.678467,-11.291504
4.720725,0.632884,0.388592,9.926757,0.730404,-0.183781,-0.106774,-0.976562,-2.349854,-12.115479
4.730888,0.272433,0.435295,10.002799,0.369953,-0.137078,-0.030733,-1.922607,0.488281,-1.464844
4.740985,0.604144,0.787961,9.829759,0.701664,0.215588,-0.203773,-1.892090,1.525879,4.150391
4.751082,0.014969,0.195194,10.115365,0.112489,-0.377179,0.081833,-1.159668,0.457764,8.514404
4.761343,0.343685,0.289199,10.035132,0.441205,-0.283174,0.001600,-1.708984,-0.091553,3.753662
4.771441,0.380808,0.616119,10.072853,0.478328,0.043746,0.039322,-2.258301,0.091553,-0.823975
4.781538,0.356858,0.614921,10.090217,0.454378,0.042548,0.056686,-0.518799,-0.762939,-0.213623
4.791636,-0.042512,0.752635,9.916578,0.055008,0.180262,-0.116953,1.922607,-1.373291,1.770020
4.801729,0.443079,0.504152,10.017768,0.540599,-0.068221,-0.015764,0.396729,-0.518799,5.218506
4.811825,0.265248,0.750839,9.869875,0.362768,0.178466,-0.163656,0.488281,0.396729,4.791260
4.821922,-0.072449,0.687969,10.033336,0.025071,0.115596,-0.000196,-0.762939,1.525879,4.943848
4.832112,-0.311951,0.999921,9.922566,-0.214431,0.427548,-0.110966,-1.434326,1.373291,2.624512
4.842204,-0.263452,0.947829,10.078841,-0.165932,0.375456,0.045309,-0.366211,-1.373291,-1.678467
4.852294,0.524509,0.995729,9.859098,0.622029,0.423356,-0.174434,1.464844,-0.122070,-0.854492
4.862384,0.022154,1.431623,9.774075,0.119674,0.859250,-0.259457,4.486084,1.098633,1.464844
4.872475,-0.349074,0.941841,9.914183,-0.251554,0.369468,-0.119348,2.014160,1.678467,2.685547
4.882565,-0.723296,1.231040,9.713002,-0.625776,0.658667,-0.320530,3.540039,1.159668,2.075195
4.892656,0.102986,1.260978,9.760303,0.200506,0.688605,-0.273228,4.028320,1.892090,4.302979
4.902746,-0.883762,1.146616,10.168055,-0.786242,0.574243,0.134524,5.950928,2.075195,3.204346
4.912836,-0.677791,1.138233,9.982441,-0.580271,0.565860,-0.051090,1.251221,-0.030518,-1.770020
4.922925,0.123942,0.872386,9.932146,0.221462,0.300013,-0.101386,-0.122070,-0.061035,-5.432129
4.933011,0.074246,1.525627,9.807605,0.171766,0.953254,-0.225927,2.380371,-0.427246,-2.990723
4.943104,-0.423918,0.856818,9.860894,-0.326399,0.284445,-0.172637,-0.366211,-1.342773,1.068115
4.953198,-0.105381,0.682581,9.783655,-0.007861,0.110208,-0.249877,0.549316,0.213623,1.770020
4.963289,-0.755030,1.112487,9.963281,-0.657510,0.540114,-0.070250,-1.312256,0.823975,0.366211
4.973382,-0.399370,0.683778,9.932745,-0.301850,0.111405,-0.100787,-3.295898,1.159668,2.960205
4.983477,-0.012574,1.197510,10.032138,0.084946,0.625137,-0.001394,-2.258301,0.671387,5.126953
4.993567,-0.589774,1.092129,9.914183,-0.492254,0.519756,-0.119348,-0.549316,0.183105,8.972168
5.003657,-0.346679,0.401765,10.044712,-0.249159,-0.170608,0.011180,-1.983643,-0.640869,7.385254
5.013751,0.568817,0.571212,9.802815,0.666337,-0.001161,-0.230717,-3.265381,-1.068115,3.875732
5.023842,-0.195793,0.683778,10.096205,-0.098273,0.111405,0.062673,-2.716064,-0.854492,1.373291
5.033936,-0.492177,0.730481,10.080637,-0.394657,0.158108,0.047106,-1.861572,0.396729,2.197266
5.044031,0.444875,0.826282,9.754915,0.542395,0.253909,-0.278617,-1.892090,-0.061035,0.091553
5.054122,-0.148491,0.632285,9.966874,-0.050971,0.059912,-0.066658,-5.187988,-1.739502,-1.373291
5.064215,0.349673,0.872386,9.944121,0.447193,0.300013,-0.089411,-2.563477,-0.915527,-1.556396
5.074308,0.313748,1.101709,9.792636,0.411268,0.529336,-0.240896,-2.807617,0.549316,4.547119
5.084405,0.496967,0.958008,9.931547,0.594487,0.385635,-0.101984,-2.471924,0.732422,7.598877
5.094499,0.324525,0.741857,9.865684,0.422045,0.169484,-0.167847,-2.136230,1.129150,7.690430
5.104595,0.424517,0.873583,9.838141,0.522037,0.301210,-0.195390,-2.624512,1.220703,4.180908
5.114686,0.282014,1.095123,10.022558,0.379534,0.522750,-0.010974,-2.746582,1.403809,4.241943
5.124777,0.348475,0.895139,9.922566,0.445995,0.322766,-0.110966,-2.258301,1.129150,2.136230
5.134871,-0.004790,0.843646,9.974059,0.092730,0.271273,-0.059473,-2.502441,1.739502,1.220703
5.144967,-0.074246,0.739462,10.001003,0.023274,0.167089,-0.032529,-3.265381,-0.244141,-5.035400
5.155060,-0.078437,0.817300,9.896819,0.019083,0.244927,-0.136712,-1.403809,-1.007080,-9.307861
5.165157,-0.587977,1.142424,9.706415,-0.490457,0.570051,-0.327116,-3.967285,-0.427246,-7.293701
5.175248,-0.463436,0.886756,10.057286,-0.365916,0.314383,0.023754,-4.760742,0.946045,-6.561279
5.185344,-0.428110,1.005908,9.790840,-0.330590,0.433535,-0.242692,-3.326416,-0.946045,-6.530762
5.195439,-0.717308,0.661624,9.976454,-0.619788,0.089251,-0.057078,1.342773,-2.319336,-8.819580
5.205536,-0.940045,1.062191,10.040521,-0.842525,0.489818,0.006989,1.586914,-2.471924,-10.467529
5.215631,0.248483,0.647254,9.908196,0.346003,0.074881,-0.125336,0.701904,-2.807617,-11.535645
5.225726,0.450862,0.929268,9.684261,0.548382,0.356895,-0.349270,3.692627,-3.173828,-15.197754
5.235928,-0.280217,1.487307,9.925560,-0.182697,0.914934,-0.107972,1.678467,-2.685547,-12.054443
5.246017,-0.028141,1.078358,10.050699,0.069378,0.505985,0.017168,-1.556396,-2.502441,-9.704590
5.256107,0.637075,0.815504,9.834549,0.734595,0.243131,-0.198983,-1.098633,-1.770020,-7.812500
5.266196,-0.182021,1.048420,10.079440,-0.084502,0.476047,0.045908,-2.502441,-0.854492,-3.662109
5.276285,0.164059,0.844244,10.125544,0.261579,0.271871,0.092012,-4.882812,-0.091553,-2.746582
5.286384,0.795745,1.166375,10.008787,0.893265,0.594002,-0.024745,-4.669189,-0.823975,-1.251221
5.296484,0.804727,1.254391,9.909393,0.902247,0.682018,-0.124138,-5.126953,-0.091553,2.441406
5.306575,0.754431,1.106499,9.918973,0.851951,0.534126,-0.114558,-4.974365,0.640869,8.911133
5.316667,0.684377,0.899929,9.886042,0.781897,0.327556,-0.147490,-6.530762,0.823975,11.413574
5.326755,0.710123,1.053809,9.981843,0.807643,0.481436,-0.051689,-4.638672,0.823975,11.474609
5.336869,0.345482,1.016686,10.050699,0.443002,0.444313,0.017168,-4.516602,0.274658,11.779785
5.346959,0.308958,0.959804,9.868678,0.406477,0.387431,-0.164854,-4.302979,0.671387,11.535645
5.357047,0.114362,0.798140,9.878857,0.211882,0.225767,-0.154675,-3.204346,0.823975,8.514404
5.367136,-0.031734,0.860411,9.975256,0.065786,0.288038,-0.058275,-2.471924,0.885010,6.774902
5.377225,-0.083227,0.725691,9.942924,0.014293,0.153318,-0.090608,-2.655029,1.098633,3.906250
5.387313,-0.062271,0.492775,9.936936,0.035249,-0.079598,-0.096596,-2.746582,1.007080,1.861572
5.397402,-0.011376,0.661624,9.916578,0.086144,0.089251,-0.116953,0.457764,1.312256,-0.457764
5.407493,-0.415536,0.732277,9.922566,-0.318016,0.159904,-0.110966,-0.610352,1.220703,-0.305176
5.417579,-0.163460,0.798739,9.871672,-0.065940,0.226366,-0.161860,0.152588,0.640869,-1.434326
5.427667,-0.286205,0.851429,10.065668,-0.188685,0.279056,0.032137,1.342773,-0.457764,-3.295898
5.437837,0.149090,0.805924,9.923165,0.246610,0.233551,-0.110367,4.119873,-0.885010,-4.272461
5.447935,-0.155078,0.974174,9.961485,-0.057558,0.401801,-0.072047,3.326416,-0.549316,-1.342773
5.458032,0.306563,0.780178,9.995015,0.404082,0.207805,-0.038516,2.960205,-0.427246,-1.129150
5.468130,0.055085,0.990939,9.926158,0.152605,0.418566,-0.107373,2.624512,-0.549316,2.105713
5.478226,-0.110171,1.165177,10.082433,-0.012651,0.592804,0.048902,1.342773,-0.061035,4.028320
5.488324,0.338297,1.134641,9.991423,0.435816,0.562268,-0.042109,-0.946045,-0.061035,4.882812
5.498418,0.254471,0.943039,9.946516,0.351991,0.370666,-0.087016,0.305176,0.335693,3.814697
5.508518,0.059277,1.070574,9.970466,0.156797,0.498201,-0.063065,0.518799,1.129150,3.936768
5.518615,0.341290,0.869392,9.870474,0.438810,0.297019,-0.163057,-2.441406,0.244141,1.678467
5.528711,0.413141,0.800535,9.737551,0.510661,0.228162,-0.295981,-1.953125,0.335693,0.335693
5.538884,0.558040,0.721500,9.820179,0.655560,0.149127,-0.213353,1.586914,0.610352,-1.892090
5.548976,0.138911,1.099913,10.002200,0.236431,0.527540,-0.031331,1.983643,0.946045,-1.953125
5.559066,-0.252675,0.898731,10.035132,-0.155155,0.326358,0.001600,2.197266,0.274658,-4.364014
5.569156,0.269440,1.010099,9.965676,0.366960,0.437726,-0.067855,1.037598,-1.220703,-10.498047
5.579246,0.025746,0.900527,9.880054,0.123266,0.328154,-0.153477,1.342773,-1.190186,-12.115479
5.589337,-0.202379,0.823887,10.057286,-0.104859,0.251514,0.023754,1.403809,-2.014160,-14.770508
5.599426,-0.156275,0.887953,9.883048,-0.058755,0.315580,-0.150484,1.068115,-1.922607,-15.014648
5.609522,-0.132325,0.701142,10.011182,-0.034805,0.128769,-0.022350,0.396729,-1.312256,-13.275146
5.619612,-0.430505,0.640069,9.950707,-0.332985,0.067696,-0.082824,0.366211,-0.427246,-11.077881
5.629702,-0.358055,0.781974,10.006990,-0.260535,0.209601,-0.026541,-0.793457,0.549316,-8.636475
5.639870,-0.667612,0.678389,10.033336,-0.570092,0.106016,-0.000196,-1.678467,1.831055,-5.737305
5.649967,-0.426912,0.542472,9.860295,-0.329392,-0.029901,-0.173236,-1.495361,2.136230,-4.364014
5.660064,-0.326321,0.695154,10.159074,-0.228801,0.122781,0.125542,3.173828,1.708984,-1.861572
5.670160,-0.264051,0.892744,10.039323,-0.166531,0.320371,0.005791,4.150391,1.068115,-2.227783
5.680256,-0.653242,0.890947,10.139914,-0.555722,0.318574,0.106382,1.220703,0.305176,0.061035
5.690353,-0.587379,0.709525,9.945319,-0.489859,0.137152,-0.088213,-1.373291,0.091553,0.305176
5.700449,-0.410746,0.616718,10.101594,-0.313226,0.044345,0.068062,0.183105,-1.190186,-2.593994
5.710546,-0.361648,0.821492,9.940529,-0.264128,0.249119,-0.093003,1.617432,-1.617432,-3.814697
5.720643,-0.443079,0.681383,9.971065,-0.345559,0.109010,-0.062467,0.549316,-2.227783,-2.960205
5.730740,0.146695,0.588576,9.945917,0.244215,0.016203,-0.087614,-0.610352,0.366211,4.119873
5.740909,-0.458646,0.752635,9.976454,-0.361126,0.180262,-0.057078,1.342773,1.678467,7.080078
5.751000,-0.534688,0.549657,9.962682,-0.437168,-0.022716,-0.070849,-0.854492,1.708984,13.275146
5.761201,0.348475,0.285606,10.027348,0.445995,-0.286767,-0.006184,-2.593994,1.312256,13.519287
5.771582,0.268841,0.586780,9.963880,0.366361,0.014407,-0.069652,0.396729,1.586914,10.467529
5.781670,-0.189805,0.593366,9.883647,-0.092285,0.020993,-0.149885,0.549316,1.983643,9.857178
5.791760,-0.224533,0.427511,10.032138,-0.127013,-0.144862,-0.001394,-1.312256,2.807617,11.657715
5.801851,0.630489,0.053289,10.018367,0.728009,-0.519084,-0.015165,-0.396729,3.387451,12.603760
5.811973,0.457449,0.459844,9.951905,0.554969,-0.112529,-0.081627,0.915527,2.777100,10.253906
5.822060,-0.246687,0.344883,10.056687,-0.149167,-0.227490,0.023155,-1.220703,1.464844,10.101318
5.832150,-0.270038,0.414937,10.135124,-0.172518,-0.157436,0.101592,0.335693,0.518799,9.094238
5.842332,-1.090931,0.405956,10.055490,-0.993411,-0.166417,0.021958,0.366211,-0.823975,4.364014
5.852417,-0.598156,0.297581,9.929751,-0.500636,-0.274792,-0.103781,-1.556396,-0.854492,1.129150
5.862503,0.007784,0.326920,9.820179,0.105304,-0.245453,-0.213353,0.946045,-0.183105,-6.225586
5.872586,-1.078358,1.099913,9.914782,-0.980838,0.527540,-0.118750,1.190186,-0.030518,-7.843018
5.882670,-1.166375,0.905916,9.995015,-1.068855,0.333543,-0.038516,0.183105,-0.152588,-6.500244
5.892754,-0.365839,0.765209,9.966275,-0.268319,0.192836,-0.067257,-0.152588,0.183105,0.122070
5.902838,-0.392184,0.617316,9.901011,-0.294664,0.044943,-0.132521,-0.213623,1.190186,0.762939
5.912923,-0.713117,0.716710,10.112371,-0.615597,0.144337,0.078840,-1.708984,0.701904,-3.601074
5.923008,-0.417332,0.644260,9.960287,-0.319812,0.071887,-0.073244,-4.180908,0.610352,-5.645752
5.933093,0.076641,0.678988,9.921967,0.174161,0.106615,-0.111565,-2.136230,-2.319336,-9.582520
5.943237,0.334105,0.628693,10.041718,0.431625,0.056320,0.008186,0.122070,-2.471924,-9.063721
5.953335,0.079634,0.532892,10.043514,0.177154,-0.039481,0.009983,0.183105,-2.105713,-8.605957
5.963431,0.626896,0.353265,9.962084,0.724416,-0.219108,-0.071448,-1.922607,-1.251221,-7.080078
5.973526,0.499960,0.515528,9.997410,0.597480,-0.056845,-0.036121,-2.288818,-0.885010,-7.110596
5.983622,0.740061,0.658630,10.086026,0.837581,0.086257,0.052494,-2.075195,-0.915527,-9.307861
5.993717,0.380808,0.669408,10.050699,0.478328,0.097035,0.017168,-1.037598,-1.281738,-9.216309
6.003809,0.355062,0.346679,10.320139,0.452582,-0.225694,0.286607,0.366211,-2.502441,-9.277344
6.013905,0.750839,0.711321,9.935739,0.848359,0.138948,-0.097793,1.892090,-2.441406,-10.528564
6.024002,0.598755,0.916694,9.892029,0.696275,0.344321,-0.141502,2.655029,-1.983643,-12.542725
6.034098,-0.362247,1.113085,10.060280,-0.264727,0.540712,0.026748,1.495361,-2.777100,-14.038086
6.044220,-0.102986,0.838257,10.017768,-0.005466,0.265884,-0.015764,0.366211,-2.563477,-13.275146
6.054316,0.168250,0.846041,9.952504,0.265770,0.273668,-0.081028,-0.030518,-1.281738,-13.061523
6.064411,-0.070653,0.933459,9.996213,0.026867,0.361086,-0.037319,0.030518,-1.281738,-12.542725
6.074508,-0.182021,0.908311,9.996213,-0.084502,0.335938,-0.037319,-1.403809,-1.190186,-9.429932
6.084604,0.160466,0.737067,10.013577,0.257986,0.164694,-0.019955,-1.770020,-1.342773,-7.232666
6.094700,0.205373,0.957409,10.046508,0.302893,0.385036,0.012977,-2.502441,-0.213623,-4.547119
6.104805,0.494572,0.827479,9.982441,0.592091,0.255106,-0.051090,-3.692627,-0.488281,-3.173828
6.114909,0.657433,0.761616,9.947714,0.754953,0.189243,-0.085818,-3.051758,-0.549316,-2.899170
6.125006,0.114362,0.734672,10.071656,0.211882,0.162299,0.038124,-1.647949,-0.488281,-1.220703
6.135102,0.461640,0.795745,10.071057,0.559160,0.223372,0.037525,-1.770020,-0.793457,-0.518799
6.145233,0.320334,0.764610,9.972861,0.417854,0.192237,-0.060670,-1.220703,-1.617432,-1.098633
6.155329,0.423320,0.901725,10.003997,0.520840,0.329352,-0.029535,-0.823975,-1.800537,-0.915527
6.165425,0.686173,0.880768,9.868079,0.783693,0.308395,-0.165452,1.495361,-0.976562,1.251221
6.175521,0.596959,0.814307,9.915381,0.694479,0.241934,-0.118151,2.166748,-1.068115,1.098633
6.185617,0.704136,0.802332,9.968071,0.801656,0.229959,-0.065460,3.082275,-0.762939,0.000000
6.195712,0.382604,0.875978,10.056687,0.480124,0.303605,0.023155,1.586914,-0.518799,-0.335693
6.205808,0.700543,0.654439,10.023157,0.798063,0.082066,-0.010375,0.976562,-0.701904,-0.274658
6.215904,0.782573,0.835862,9.922566,0.880093,0.263489,-0.110966,2.227783,-1.861572,-2.014160
6.226000,0.514929,0.783171,9.893227,0.612449,0.210798,-0.140305,2.136230,-2.136230,-2.410889
6.236095,0.695154,0.958008,9.915381,0.792674,0.385635,-0.118151,1.190186,-1.556396,-1.770020
6.246217,0.587977,0.911305,9.943522,0.685497,0.338932,-0.090009,1.159668,-0.976562,-0.244141
6.256312,0.595162,0.917891,9.924362,0.692682,0.345518,-0.109169,0.000000,-0.457764,2.502441
6.266408,0.463436,1.047821,9.966874,0.560956,0.475448,-0.066658,-0.427246,0.396729,6.469727
6.276505,0.380808,0.855621,9.978849,0.478328,0.283248,-0.054683,-1.434326,0.518799,9.094238
6.286601,0.404160,0.631686,9.939331,0.501680,0.059313,-0.094201,-1.037598,0.427246,9.490967
6.296697,0.358055,0.802332,9.990225,0.455575,0.229959,-0.043306,-1.220703,0.000000,7.080078
6.306790,0.231718,0.883762,9.972861,0.329238,0.311389,-0.060670,-1.831055,-0.732422,2.563477
6.316885,0.774190,0.919089,9.899813,0.871710,0.346716,-0.133718,-2.075195,-0.915527,3.082275
6.326981,0.725092,1.008902,9.995015,0.822612,0.436529,-0.038516,-0.823975,-0.946045,0.305176
6.337076,0.061073,1.090333,10.014175,0.158593,0.517960,-0.019356,-1.892090,-1.403809,-0.976562
6.347201,0.056283,1.211281,9.963880,0.153803,0.638908,-0.069652,-3.356934,-2.441406,1.220703
6.357296,0.262853,0.810714,10.021360,0.360373,0.238341,-0.012171,-4.302979,-1.861572,4.180908
6.367392,0.707728,0.759820,9.887239,0.805248,0.187447,-0.146292,-2.716064,-1.678467,3.082275
6.377488,0.115560,0.726888,10.016570,0.213080,0.154515,-0.016961,-0.762939,-1.098633,1.342773
6.387585,0.057480,0.586181,9.982441,0.155000,0.013808,-0.051090,-0.091553,-1.129150,0.061035
6.397680,0.052092,0.562231,9.988429,0.149612,-0.010142,-0.045103,1.129150,-1.434326,-3.875732
6.407775,0.213755,0.710722,9.896221,0.311275,0.138349,-0.137311,1.708984,-1.342773,-2.746582
6.417870,0.197589,0.448467,9.931547,0.295109,-0.123906,-0.101984,1.922607,-0.976562,-0.854492
6.427968,0.128134,1.169368,9.983639,0.225654,0.596995,-0.049893,2.960205,-1.220703,3.936768
6.438062,0.333506,1.081950,10.040521,0.431026,0.509577,0.006989,2.349854,-0.366211,11.535645
6.448157,-0.043110,1.130449,10.038126,0.054410,0.558076,0.004594,2.716064,-0.946045,16.815186
6.458248,-0.270038,0.924478,10.047107,-0.172518,0.352105,0.013575,0.823975,-0.885010,18.127441
6.468338,-0.256866,0.646655,10.035132,-0.159346,0.074282,0.001600,-0.488281,-1.342773,11.596680
6.478428,0.279619,0.584385,10.074650,0.377138,0.012012,0.041118,-0.610352,-1.892090,4.333496
6.488517,-0.100591,0.771795,9.986034,-0.003071,0.199422,-0.047498,-0.701904,-2.166748,-1.770020
6.498606,0.142504,0.995729,9.997410,0.240024,0.423356,-0.036121,-1.159668,-1.983643,-5.157471
6.508696,0.354463,1.161584,9.999805,0.451983,0.589211,-0.033726,-1.281738,-1.800537,-2.288818
6.518784,-0.422122,0.968785,10.008787,-0.324602,0.396412,-0.024745,-2.227783,-1.708984,3.509521
6.528873,0.173040,0.808918,9.977053,0.270560,0.236545,-0.056479,-2.319336,-1.098633,4.669189
6.538962,0.596959,0.852028,9.902807,0.694479,0.279655,-0.130725,-0.946045,-1.434326,4.028320
6.549122,0.335303,1.231040,9.952504,0.432823,0.658667,-0.081028,-1.983643,-0.885010,5.645752
6.559218,0.410147,1.147214,9.893227,0.507667,0.574841,-0.140305,-3.601074,-0.396729,8.056641
6.569314,0.761017,1.031655,9.975855,0.858537,0.459282,-0.057677,-4.882812,-0.488281,7.232666
6.579410,0.481998,1.010099,9.951905,0.579518,0.437726,-0.081627,-4.058838,-0.274658,7.446289
6.589506,0.525108,0.814307,9.989028,0.622628,0.241934,-0.044504,-6.500244,-0.366211,7.415771
6.599602,0.894540,0.674797,10.020163,0.992060,0.102424,-0.013369,-5.035400,-0.152588,6.744385
6.609698,0.235311,0.955613,9.990824,0.332831,0.383240,-0.042708,-4.272461,-0.396729,3.540039
6.619793,0.676593,0.808319,10.072255,0.774113,0.235946,0.038723,-5.584717,-0.427246,4.028320
6.629889,0.717907,0.698747,10.033934,0.815427,0.126374,0.000403,-5.279541,-0.518799,1.922607
6.639985,0.687969,0.689766,10.001602,0.785489,0.117393,-0.031930,-5.340576,-0.457764,1.556396
6.650149,0.470023,0.661624,9.995614,0.567543,0.089251,-0.037918,-5.676270,-0.732422,2.136230
6.660238,0.521516,0.562231,9.990824,0.619035,-0.010142,-0.042708,-5.920410,-0.457764,2.716064
6.670328,0.650248,0.439486,10.017169,0.747768,-0.132887,-0.016362,-5.706787,-0.457764,2.777100
6.680417,0.468226,0.644260,10.024953,0.565746,0.071887,-0.008579,-3.601074,-0.671387,1.556396
6.690505,0.371228,0.651445,9.987830,0.468748,0.079072,-0.045701,-3.234863,-0.671387,2.685547
6.700594,0.346080,0.676593,10.002200,0.443600,0.104220,-0.031331,-1.953125,-0.518799,4.669189
6.710683,0.391586,0.628693,9.989626,0.489106,0.056320,-0.043905,-1.434326,-0.518799,4.699707
6.720772,0.398172,0.636476,10.014774,0.495692,0.064103,-0.018757,-0.244141,-0.488281,4.425049
6.730860,0.407752,0.696951,10.026151,0.505272,0.124578,-0.007381,-0.579834,-0.488281,3.051758
6.740949,0.402962,0.675994,10.015972,0.500482,0.103621,-0.017560,-0.305176,-0.366211,1.922607
6.751095,0.213157,0.700543,10.038126,0.310677,0.128170,0.004594,0.152588,-0.366211,0.091553
6.761191,0.201780,0.710123,10.039323,0.299300,0.137750,0.005791,0.335693,-0.427246,-0.610352
6.771287,0.114362,0.718506,10.035132,0.211882,0.146133,0.001600,0.274658,-0.427246,-1.403809
6.781383,0.030536,0.607137,10.060280,0.128056,0.034764,0.026748,0.976562,-0.244141,-2.044678
6.791478,0.016166,0.555645,10.076446,0.113686,-0.016728,0.042914,2.929688,0.061035,-3.112793
6.801574,-0.002395,0.837658,9.933942,0.095125,0.265285,-0.099589,7.049561,0.701904,-6.042480
6.811671,0.083227,0.707130,9.980046,0.180747,0.134757,-0.053485,4.760742,0.122070,-6.988525
6.821766,0.205972,0.595162,10.010583,0.303492,0.022789,-0.022949,2.716064,-0.122070,-6.530762
6.831861,0.216151,0.592169,10.016570,0.313670,0.019796,-0.016961,2.380371,0.091553,-5.828857
6.841961,0.178429,0.662223,10.023755,0.275949,0.089850,-0.009776,1.861572,0.274658,-3.173828
6.852139,0.095202,0.667612,10.033934,0.192722,0.095239,0.000403,1.800537,0.305176,-2.380371
6.862227,0.101190,0.693358,10.029144,0.198710,0.120985,-0.004387,1.373291,0.213623,-1.342773
6.872317,-0.015568,0.659229,10.077643,0.081952,0.086856,0.044112,1.098633,0.061035,-1.342773
6.882406,0.057480,0.894540,10.111174,0.155000,0.322167,0.077642,1.495361,0.183105,-1.312256
6.892495,0.476609,0.683179,9.996213,0.574129,0.110806,-0.037319,-2.868652,-0.244141,-0.915527
6.902584,0.347877,0.713117,9.983639,0.445397,0.140744,-0.049893,-2.441406,-0.183105,-0.762939
6.912673,0.204774,0.686772,9.987830,0.302294,0.114399,-0.045701,-1.770020,-0.091553,-0.488281
6.922763,0.150886,0.687371,10.000404,0.248406,0.114998,-0.033128,-1.495361,-0.091553,-0.396729
6.932852,0.110770,0.699944,10.003997,0.208290,0.127571,-0.029535,-1.068115,-0.030518,-0.274658
6.942941,0.057480,0.686772,10.015972,0.155000,0.114399,-0.017560,-0.946045,0.000000,-0.183105
6.953101,0.043110,0.688568,10.014774,0.140630,0.116195,-0.018757,-0.793457,0.000000,-0.152588
6.963198,0.022753,0.684976,10.008787,0.120273,0.112603,-0.024745,-0.579834,0.030518,-0.122070
6.973294,0.014969,0.683179,10.018367,0.112489,0.110806,-0.015165,-0.488281,0.030518,-0.122070
6.983392,0.005988,0.684377,10.008188,0.103508,0.112004,-0.025344,-0.366211,0.061035,-0.030518
6.993489,0.005988,0.682581,10.005194,0.103508,0.110208,-0.028338,-0.366211,0.030518,0.000000
7.003584,0.000000,0.680186,10.001003,0.097520,0.107813,-0.032529,-0.244141,0.030518,0.000000
7.013680,0.001796,0.681383,10.005793,0.099316,0.109010,-0.027739,-0.244141,0.030518,0.000000
7.023775,0.001796,0.680186,10.015972,0.099316,0.107813,-0.017560,-0.213623,0.030518,0.000000
7.033870,-0.008383,0.671803,10.012379,0.089137,0.099430,-0.021153,-0.152588,0.061035,0.030518
7.043967,-0.010179,0.674198,10.009984,0.087341,0.101825,-0.023548,-0.152588,0.061035,0.030518
7.054134,-0.012574,0.668809,10.009984,0.084946,0.096436,-0.023548,-0.152588,0.061035,0.061035
7.064224,-0.017364,0.667612,10.007589,0.080156,0.095239,-0.025943,-0.152588,0.030518,0.061035
7.074313,-0.016765,0.666414,10.018367,0.080755,0.094041,-0.015165,-0.091553,0.061035,0.061035
7.084402,-0.020358,0.674198,10.014175,0.077162,0.101825,-0.019356,-0.091553,0.061035,0.061035
7.094491,-0.019160,0.673599,10.010583,0.078360,0.101226,-0.022949,-0.030518,0.061035,0.061035
7.104580,-0.021555,0.677791,10.009984,0.075965,0.105418,-0.023548,0.000000,0.061035,0.030518
7.114670,-0.016166,0.676593,10.017169,0.081354,0.104220,-0.016362,0.030518,0.091553,0.030518
7.124760,-0.011975,0.680186,10.027348,0.085545,0.107813,-0.006184,0.030518,0.061035,0.030518
7.134849,-0.013771,0.681982,10.027947,0.083749,0.109609,-0.005585,0.061035,0.061035,0.030518
7.144938,-0.018561,0.677791,10.030342,0.078959,0.105418,-0.003190,0.030518,0.061035,0.061035
7.155092,-0.023351,0.680784,10.026749,0.074169,0.108411,-0.006782,0.000000,0.061035,0.061035
7.165188,-0.030536,0.683778,10.026151,0.066983,0.111405,-0.007381,0.030518,0.030518,0.030518
7.175283,-0.018561,0.675396,10.029743,0.078959,0.103023,-0.003789,0.030518,0.030518,0.030518
7.185378,-0.016166,0.682581,10.033336,0.081354,0.110208,-0.000196,0.030518,0.061035,0.030518
7.195474,-0.009580,0.677791,10.021360,0.087940,0.105418,-0.012171,0.061035,0.061035,0.061035
7.205570,-0.013173,0.676593,10.011780,0.084347,0.104220,-0.021751,0.030518,0.061035,0.030518
7.215666,-0.016166,0.678389,10.015972,0.081354,0.106016,-0.017560,0.030518,0.091553,0.000000
7.225761,-0.016166,0.673000,10.017768,0.081354,0.100627,-0.015764,0.000000,0.091553,0.000000
7.235857,-0.013771,0.670007,10.021360,0.083749,0.097634,-0.012171,-0.030518,0.030518,0.000000
7.245952,-0.018561,0.673000,10.017768,0.078959,0.100627,-0.015764,-0.030518,0.030518,0.000000
7.256072,-0.020956,0.670605,10.011780,0.076564,0.098232,-0.021751,-0.030518,0.000000,-0.030518
7.266168,-0.017364,0.673599,10.009984,0.080156,0.101226,-0.023548,-0.030518,0.061035,0.000000
7.276263,-0.017364,0.669408,10.024354,0.080156,0.097035,-0.009177,-0.061035,0.061035,0.000000
7.286360,-0.019160,0.664618,10.023755,0.078360,0.092245,-0.009776,-0.061035,0.061035,0.030518
7.296456,-0.022753,0.665217,10.023157,0.074767,0.092844,-0.010375,-0.030518,0.061035,-0.030518
7.306551,-0.023950,0.674797,10.016570,0.073570,0.102424,-0.016961,-0.030518,0.091553,-0.030518
7.316648,-0.023950,0.673000,10.023157,0.073570,0.100627,-0.010375,-0.030518,0.061035,-0.030518
7.326742,-0.017963,0.671803,10.021959,0.079557,0.099430,-0.011572,0.000000,0.091553,0.000000
7.336838,-0.016765,0.665217,10.018965,0.080755,0.092844,-0.014566,0.030518,0.122070,0.030518
7.346931,-0.010179,0.661624,10.014774,0.087341,0.089251,-0.018757,0.030518,0.122070,0.030518
7.357052,-0.011376,0.667013,10.019564,0.086144,0.094640,-0.013967,0.030518,0.122070,0.030518
7.367147,-0.014969,0.673000,10.023157,0.082551,0.100627,-0.010375,0.000000,0.091553,0.030518
7.377244,-0.007185,0.675396,10.023755,0.090335,0.103023,-0.009776,-0.030518,0.061035,0.000000
7.387340,-0.004790,0.673000,10.021360,0.092730,0.100627,-0.012171,-0.061035,0.061035,0.000000
7.397436,-0.011975,0.667013,10.020163,0.085545,0.094640,-0.013369,-0.061035,0.122070,-0.030518
7.407532,-0.017364,0.667013,10.015972,0.080156,0.094640,-0.017560,-0.030518,0.122070,0.000000
7.417627,-0.019759,0.669408,10.021360,0.077761,0.097035,-0.012171,0.000000,0.152588,0.030518
7.427723,-0.016166,0.666414,10.023755,0.081354,0.094041,-0.009776,0.030518,0.091553,0.030518
7.437819,-0.013771,0.673000,10.026151,0.083749,0.100627,-0.007381,0.000000,0.091553,0.000000
7.447915,-0.019160,0.671204,10.029144,0.078360,0.098831,-0.004387,0.000000,0.061035,0.000000
7.458035,-0.024549,0.671204,10.027947,0.072971,0.098831,-0.005585,0.000000,0.091553,0.000000
7.468130,-0.021555,0.673000,10.025552,0.075965,0.100627,-0.007980,-0.030518,0.061035,0.000000
7.478226,-0.014370,0.673000,10.027348,0.083150,0.100627,-0.006184,-0.061035,0.091553,-0.030518
7.488322,-0.008981,0.674198,10.025552,0.088539,0.101825,-0.007980,-0.061035,0.061035,-0.030518
7.498418,-0.004790,0.665217,10.020762,0.092730,0.092844,-0.012770,-0.030518,0.061035,0.000000
7.508514,0.000000,0.668210,10.012978,0.097520,0.095837,-0.020554,0.000000,0.061035,0.000000
7.518611,-0.011376,0.675994,10.020163,0.086144,0.103621,-0.013369,0.030518,0.061035,0.000000
7.528706,-0.016166,0.673599,10.022558,0.081354,0.101226,-0.010974,0.030518,0.061035,0.000000
7.538795,-0.021555,0.674198,10.020762,0.075965,0.101825,-0.012770,0.000000,0.061035,-0.030518
7.548890,-0.018561,0.675994,10.014175,0.078959,0.103621,-0.019356,0.000000,0.091553,0.000000
7.559055,-0.017963,0.680784,10.010583,0.079557,0.108411,-0.022949,0.000000,0.030518,0.000000
7.569142,-0.019160,0.675994,10.021360,0.078360,0.103621,-0.012171,0.000000,0.030518,0.000000
7.579232,-0.017963,0.672402,10.017768,0.079557,0.100029,-0.015764,0.000000,0.030518,0.061035
7.589322,-0.017364,0.671204,10.019564,0.080156,0.098831,-0.013967,-0.061035,0.030518,0.030518
7.599411,-0.017364,0.673000,10.018367,0.080156,0.100627,-0.015165,-0.061035,0.030518,0.000000
7.609499,-0.019160,0.681383,10.015972,0.078360,0.109010,-0.017560,-0.061035,0.061035,0.000000
7.619589,-0.025746,0.674198,10.016570,0.071773,0.101825,-0.016961,-0.030518,0.061035,0.030518
7.629678,-0.027543,0.673000,10.017768,0.069977,0.100627,-0.015764,0.000000,0.091553,0.000000
7.639768,-0.022154,0.671803,10.008188,0.075366,0.099430,-0.025344,0.000000,0.122070,0.000000
7.649875,-0.025746,0.670605,10.009984,0.071773,0.098232,-0.023548,0.000000,0.091553,-0.030518
7.660038,-0.020358,0.670007,10.011182,0.077162,0.097634,-0.022350,0.000000,0.061035,0.000000
7.670131,-0.019160,0.665217,10.021959,0.078360,0.092844,-0.011572,0.000000,0.061035,0.000000
7.680228,-0.023351,0.674797,10.017768,0.074169,0.102424,-0.015764,0.000000,0.091553,0.000000
7.690324,-0.022154,0.675994,10.018965,0.075366,0.103621,-0.014566,0.061035,0.061035,0.000000
7.700420,-0.017364,0.674198,10.019564,0.080156,0.101825,-0.013967,0.061035,0.061035,0.061035
7.710517,-0.011975,0.680784,10.025552,0.085545,0.108411,-0.007980,0.061035,0.091553,0.061035
7.720613,-0.014969,0.679587,10.027947,0.082551,0.107214,-0.005585,0.061035,0.061035,0.030518
7.730708,-0.014969,0.663420,10.030941,0.082551,0.091047,-0.002591,0.061035,0.091553,0.061035
7.740804,-0.013771,0.666414,10.025552,0.083749,0.094041,-0.007980,0.030518,0.122070,0.030518
7.750900,-0.011376,0.656834,10.021959,0.086144,0.084461,-0.011572,0.061035,0.091553,0.061035
7.760994,-0.014370,0.662822,10.023755,0.083150,0.090449,-0.009776,0.061035,0.061035,0.061035
7.771084,-0.016166,0.661025,10.032737,0.081354,0.088652,-0.000795,0.061035,0.061035,0.030518
7.781172,-0.011376,0.662223,10.028546,0.086144,0.089850,-0.004986,0.061035,0.061035,0.000000
7.791262,-0.007185,0.662223,10.021360,0.090335,0.089850,-0.012171,0.061035,0.061035,-0.030518
7.801352,-0.013173,0.668809,10.018965,0.084347,0.096436,-0.014566,0.030518,0.091553,-0.030518
7.811441,-0.016166,0.667612,10.018965,0.081354,0.095239,-0.014566,0.030518,0.091553,0.000000
7.821531,-0.017364,0.654439,10.023755,0.080156,0.082066,-0.009776,0.061035,0.061035,-0.030518
7.831620,-0.010778,0.656235,10.029743,0.086742,0.083862,-0.003789,0.061035,0.030518,0.000000
7.841710,-0.008383,0.664019,10.033336,0.089137,0.091646,-0.000196,0.091553,0.061035,0.030518
7.851799,-0.017963,0.667013,10.023755,0.079557,0.094640,-0.009776,0.061035,0.061035,0.030518
7.861975,-0.016765,0.670605,10.023755,0.080755,0.098232,-0.009776,0.030518,0.061035,0.030518
7.872072,-0.015568,0.671204,10.021360,0.081952,0.098831,-0.012171,0.030518,0.061035,0.061035
7.882169,-0.016765,0.675994,10.024354,0.080755,0.103621,-0.009177,0.030518,0.061035,0.061035
7.892264,-0.025148,0.666414,10.021959,0.072372,0.094041,-0.011572,0.061035,0.091553,0.091553
7.902360,-0.025746,0.666414,10.020762,0.071773,0.094041,-0.012770,0.030518,0.061035,0.030518
7.912456,-0.016765,0.665217,10.022558,0.080755,0.092844,-0.010974,0.122070,0.061035,0.030518
7.922552,-0.016166,0.664019,10.025552,0.081354,0.091646,-0.007980,0.122070,0.030518,0.000000
7.932648,-0.020956,0.665815,10.022558,0.076564,0.093442,-0.010974,0.122070,0.122070,0.030518
7.942743,-0.026345,0.664618,10.026749,0.071175,0.092245,-0.006782,0.091553,0.091553,0.030518
7.952839,-0.026944,0.664019,10.030941,0.070576,0.091646,-0.002591,0.091553,0.091553,0.030518
7.963001,-0.025746,0.656834,10.027947,0.071773,0.084461,-0.005585,0.122070,0.122070,0.030518
7.973090,-0.028141,0.655637,10.029743,0.069378,0.083264,-0.003789,0.091553,0.091553,0.030518
7.983179,-0.026345,0.663420,10.023157,0.071175,0.091047,-0.010375,0.061035,0.152588,0.061035
7.993268,-0.026345,0.665217,10.026151,0.071175,0.092844,-0.007381,0.061035,0.122070,0.061035
8.003358,-0.027543,0.671803,10.028546,0.069977,0.099430,-0.004986,0.061035,0.091553,0.030518
8.013447,-0.024549,0.675994,10.024953,0.072971,0.103621,-0.008579,0.091553,0.061035,0.030518
8.023535,-0.021555,0.671803,10.028546,0.075965,0.099430,-0.004986,0.091553,0.061035,0.000000
8.033624,-0.022154,0.666414,10.029144,0.075366,0.094041,-0.004387,0.061035,0.091553,0.000000
8.043713,-0.021555,0.668809,10.027947,0.075965,0.096436,-0.005585,0.061035,0.091553,0.030518
8.053803,-0.017364,0.669408,10.018965,0.080156,0.097035,-0.014566,0.091553,0.091553,0.000000
8.064019,-0.017364,0.667612,10.023755,0.080156,0.095239,-0.009776,0.061035,0.091553,0.000000
8.074119,-0.010778,0.671803,10.028546,0.086742,0.099430,-0.004986,0.061035,0.091553,0.030518
8.084216,-0.011975,0.670605,10.027947,0.085545,0.098232,-0.005585,0.061035,0.061035,0.030518
8.094313,-0.012574,0.670007,10.029144,0.084946,0.097634,-0.004387,0.061035,0.061035,0.000000
8.104409,-0.010778,0.671803,10.026749,0.086742,0.099430,-0.006782,0.061035,0.061035,0.030518
8.114506,-0.011975,0.668809,10.024354,0.085545,0.096436,-0.009177,0.061035,0.061035,0.030518
8.124602,-0.014969,0.666414,10.018965,0.082551,0.094041,-0.014566,0.061035,0.061035,0.030518
8.134699,-0.011975,0.670007,10.025552,0.085545,0.097634,-0.007980,0.061035,0.091553,0.000000
8.144796,-0.008981,0.674797,10.015972,0.088539,0.102424,-0.017560,0.030518,0.061035,0.030518
8.154888,-0.007185,0.675396,10.014175,0.090335,0.103023,-0.019356,0.000000,0.061035,0.030518
8.165014,-0.005988,0.674198,10.020163,0.091532,0.101825,-0.013369,0.000000,0.030518,0.030518
8.175111,-0.009580,0.679587,10.026151,0.087940,0.107214,-0.007381,0.000000,0.030518,0.030518
8.185207,-0.009580,0.672402,10.021360,0.087940,0.100029,-0.012171,0.000000,0.030518,0.030518
8.195303,-0.016765,0.675994,10.018367,0.080755,0.103621,-0.015165,0.000000,0.030518,0.061035
8.205399,-0.016765,0.674198,10.014774,0.080755,0.101825,-0.018757,0.000000,0.030518,0.030518
8.215496,-0.022753,0.668809,10.023755,0.074767,0.096436,-0.009776,0.030518,0.030518,0.030518
8.225591,-0.022154,0.670605,10.026749,0.075366,0.098232,-0.006782,0.030518,0.061035,0.061035
8.235687,-0.015568,0.670605,10.024354,0.081952,0.098232,-0.009177,0.000000,0.030518,0.000000
8.245785,-0.014370,0.667612,10.023755,0.083150,0.095239,-0.009776,0.030518,0.000000,0.030518
8.255881,-0.015568,0.662223,10.021360,0.081952,0.089850,-0.012171,0.000000,0.030518,-0.030518
8.266001,-0.018561,0.665217,10.023157,0.078959,0.092844,-0.010375,-0.030518,0.030518,0.000000
8.276098,-0.019160,0.659828,10.020762,0.078360,0.087455,-0.012770,-0.030518,0.030518,0.030518
8.286194,-0.015568,0.659229,10.023157,0.081952,0.086856,-0.010375,-0.061035,0.061035,0.030518
8.296291,-0.011376,0.667013,10.022558,0.086144,0.094640,-0.010974,-0.061035,0.091553,0.030518
8.306387,-0.014370,0.668210,10.020163,0.083150,0.095837,-0.013369,-0.061035,0.091553,0.000000
8.316485,-0.018561,0.670007,10.023755,0.078959,0.097634,-0.009776,-0.061035,0.091553,0.000000
8.326582,-0.014969,0.669408,10.024953,0.082551,0.097035,-0.008579,-0.091553,0.061035,-0.030518
8.336679,-0.012574,0.669408,10.017768,0.084946,0.097035,-0.015764,-0.091553,0.061035,-0.030518
8.346775,-0.010179,0.670605,10.016570,0.087341,0.098232,-0.016961,-0.061035,0.061035,0.000000
8.356871,-0.004191,0.671204,10.017768,0.093329,0.098831,-0.015764,-0.061035,0.061035,0.030518
8.366992,-0.010778,0.667013,10.018367,0.086742,0.094640,-0.015165,-0.030518,0.030518,0.030518
8.377089,-0.014370,0.665815,10.023157,0.083150,0.093442,-0.010375,0.000000,0.061035,0.000000
8.387184,-0.008981,0.668210,10.023157,0.088539,0.095837,-0.010375,0.000000,0.030518,0.000000
8.397281,-0.011376,0.665217,10.021959,0.086144,0.092844,-0.011572,-0.030518,0.061035,0.000000
8.407377,-0.006586,0.670007,10.015972,0.090934,0.097634,-0.017560,-0.030518,0.061035,-0.030518
8.417473,-0.011376,0.672402,10.018367,0.086144,0.100029,-0.015165,-0.030518,0.061035,-0.030518
8.427568,-0.026345,0.665815,10.020163,0.071175,0.093442,-0.013369,-0.030518,0.061035,0.000000
8.437665,-0.020956,0.670605,10.017768,0.076564,0.098232,-0.015764,-0.061035,0.030518,0.000000
8.447761,-0.023351,0.673000,10.009984,0.074169,0.100627,-0.023548,-0.030518,0.061035,0.061035
8.457858,-0.029339,0.671803,10.010583,0.068181,0.099430,-0.022949,-0.030518,0.061035,0.030518
8.467979,-0.028740,0.672402,10.020163,0.068780,0.100029,-0.013369,-0.030518,0.061035,0.030518
8.478075,-0.030536,0.668210,10.021360,0.066983,0.095837,-0.012171,-0.030518,0.061035,0.061035
8.488172,-0.026944,0.668809,10.017169,0.070576,0.096436,-0.016362,0.000000,0.091553,0.030518
8.498269,-0.019160,0.661025,10.023755,0.078360,0.088652,-0.009776,0.000000,0.061035,0.030518
8.508365,-0.018561,0.664019,10.025552,0.078959,0.091646,-0.007980,0.000000,0.030518,0.030518
8.518461,-0.017963,0.661025,10.033934,0.079557,0.088652,0.000403,0.000000,0.061035,0.061035
8.528556,-0.016765,0.663420,10.035132,0.080755,0.091047,0.001600,0.030518,0.030518,0.061035
8.538653,-0.017364,0.663420,10.030342,0.080156,0.091047,-0.003190,0.000000,0.061035,0.061035
8.548747,-0.015568,0.665815,10.027947,0.081952,0.093442,-0.005585,-0.030518,0.061035,0.061035
8.558843,-0.020358,0.667013,10.023755,0.077162,0.094640,-0.009776,0.061035,0.061035,0.030518
8.568964,-0.014370,0.671204,10.027947,0.083150,0.098831,-0.005585,0.061035,0.091553,0.061035
8.579060,-0.010179,0.671204,10.026749,0.087341,0.098831,-0.006782,0.061035,0.061035,0.030518
8.589157,-0.019759,0.670605,10.029144,0.077761,0.098232,-0.004387,0.030518,0.122070,0.030518
8.599253,-0.020358,0.668809,10.026151,0.077162,0.096436,-0.007381,0.061035,0.152588,0.061035
8.609349,-0.020956,0.661624,10.024354,0.076564,0.089251,-0.009177,0.061035,0.152588,0.000000
8.619446,-0.020358,0.664019,10.024953,0.077162,0.091646,-0.008579,0.061035,0.122070,0.030518
8.629542,-0.014370,0.664019,10.027348,0.083150,0.091646,-0.006184,0.091553,0.091553,0.000000
8.639637,-0.020956,0.659828,10.021360,0.076564,0.087455,-0.012171,0.061035,0.091553,0.030518
8.649733,-0.017364,0.655038,10.018367,0.080156,0.082665,-0.015165,0.061035,0.091553,0.030518
8.659828,-0.018561,0.663420,10.020163,0.078959,0.091047,-0.013369,0.061035,0.061035,0.061035
8.669949,-0.018561,0.661624,10.024354,0.078959,0.089251,-0.009177,0.061035,0.061035,0.061035
8.680046,-0.026345,0.658032,10.012379,0.071175,0.085659,-0.021153,0.030518,0.091553,0.061035
8.690142,-0.018561,0.661025,10.014774,0.078959,0.088652,-0.018757,0.030518,0.030518,0.000000
8.700238,-0.019759,0.661624,10.014175,0.077761,0.089251,-0.019356,0.000000,0.030518,0.000000
8.710330,-0.019160,0.661025,10.008787,0.078360,0.088652,-0.024745,0.061035,0.030518,0.061035
8.720425,-0.018561,0.664019,10.008188,0.078959,0.091646,-0.025344,0.061035,0.061035,0.000000
8.730521,-0.019160,0.675396,10.007589,0.078360,0.103023,-0.025943,0.061035,0.061035,0.030518
8.740618,-0.019759,0.672402,9.998608,0.077761,0.100029,-0.034924,0.000000,0.061035,0.061035
8.750715,-0.019759,0.671204,10.000404,0.077761,0.098831,-0.033128,0.000000,0.091553,0.000000
8.760811,-0.022154,0.673000,9.996812,0.075366,0.100627,-0.036720,0.000000,0.091553,0.000000
8.770939,-0.026944,0.675396,10.003398,0.070576,0.103023,-0.030134,0.030518,0.030518,0.000000
8.781035,-0.027543,0.668210,9.999207,0.069977,0.095837,-0.034325,0.030518,0.030518,0.000000
8.791132,-0.027543,0.667612,9.998009,0.069977,0.095239,-0.035523,0.061035,0.030518,0.000000
8.801228,-0.022154,0.664618,9.992620,0.075366,0.092245,-0.040911,0.030518,0.030518,0.000000
8.811324,-0.018561,0.664019,9.995015,0.078959,0.091646,-0.038516,0.030518,0.030518,0.030518
8.821421,-0.024549,0.660427,9.998009,0.072971,0.088054,-0.035523,0.000000,0.061035,0.030518
8.831517,-0.024549,0.659828,9.997410,0.072971,0.087455,-0.036121,0.000000,0.061035,0.030518
8.841614,-0.022753,0.662822,9.995015,0.074767,0.090449,-0.038516,0.000000,0.061035,0.030518
8.851711,-0.024549,0.664019,9.996812,0.072971,0.091646,-0.036720,-0.030518,0.061035,0.061035
8.861808,-0.022753,0.660427,10.001003,0.074767,0.088054,-0.032529,0.000000,0.091553,0.091553
8.871930,-0.020358,0.667612,10.014175,0.077162,0.095239,-0.019356,-0.030518,0.061035,0.091553
8.882022,-0.019160,0.668210,10.019564,0.078360,0.095837,-0.013967,0.000000,0.061035,0.091553
8.892118,-0.017963,0.670605,10.015972,0.079557,0.098232,-0.017560,-0.030518,0.091553,0.091553
8.902216,-0.021555,0.668809,10.013577,0.075965,0.096436,-0.019955,-0.030518,0.091553,0.061035
8.912308,-0.013173,0.668210,10.016570,0.084347,0.095837,-0.016961,0.000000,0.091553,0.061035
8.922405,-0.013771,0.666414,10.017768,0.083749,0.094041,-0.015764,-0.030518,0.061035,0.061035
8.932502,-0.008383,0.660427,10.009984,0.089137,0.088054,-0.023548,0.000000,0.091553,0.061035
8.942599,-0.017963,0.664019,10.007589,0.079557,0.091646,-0.025943,-0.030518,0.091553,0.000000
8.952695,-0.022753,0.667013,10.005194,0.074767,0.094640,-0.028338,-0.030518,0.091553,0.030518
8.962792,-0.021555,0.667612,10.018367,0.075965,0.095239,-0.015165,-0.030518,0.091553,0.061035
8.972918,-0.020956,0.673000,10.024354,0.076564,0.100627,-0.009177,-0.061035,0.091553,0.030518
8.983015,-0.022154,0.671204,10.029144,0.075366,0.098831,-0.004387,0.000000,0.091553,0.030518
8.993111,-0.022154,0.670605,10.026151,0.075366,0.098232,-0.007381,0.000000,0.030518,0.030518
9.003207,-0.025746,0.670605,10.019564,0.071773,0.098232,-0.013967,0.000000,0.091553,0.000000
9.013304,-0.022753,0.664019,10.020163,0.074767,0.091646,-0.013369,0.000000,0.122070,0.000000
9.023399,-0.017963,0.658032,10.021360,0.079557,0.085659,-0.012171,0.000000,0.091553,0.030518
9.033495,-0.014370,0.660427,10.019564,0.083150,0.088054,-0.013967,0.030518,0.091553,0.030518
9.043591,-0.014969,0.656834,10.021360,0.082551,0.084461,-0.012171,0.061035,0.091553,0.061035
9.053688,-0.012574,0.653242,10.020163,0.084946,0.080869,-0.013369,0.091553,0.091553,0.030518
9.063784,-0.013771,0.657433,10.020762,0.083749,0.085060,-0.012770,0.122070,0.061035,0.030518
9.073902,-0.008383,0.661624,10.029743,0.089137,0.089251,-0.003789,0.091553,0.091553,0.030518
9.083999,-0.011376,0.658032,10.020762,0.086144,0.085659,-0.012770,0.091553,0.061035,0.030518
9.094096,-0.007784,0.658032,10.017768,0.089736,0.085659,-0.015764,0.091553,0.091553,0.000000
9.104193,-0.013771,0.665217,10.005793,0.083749,0.092844,-0.027739,0.061035,0.091553,0.000000
9.114289,-0.016166,0.661624,10.014774,0.081354,0.089251,-0.018757,0.061035,0.091553,0.030518
9.124385,-0.021555,0.659229,10.014774,0.075965,0.086856,-0.018757,0.030518,0.091553,0.000000
9.134482,-0.019759,0.662822,10.016570,0.077761,0.090449,-0.016961,0.030518,0.061035,0.000000
9.144578,-0.017963,0.660427,10.015373,0.079557,0.088054,-0.018159,0.000000,0.030518,0.030518
9.154675,-0.017364,0.659828,10.013577,0.080156,0.087455,-0.019955,0.030518,0.030518,0.061035
9.164771,-0.018561,0.659828,10.023157,0.078959,0.087455,-0.010375,0.030518,0.030518,0.000000
9.174892,-0.012574,0.667013,10.025552,0.084946,0.094640,-0.007980,0.000000,0.030518,0.000000
9.184989,-0.005988,0.668210,10.022558,0.091532,0.095837,-0.010974,-0.030518,0.061035,0.000000
9.195086,-0.015568,0.669408,10.020762,0.081952,0.097035,-0.012770,-0.061035,0.061035,0.000000
9.205183,-0.011376,0.670007,10.020163,0.086144,0.097634,-0.013369,-0.030518,0.091553,0.030518
9.215280,-0.005389,0.671204,10.032737,0.092131,0.098831,-0.000795,-0.030518,0.061035,0.030518
9.225377,-0.009580,0.670007,10.032138,0.087940,0.097634,-0.001394,0.000000,0.091553,0.030518
9.235474,-0.012574,0.671204,10.029743,0.084946,0.098831,-0.003789,0.030518,0.030518,0.030518
9.245571,-0.016166,0.672402,10.021959,0.081354,0.100029,-0.011572,0.030518,0.061035,0.030518
9.255667,-0.011376,0.672402,10.020762,0.086144,0.100029,-0.012770,0.030518,0.061035,0.000000
9.265764,-0.008981,0.667013,10.027947,0.088539,0.094640,-0.005585,0.030518,0.030518,0.000000
9.275886,-0.008383,0.670007,10.030342,0.089137,0.097634,-0.003190,0.061035,0.030518,0.030518
9.285982,-0.017364,0.659229,10.027947,0.080156,0.086856,-0.005585,0.061035,0.030518,0.000000
9.296079,-0.018561,0.659229,10.024953,0.078959,0.086856,-0.008579,0.061035,0.000000,0.030518
9.306176,-0.019160,0.658032,10.022558,0.078360,0.085659,-0.010974,0.061035,0.061035,0.000000
9.316271,-0.013771,0.652044,10.035132,0.083749,0.079671,0.001600,0.061035,0.091553,0.061035
9.326368,-0.011975,0.653840,10.030342,0.085545,0.081467,-0.003190,0.030518,0.091553,0.061035
9.336465,-0.017963,0.656235,10.025552,0.079557,0.083862,-0.007980,0.061035,0.061035,0.061035
9.346562,-0.014370,0.662223,10.030342,0.083150,0.089850,-0.003190,0.061035,0.091553,0.061035
9.356659,-0.015568,0.660427,10.030342,0.081952,0.088054,-0.003190,0.030518,0.091553,0.061035
9.366755,-0.020358,0.664618,10.035132,0.077162,0.092245,0.001600,0.061035,0.061035,0.061035
9.376876,-0.013173,0.662822,10.022558,0.084347,0.090449,-0.010974,0.091553,0.061035,0.061035
9.386973,-0.013771,0.658630,10.023157,0.083749,0.086257,-0.010375,0.061035,0.061035,0.030518
9.397070,-0.013173,0.662223,10.026151,0.084347,0.089850,-0.007381,0.091553,0.091553,0.000000
9.407166,-0.011376,0.664019,10.025552,0.086144,0.091646,-0.007980,0.061035,0.091553,0.030518
9.417263,-0.013173,0.665815,10.024953,0.084347,0.093442,-0.008579,0.030518,0.122070,0.000000
9.427359,-0.012574,0.665815,10.026749,0.084946,0.093442,-0.006782,0.061035,0.122070,0.000000
9.437454,-0.008383,0.671204,10.024354,0.089137,0.098831,-0.009177,0.030518,0.152588,0.030518
9.447550,-0.010778,0.670007,10.023157,0.086742,0.097634,-0.010375,0.030518,0.183105,0.061035
9.457646,-0.014370,0.671204,10.024953,0.083150,0.098831,-0.008579,0.030518,0.152588,0.061035
9.467742,-0.009580,0.670007,10.029144,0.087940,0.097634,-0.004387,0.030518,0.152588,0.091553
9.477863,-0.014370,0.665815,10.021959,0.083150,0.093442,-0.011572,0.061035,0.122070,0.091553
9.487960,-0.010778,0.662822,10.018965,0.086742,0.090449,-0.014566,0.030518,0.122070,0.061035
9.498056,-0.007784,0.662223,10.015373,0.089736,0.089850,-0.018159,0.030518,0.091553,0.030518
9.508152,-0.011376,0.665815,10.017169,0.086144,0.093442,-0.016362,0.030518,0.091553,0.030518
9.518250,-0.016166,0.662223,10.021360,0.081354,0.089850,-0.012171,0.030518,0.122070,0.000000
9.528346,-0.016765,0.664019,10.019564,0.080755,0.091646,-0.013967,0.000000,0.122070,0.000000
9.538442,0.004191,0.606539,9.940529,0.101711,0.034166,-0.093003,0.732422,0.213623,-0.091553
9.548540,0.010778,0.561632,10.029144,0.108298,-0.010741,-0.004387,1.129150,0.213623,-0.335693
9.558634,0.091011,0.299976,10.037527,0.188531,-0.272397,0.003995,0.885010,-0.610352,-5.615234
9.568727,-0.065863,0.817300,10.006392,0.031657,0.244927,-0.027140,1.892090,-0.579834,-6.103516
9.578848,-0.047900,0.734073,10.020762,0.049620,0.161700,-0.012770,1.861572,-0.488281,-5.035400
9.588944,-0.057480,0.489183,10.110575,0.040039,-0.083190,0.077043,1.525879,-1.007080,-6.805420
9.599041,-0.029938,0.437690,10.114766,0.067582,-0.134683,0.081235,2.319336,-1.251221,-7.812500
9.609138,0.413740,-1.296903,10.275233,0.511260,-1.869276,0.241701,-3.051758,-5.279541,-30.853271
9.619232,0.225132,-0.796943,10.138716,0.322652,-1.369316,0.105185,-2.380371,-7.720947,-51.849365
9.629332,0.249082,-0.972378,10.538685,0.346602,-1.544751,0.505153,-3.051758,-12.054443,-93.811035
9.639429,0.339494,-0.140109,10.076446,0.437014,-0.712482,0.042914,-0.335693,-13.427734,-111.907959
9.649525,0.396974,0.078437,9.974059,0.494494,-0.493936,-0.059473,0.274658,-14.373779,-125.396729
9.659622,-0.107776,1.591490,10.017169,-0.010256,1.019117,-0.016362,1.983643,-14.648438,-134.887695
9.669718,-0.245490,1.921404,10.048304,-0.147970,1.349031,0.014773,0.762939,-14.099121,-128.662109
9.679899,-0.331710,1.924398,9.893826,-0.234190,1.352025,-0.139706,0.732422,-12.512207,-106.811523
9.689990,-0.313149,1.875899,9.765093,-0.215629,1.303526,-0.268438,0.427246,-10.986328,-94.940186
9.700080,-0.222737,1.893862,9.754915,-0.125217,1.321489,-0.278617,-2.838135,-7.629395,-74.798584
9.710170,-0.387993,1.490900,9.968670,-0.290473,0.918527,-0.064862,-2.441406,-6.835938,-66.284180
9.720260,-0.347278,1.272354,9.986633,-0.249758,0.699981,-0.046899,-1.922607,-6.072998,-59.265137
9.730350,-0.059277,0.496368,10.041119,0.038243,-0.076005,0.007588,-2.807617,-6.103516,-57.495117
9.740440,-0.124541,0.356259,10.020762,-0.027021,-0.216114,-0.012770,-3.448486,-6.652832,-64.056396
9.750530,-0.323926,1.102308,9.993818,-0.226406,0.529935,-0.039714,-2.136230,-7.904053,-75.103760
9.760620,-0.243094,0.838257,10.033336,-0.145575,0.265884,-0.000196,-1.617432,-8.239746,-75.805664
9.770710,-0.111967,0.468226,10.089619,-0.014447,-0.104147,0.056087,-1.342773,-9.124756,-80.047607
9.780857,-0.015568,0.602946,10.095007,0.081952,0.030573,0.061476,-1.342773,-9.490967,-83.923340
9.790954,-0.037722,0.644859,10.030342,0.059798,0.072486,-0.003190,-1.312256,-10.528564,-92.834473
9.801051,-0.210163,0.612526,10.044113,-0.112643,0.040153,0.010581,-1.251221,-11.230469,-99.212646
9.811144,-0.413141,0.448467,10.165062,-0.315621,-0.123906,0.131530,-1.068115,-12.023926,-107.452393
9.821240,-0.270637,0.587379,10.053693,-0.173117,0.015006,0.020162,-1.464844,-14.862061,-126.800537
9.831336,-0.167651,0.956810,10.509944,-0.070131,0.384437,0.476413,-0.427246,-14.923096,-137.084961
9.841434,-0.147294,1.205294,9.993818,-0.049774,0.632921,-0.039714,-2.288818,-16.448975,-141.021729
9.851530,-0.089214,1.193917,10.001602,0.008305,0.621544,-0.031930,-2.319336,-15.594482,-137.878418
9.861627,-0.167053,1.162183,10.012379,-0.069533,0.589810,-0.021153,-1.617432,-14.373779,-127.960205
9.871723,-0.067659,0.870590,10.050699,0.029861,0.298217,0.017168,-1.831055,-13.824463,-123.901367
9.881844,0.009580,0.653840,9.993219,0.107100,0.081467,-0.040313,-1.861572,-13.671875,-121.276855
9.891940,-0.017364,0.447270,10.063872,0.080156,-0.125103,0.030340,-1.129150,-14.251709,-124.450684
9.902038,-0.052092,0.734672,10.061477,0.045428,0.162299,0.027945,-0.732422,-14.709473,-127.502441
9.912135,-0.013771,0.737666,10.047706,0.083749,0.165293,0.014174,-0.915527,-14.495850,-127.349854
9.922231,0.082029,0.625100,10.069860,0.179549,0.052727,0.036328,-1.098633,-14.007568,-122.467041
9.932328,0.152084,0.485590,10.042317,0.249604,-0.086783,0.008785,-1.617432,-12.786865,-109.680176
9.942425,0.153880,0.520917,10.077045,0.251400,-0.051456,0.043513,-1.586914,-12.054443,-104.034424
9.952523,0.052690,0.417931,10.020163,0.150210,-0.154442,-0.013369,-1.403809,-11.688232,-100.555420
9.962619,-0.231718,0.449665,10.188413,-0.134198,-0.122708,0.154881,-1.678467,-11.810303,-101.531982
9.972716,-0.126337,0.373623,10.002200,-0.028817,-0.198750,-0.031331,-1.617432,-12.390137,-105.316162
9.982836,-0.095202,0.564027,10.084828,0.002318,-0.008346,0.051297,-2.044678,-12.817383,-113.769531
9.992932,0.020358,0.669408,10.014175,0.117878,0.097035,-0.019356,-2.044678,-12.603760,-117.218018
10.003028,0.283211,0.775388,9.907597,0.380731,0.203015,-0.125935,-3.967285,-9.002686,-116.577148
10.013125,0.452060,0.999322,9.963880,0.549580,0.426949,-0.069652,-5.004883,-5.767822,-112.609863
10.023221,0.329315,0.827479,9.937535,0.426835,0.255106,-0.095997,-4.943848,-4.943848,-106.018066
10.033317,0.394579,1.074166,10.042317,0.492099,0.501793,0.008785,-2.899170,-5.340576,-89.599609
10.043414,0.110171,0.761616,10.022558,0.207691,0.189243,-0.010974,-2.838135,-5.157471,-82.946777
10.053510,-0.013771,0.716710,10.072853,0.083749,0.144337,0.039322,-0.823975,-7.385254,-82.580566
10.063606,0.004790,0.703537,10.040521,0.102310,0.131164,0.006989,-0.640869,-8.117676,-84.838867
10.073702,0.209564,0.856818,10.053094,0.307084,0.284445,0.019563,-0.579834,-8.361816,-85.327148
10.083823,0.162861,0.719105,10.012978,0.260381,0.146732,-0.020554,0.213623,-8.789062,-84.594727
10.093921,0.258063,0.926873,10.057885,0.355583,0.354500,0.024353,-0.030518,-8.789062,-81.665039
10.104017,0.099393,0.826880,10.014774,0.196913,0.254507,-0.018757,0.640869,-9.826660,-80.139160
10.114113,-0.050295,0.750240,10.050101,0.047225,0.177867,0.016569,1.007080,-10.681152,-80.200195
10.124209,-0.060474,0.737067,10.053693,0.037046,0.164694,0.020162,0.579834,-12.023926,-83.068848
10.134306,-0.140109,0.648452,10.043514,-0.042589,0.076079,0.009983,1.495361,-14.221191,-84.686279
10.144435,0.167651,0.851429,9.957294,0.265171,0.279056,-0.076238,3.784180,-18.615723,-91.796875
10.154531,0.167651,0.882565,9.940529,0.265171,0.310192,-0.093003,1.495361,-16.143799,-95.642090
10.164628,0.186812,0.879571,10.002799,0.284331,0.307198,-0.030733,2.014160,-16.448975,-104.614258
10.174723,1.010698,1.085543,9.944720,1.108218,0.513170,-0.088812,1.770020,-16.265869,-110.778809
10.184844,1.222059,1.004112,9.938134,1.319579,0.431739,-0.095398,1.281738,-15.930176,-119.232178
10.194940,0.735271,1.114283,9.952504,0.832791,0.541910,-0.081028,-2.899170,-11.169434,-127.593994
10.205036,0.703537,1.113684,9.895023,0.801057,0.541311,-0.138508,-5.310059,-7.720947,-124.786377
10.215132,0.611927,0.919687,9.968670,0.709447,0.347315,-0.064862,-4.943848,-6.317139,-113.342285
10.225229,0.504750,0.858615,9.985435,0.602270,0.286242,-0.048096,-4.241943,-6.408691,-104.522705
10.235326,0.641865,0.901126,9.951306,0.739385,0.328753,-0.082226,-2.410889,-7.110596,-86.700439
10.245422,-0.293989,0.934656,10.001003,-0.196469,0.362283,-0.032529,-1.678467,-6.256104,-75.134277
10.255518,-0.182620,0.864003,10.002799,-0.085100,0.291630,-0.030733,-1.159668,-5.493164,-63.812256
10.265615,0.293390,0.946631,10.004595,0.390910,0.374258,-0.028936,-0.579834,-4.943848,-50.872803
10.275710,0.411345,0.938848,9.981244,0.508865,0.366475,-0.052288,-0.823975,-4.608154,-47.851562
10.285831,0.054487,0.956810,9.998608,0.152007,0.384437,-0.034924,0.335693,-5.950928,-49.499512
10.295928,0.097597,0.980760,10.032737,0.195117,0.408388,-0.000795,-0.915527,-4.425049,-48.614502
10.306026,0.279020,0.928070,9.989626,0.376540,0.355697,-0.043905,-0.305176,-4.333496,-48.889160
10.316122,0.413141,0.869392,10.017169,0.510661,0.297019,-0.016362,-0.244141,-4.272461,-49.407959
10.326218,0.419727,0.739462,10.026749,0.517247,0.167089,-0.006782,0.183105,-4.669189,-49.926758
10.336314,0.320933,0.716710,10.030342,0.418453,0.144337,-0.003190,-0.610352,-4.241943,-50.567627
10.346411,0.147294,0.799338,10.041119,0.244814,0.226965,0.007588,0.366211,-5.126953,-50.231934
10.356507,0.325124,0.865201,10.050101,0.422644,0.292828,0.016569,3.143311,-9.002686,-54.779053
10.366605,0.238903,0.962199,9.995015,0.336423,0.389826,-0.038516,4.058838,-10.406494,-57.556152
10.376701,0.198787,1.202899,9.910591,0.296307,0.630526,-0.122941,2.838135,-8.880615,-57.281494
10.386821,0.299976,1.099314,9.971664,0.397496,0.526941,-0.061868,0.366211,-6.103516,-55.480957
10.396917,0.319136,1.039438,10.008787,0.416656,0.467065,-0.024745,-0.152588,-5.187988,-54.077148
10.407013,0.405357,1.076561,9.963880,0.502877,0.504188,-0.069652,-1.007080,-4.241943,-53.192139
10.417106,0.252675,1.073568,10.009984,0.350195,0.501195,-0.023548,-1.281738,-3.631592,-50.415039
10.427203,0.318538,1.063389,9.992620,0.416058,0.491016,-0.040911,-0.946045,-3.387451,-45.684814
10.437299,0.290995,1.008902,9.989028,0.388515,0.436529,-0.044504,-0.549316,-3.479004,-44.372559
10.447395,0.387394,1.244213,9.929152,0.484914,0.671840,-0.104379,0.457764,-4.760742,-45.654297
10.457492,0.177231,1.252595,9.987231,0.274751,0.680222,-0.046300,0.518799,-4.974365,-47.698975
10.467588,-0.025746,1.035247,9.977651,0.071773,0.462874,-0.055880,0.213623,-4.730225,-45.074463
10.477687,-0.160466,1.202899,9.969269,-0.062946,0.630526,-0.064263,0.274658,-4.272461,-45.013428
10.487810,0.021555,0.990341,10.052496,0.119075,0.417968,0.018964,-1.068115,-2.471924,-43.304443
10.497907,0.377216,1.156794,9.993219,0.474736,0.584421,-0.040313,-0.213623,-3.479004,-41.778564
10.508003,0.310155,1.081351,10.002799,0.407675,0.508978,-0.030733,0.213623,-3.936768,-44.189453
10.518101,0.198188,1.071172,9.982441,0.295708,0.498799,-0.051090,0.488281,-4.852295,-48.095703
10.528196,0.083826,1.056802,9.971065,0.181346,0.484429,-0.062467,-1.342773,-3.051758,-47.210693
10.538292,0.060474,1.144819,10.006392,0.157994,0.572446,-0.027140,-1.434326,-2.716064,-45.745850
10.548388,0.059875,1.228645,9.927955,0.157395,0.656272,-0.105577,-1.098633,-3.265381,-47.088623
10.558485,0.031734,1.247805,9.918375,0.129254,0.675432,-0.115157,-0.549316,-3.967285,-47.943115
10.568581,-0.417931,0.983156,10.042317,-0.320411,0.410783,0.008785,-1.403809,-2.807617,-45.440674
10.578677,-0.219743,0.992137,9.969269,-0.122223,0.419764,-0.064263,-1.068115,-2.532959,-41.442871
10.588797,0.029339,0.940644,10.011780,0.126859,0.368271,-0.021751,-0.396729,-2.532959,-34.637451
10.598894,0.032932,0.972378,10.000404,0.130451,0.400005,-0.033128,-0.091553,-2.838135,-33.050537
10.608991,0.114961,0.884361,10.033934,0.212481,0.311988,0.000403,-0.274658,-2.319336,-27.191162
10.619088,0.099992,0.932860,10.054292,0.197512,0.360487,0.020760,-0.701904,-1.800537,-23.742676
10.629185,-0.004790,1.037642,10.000404,0.092730,0.465269,-0.033128,-1.007080,-1.434326,-20.050049
10.639282,-0.038919,0.984952,9.998009,0.058601,0.412579,-0.035523,-1.037598,-1.281738,-19.653320
10.649378,-0.038919,1.001118,9.993818,0.058601,0.428745,-0.039714,-0.946045,-1.464844,-20.019531
10.659475,0.029339,1.066382,9.946516,0.126859,0.494009,-0.087016,-0.061035,-1.800537,-17.211914
10.669570,0.065863,0.972378,10.006392,0.163383,0.400005,-0.027140,-0.152588,-1.403809,-14.526367
10.679667,0.087418,1.192121,9.970466,0.184938,0.619748,-0.063065,-3.112793,1.403809,-4.791260
10.689787,0.161065,1.093925,9.982441,0.258585,0.521552,-0.051090,-4.119873,2.410889,-0.610352
10.699884,0.085622,1.213676,9.982441,0.183142,0.641303,-0.051090,-3.723145,2.258301,2.990723
10.709980,0.314945,1.153801,10.039922,0.412465,0.581428,0.006390,-2.044678,1.159668,1.861572
10.720076,0.202978,1.373544,9.965078,0.300498,0.801171,-0.068454,-1.037598,0.183105,-0.854492
10.730173,-0.007784,1.469344,9.927955,0.089736,0.896971,-0.105577,-0.518799,0.610352,1.464844
10.740268,-0.092807,1.220861,9.977053,0.004713,0.648488,-0.056479,-3.173828,2.502441,4.608154
10.750365,0.033530,1.063987,10.050101,0.131050,0.491614,0.016569,-0.701904,1.525879,7.873535
10.760462,-0.019160,1.241219,9.995614,0.078360,0.668846,-0.037918,0.549316,0.823975,7.629395
10.770551,-0.017364,1.400488,9.898017,0.080156,0.828115,-0.135515,1.098633,0.427246,6.713867
10.780639,-0.017364,1.219664,10.006990,0.080156,0.647291,-0.026541,1.373291,-0.091553,4.333496
10.790761,-0.028740,1.396895,9.871672,0.068780,0.824522,-0.161860,-0.244141,0.427246,-3.601074
10.800858,0.000599,1.301693,9.974658,0.098119,0.729320,-0.058874,-0.244141,0.427246,-4.516602
10.810954,0.023950,1.296903,9.966874,0.121470,0.724530,-0.066658,1.770020,-1.251221,-4.486084
10.821050,-0.104183,1.386716,9.917776,-0.006663,0.814343,-0.115756,0.671387,0.183105,-2.838135
10.831146,-0.011376,1.314267,9.935739,0.086144,0.741894,-0.097793,2.441406,-1.281738,-2.685547
10.841244,0.081431,1.447191,9.885443,0.178951,0.874818,-0.148089,-0.732422,1.464844,4.791260
10.851340,0.085622,1.379531,9.953701,0.183142,0.807158,-0.079830,-1.953125,2.685547,8.972168
10.861436,0.149090,1.271755,10.075847,0.246610,0.699382,0.042316,-1.953125,3.204346,13.061523
10.871533,0.169448,1.426234,9.915980,0.266968,0.853861,-0.117552,-1.556396,3.082275,12.969971
10.881629,0.343087,1.413660,9.908196,0.440607,0.841287,-0.125336,-1.770020,2.929688,11.901855
10.891751,0.101190,1.255589,9.959090,0.198710,0.683216,-0.074442,-1.159668,4.150391,11.352539
10.901847,0.005988,1.372346,9.960886,0.103508,0.799973,-0.072645,-0.091553,3.204346,7.202148
10.911972,0.154479,1.417852,10.130334,0.251999,0.845479,0.096802,-1.007080,4.119873,3.265381
10.922069,0.149090,1.366359,10.026151,0.246610,0.793986,-0.007381,-0.579834,3.265381,1.556396
10.932166,0.299377,1.363365,9.906400,0.396897,0.790992,-0.127132,-0.335693,0.885010,-3.173828
10.942262,0.470023,1.492097,9.842333,0.567543,0.919724,-0.191199,-0.671387,0.823975,-3.967285
10.952359,0.580193,1.466351,9.778266,0.677713,0.893978,-0.255266,-0.885010,1.007080,-2.990723
10.962456,0.433499,1.566942,9.839339,0.531018,0.994569,-0.194193,-1.281738,0.885010,-2.471924
10.972551,0.484991,1.476530,9.962084,0.582511,0.904157,-0.071448,-0.732422,0.701904,-3.173828
10.982647,0.437690,1.392105,9.987830,0.535210,0.819732,-0.045701,1.739502,-1.129150,-7.232666
10.992767,0.301174,1.306483,9.942924,0.398694,0.734110,-0.090608,1.525879,-2.288818,-8.361816
11.002863,0.216151,1.556164,9.842333,0.313670,0.983791,-0.191199,1.220703,-0.335693,3.417969
11.012959,-0.016765,1.311872,9.838740,0.080755,0.739499,-0.194791,-0.762939,0.396729,8.056641
11.023057,0.101190,1.445993,9.857900,0.198710,0.873620,-0.175631,0.213623,1.312256,12.054443
11.033153,0.015568,1.198109,10.096804,0.113088,0.625736,0.063272,-1.037598,1.831055,13.580322
11.043249,-0.074844,1.149011,10.049502,0.022676,0.576638,0.015970,-4.669189,1.159668,14.190674
11.053346,0.083826,1.111289,10.016570,0.181346,0.538916,-0.016961,-2.716064,0.366211,12.145996
11.063439,-0.250878,1.208287,9.888437,-0.153358,0.635914,-0.145095,-1.007080,0.274658,10.467529
11.073535,-0.033530,1.331631,9.948312,0.063990,0.759258,-0.085219,0.518799,0.854492,15.563965
11.083631,0.044907,1.008303,10.068063,0.142427,0.435930,0.034532,0.579834,0.976562,18.188477
11.093750,-0.052690,1.339415,9.889634,0.044830,0.767042,-0.143897,-1.037598,1.739502,23.193359
11.103846,-0.113165,1.237028,10.029144,-0.015645,0.664655,-0.004387,0.152588,2.227783,23.803711
11.113942,-0.020358,1.156196,9.976454,0.077162,0.583823,-0.057078,-1.037598,1.739502,22.430420
11.124039,0.137714,1.241818,9.978250,0.235234,0.669445,-0.055282,-0.915527,0.701904,15.045166
11.134137,-0.020358,1.261577,9.951306,0.077162,0.689204,-0.082226,-0.274658,-0.183105,7.080078
11.144233,0.040117,1.440005,9.901011,0.137637,0.867632,-0.132521,0.946045,-1.342773,-4.089355
11.154329,0.067061,1.362766,9.931547,0.164581,0.790393,-0.101984,-0.030518,-1.495361,-4.852295
11.164425,0.204175,1.674119,9.849518,0.301695,1.101746,-0.184014,0.335693,-0.335693,2.868652
11.174522,0.332309,1.339415,9.874666,0.429829,0.767042,-0.158866,1.190186,0.305176,4.669189
11.184618,0.220342,1.625021,9.937535,0.317862,1.052648,-0.095997,2.532959,-0.335693,-4.333496
11.194738,-0.023351,1.493893,9.954899,0.074169,0.921520,-0.078633,2.136230,-3.540039,-31.555176
11.204834,-0.185614,1.562151,9.884246,-0.088094,0.989778,-0.149286,0.152588,-4.699707,-39.154053
11.214930,-0.043709,1.400488,9.973460,0.053811,0.828115,-0.060072,-1.556396,-4.180908,-37.780762
11.225025,0.003593,1.618434,9.993818,0.101112,1.046061,-0.039714,-3.631592,-3.875732,-31.860352
11.235122,-0.011376,1.586700,10.036928,0.086144,1.014327,0.003396,-0.427246,-1.586914,-19.989014
11.245218,0.508343,1.984274,9.906400,0.605863,1.411901,-0.127132,1.373291,-0.396729,-19.042969
11.255314,0.351469,1.639990,9.944121,0.448989,1.067617,-0.089411,-1.617432,-0.152588,-17.791748
11.265410,0.310754,1.706451,9.934541,0.408274,1.134078,-0.098991,-6.530762,-0.915527,-10.406494
11.275506,0.512534,1.375939,9.743538,0.610054,0.803566,-0.289993,-3.509521,-0.762939,-7.141113
11.285603,0.284409,1.717229,9.795630,0.381929,1.144856,-0.237902,2.319336,-0.549316,-9.094238
11.295723,0.378413,1.345402,9.934541,0.475933,0.773029,-0.098991,1.464844,-0.549316,-7.812500
11.305819,0.273631,1.340013,9.925560,0.371151,0.767640,-0.107972,0.793457,0.701904,-0.885010
11.315916,0.392184,1.039438,9.904005,0.489704,0.467065,-0.129527,-2.990723,0.671387,7.965088
11.326012,0.256866,1.349594,9.955497,0.354386,0.777221,-0.078034,-0.732422,0.671387,10.589600
11.336108,0.078437,1.189127,9.895622,0.175957,0.616754,-0.137910,-1.037598,0.335693,11.810303
11.346205,0.011975,1.102308,10.023157,0.109495,0.529935,-0.010375,-0.701904,0.732422,15.930176
11.356304,0.249681,1.314866,9.919572,0.347201,0.742493,-0.113960,3.051758,0.000000,9.429932
11.366401,0.011975,1.248404,10.062675,0.109495,0.676031,0.029143,3.753662,-1.647949,-1.861572
11.376498,0.013173,1.269959,10.075248,0.110693,0.697586,0.041717,3.082275,-0.671387,-3.356934
11.386595,0.161664,1.642983,10.068662,0.259184,1.070610,0.035130,2.502441,0.305176,1.678467
11.396721,0.298180,1.754951,9.763896,0.395700,1.182578,-0.269636,1.068115,0.762939,0.030518
11.406817,0.099992,1.350192,9.939331,0.197512,0.777819,-0.094201,-3.753662,0.274658,1.403809
11.416914,0.203577,1.464554,10.068063,0.301097,0.892181,0.034532,-5.340576,-0.305176,-1.678467
11.427010,0.632884,1.586700,9.944720,0.730404,1.014327,-0.088812,-3.448486,-1.007080,-13.092041
11.437107,0.605341,1.019081,10.061477,0.702861,0.446708,0.027945,-1.342773,-1.434326,-20.782471
11.447202,0.671803,1.234633,10.043514,0.769323,0.662260,0.009983,3.906250,-3.051758,-32.257080
11.457299,0.593965,1.031655,9.994417,0.691485,0.459282,-0.039115,3.265381,-4.364014,-38.269043
11.467395,0.467029,1.609453,9.962682,0.564549,1.037080,-0.070849,-5.523682,-5.279541,-28.350830
11.477491,0.496368,0.546064,9.958491,0.593888,-0.026309,-0.075040,-3.936768,-4.425049,-18.249512
11.487588,0.538879,0.969384,9.915980,0.636399,0.397011,-0.117552,1.922607,-2.258301,-9.552002
11.497708,0.054487,1.271157,10.131531,0.152007,0.698784,0.098000,1.647949,1.190186,4.669189
11.507804,0.312550,0.949625,9.960287,0.410070,0.377252,-0.073244,-0.488281,1.708984,14.038086
11.517906,0.141905,1.254391,9.591454,0.239425,0.682018,-0.442077,0.732422,1.647949,10.772705
11.528005,0.144899,1.348396,10.002799,0.242419,0.776023,-0.030733,4.241943,2.441406,6.622314
11.538102,0.123344,1.334625,10.056687,0.220863,0.762252,0.023155,2.441406,-0.610352,-12.603760
11.548204,-0.231718,1.564547,10.003997,-0.134198,0.992174,-0.029535,2.929688,-0.396729,-13.336182
11.558302,-0.169448,1.525627,10.075248,-0.071928,0.953254,0.041717,-3.570557,0.335693,-4.516602
11.568420,0.062271,1.244213,9.889036,0.159790,0.671840,-0.144496,1.098633,0.488281,-3.692627
11.578514,0.008383,1.606459,10.034533,0.105903,1.034086,0.001001,4.028320,0.640869,-4.913330
11.588611,-0.127535,1.947151,9.711205,-0.030015,1.374778,-0.322326,-1.464844,2.746582,11.108398
11.598794,0.180225,1.483715,9.972861,0.277745,0.911342,-0.060670,0.213623,4.211426,19.714355
11.608885,-0.113165,1.559158,9.883048,-0.015645,0.986785,-0.150484,-1.342773,1.068115,13.977051
11.618975,-0.130529,1.215472,9.889036,-0.033009,0.643099,-0.144496,1.739502,0.030518,6.958008
11.629066,-0.130529,1.039438,9.867480,-0.033009,0.467065,-0.166051,4.028320,-0.823975,-4.913330
11.639156,-0.391586,0.951422,9.890832,-0.294066,0.379049,-0.142700,1.708984,-1.495361,-4.791260
11.649246,-0.492775,0.795146,10.008787,-0.395255,0.222773,-0.024745,0.396729,-1.617432,-1.281738
11.659335,-0.097597,0.833467,10.005194,-0.000077,0.261094,-0.028338,0.366211,-0.396729,0.823975
11.669426,-0.255668,0.962798,10.096804,-0.158148,0.390425,0.063272,0.091553,-0.396729,-3.143311
11.679517,0.092807,0.368833,10.323732,0.190327,-0.203540,0.290200,1.831055,-2.380371,-5.920410
11.689604,0.202978,1.095123,9.887239,0.300498,0.522750,-0.146292,3.753662,-2.593994,-5.706787
11.699758,-0.049098,1.256786,9.905202,0.048422,0.684414,-0.128330,2.532959,-0.244141,1.190186
11.709856,0.128134,0.934058,10.151889,0.225654,0.361685,0.118357,0.610352,-0.457764,3.112793
11.719978,0.018561,1.295107,9.758507,0.116081,0.722734,-0.275025,-1.434326,0.610352,5.371094
11.730075,0.234712,1.135239,9.954899,0.332232,0.562866,-0.078633,-0.793457,-0.396729,0.640869
11.740172,0.122745,0.848436,9.942325,0.220265,0.276063,-0.091207,1.953125,-0.457764,-4.455566
11.750269,0.179028,1.084944,9.805809,0.276548,0.512571,-0.227723,-0.762939,-0.152588,-2.288818
11.760365,0.141306,0.919089,9.881252,0.238826,0.346716,-0.152280,1.251221,0.427246,-1.678467
11.770462,0.169448,1.066981,10.113569,0.266968,0.494608,0.080037,1.434326,0.000000,-3.875732
11.780568,0.206570,0.959804,10.077643,0.304090,0.387431,0.044112,1.281738,-0.366211,-7.324219
11.790708,0.098795,0.832269,9.997410,0.196315,0.259896,-0.036121,1.770020,-0.823975,-16.448975
11.800829,0.051493,0.827479,10.033934,0.149013,0.255106,0.000403,1.953125,-1.861572,-19.592285
11.810942,-0.143701,0.626896,9.967473,-0.046181,0.054523,-0.066059,0.366211,-2.685547,-23.132324
11.821475,-0.507744,0.683778,9.732761,-0.410224,0.111405,-0.300771,0.549316,-0.610352,-20.294189
11.831568,-0.787961,0.373024,9.941726,-0.690441,-0.199349,-0.091806,-2.014160,0.427246,-8.697510
11.841697,-0.111368,0.593366,10.075847,-0.013848,0.020993,0.042316,-0.244141,1.281738,12.329102
11.851844,-0.280816,0.924478,9.931547,-0.183296,0.352105,-0.101984,-0.701904,2.075195,14.984131
11.861978,0.050894,0.629890,10.185419,0.148414,0.057517,0.151888,-4.302979,0.030518,7.751465
11.872103,-0.235909,0.902324,9.912387,-0.138389,0.329951,-0.121145,0.061035,-0.305176,-1.159668
11.882247,-0.740061,0.526904,10.125544,-0.642541,-0.045469,0.092012,2.716064,-1.098633,-8.087158
11.892357,-0.372426,0.720302,9.980046,-0.274906,0.147929,-0.053485,3.601074,-1.281738,-5.981445
11.902581,-0.142504,0.751437,10.063872,-0.044984,0.179064,0.030340,3.723145,-1.037598,-5.706787
11.912665,-0.340093,1.047222,9.872271,-0.242573,0.474849,-0.161261,3.143311,-1.892090,-11.077881
11.922759,-0.637075,0.855022,10.068063,-0.539555,0.282649,0.034532,1.220703,-2.380371,-11.413574
11.932851,-0.411943,1.139431,10.051897,-0.314423,0.567058,0.018365,0.305176,0.579834,-0.396729
11.942918,0.466430,1.205294,9.927955,0.563950,0.632921,-0.105577,0.549316,0.152588,-11.993408
11.952985,0.246687,0.775986,9.967473,0.344207,0.203613,-0.066059,-2.105713,-2.227783,-20.263672
11.963053,-0.028141,1.269360,9.917177,0.069378,0.696987,-0.116355,-0.518799,-0.549316,-6.622314
11.973117,0.305365,1.056802,10.100995,0.402885,0.484429,0.067463,-0.946045,0.946045,5.187988
11.983184,0.511337,1.347797,9.846524,0.608857,0.775424,-0.187008,-0.427246,1.434326,5.401611
11.993249,0.313748,1.392105,9.821376,0.411268,0.819732,-0.212155,0.671387,0.213623,-4.028320
12.003315,0.097597,1.414259,9.846524,0.195117,0.841886,-0.187008,0.305176,-1.037598,-10.437012
12.013380,0.046703,1.508264,10.078841,0.144223,0.935891,0.045309,-1.403809,0.000000,2.990723
12.023444,0.453257,1.287922,10.044712,0.550777,0.715549,0.011180,1.678467,0.213623,-0.488281
12.033508,0.247885,1.584305,9.646540,0.345404,1.011932,-0.386992,0.671387,-0.854492,-10.192871
12.043573,0.495170,1.178948,9.918973,0.592690,0.606575,-0.114558,-0.183105,-2.227783,-17.272949
12.053639,0.449066,1.223256,9.656719,0.546586,0.650883,-0.376813,1.495361,-3.051758,-28.350830
12.063714,0.245490,1.110092,10.130933,0.343009,0.537719,0.097401,-1.983643,-4.119873,-27.923584
12.073780,0.643063,1.115480,9.799222,0.740583,0.543107,-0.234309,0.549316,-2.655029,-32.928467
12.083848,0.658630,0.912502,9.990824,0.756150,0.340129,-0.042708,2.349854,-4.119873,-40.618896
12.093912,0.623903,1.176553,9.990225,0.721423,0.604180,-0.043306,0.915527,-4.028320,-37.536621
12.103977,0.937051,1.210682,10.057286,1.034571,0.638309,0.023754,1.739502,-4.089355,-34.820557
12.114041,0.841849,1.274150,9.970466,0.939369,0.701777,-0.063065,3.295898,-3.814697,-38.238525
12.124112,0.567620,1.406475,9.759106,0.665140,0.834102,-0.274426,3.509521,-3.051758,-36.254883
12.134176,0.437690,0.973575,10.091415,0.535210,0.401202,0.057883,3.845215,-2.563477,-30.975342
12.144243,0.167053,0.831072,10.350676,0.264573,0.258699,0.317144,3.173828,-1.983643,-12.847900
12.154308,-0.014969,1.029858,10.017768,0.082551,0.457485,-0.015764,2.471924,1.037598,5.706787
12.164374,0.070653,0.973575,10.026151,0.168173,0.401202,-0.007381,0.701904,4.089355,32.867432
12.174439,0.092807,0.796344,10.042317,0.190327,0.223971,0.008785,-0.366211,4.211426,35.339355
12.184511,0.173040,1.133443,9.851314,0.270560,0.561070,-0.182218,-4.669189,3.448486,35.858154
12.194576,-0.170645,0.246687,9.989028,-0.073125,-0.325686,-0.044504,-3.723145,5.432129,34.454346
12.204642,0.056882,0.743654,10.267449,0.154402,0.171281,0.233917,-1.831055,5.706787,32.501221
12.214706,-0.098196,0.658032,10.115365,-0.000676,0.085659,0.081833,-1.708984,4.577637,25.024414
12.224771,0.232916,0.696951,9.968071,0.330436,0.124578,-0.065460,-1.434326,1.251221,12.756348
12.234836,0.208965,1.006507,9.956695,0.306485,0.434134,-0.076837,0.091553,0.000000,4.333496
12.244902,0.203577,0.670007,10.268646,0.301097,0.097634,0.235115,-1.007080,0.213623,6.652832
12.254966,0.280217,0.736469,10.035132,0.377737,0.164096,0.001600,-1.495361,0.030518,5.218506
12.265032,0.091609,1.331631,10.045909,0.189129,0.759258,0.012378,3.265381,1.739502,8.666992
12.275095,0.356858,1.374741,9.869875,0.454378,0.802368,-0.163656,4.211426,0.793457,7.934570
12.285160,0.536484,1.231639,10.185419,0.634004,0.659266,0.151888,3.936768,-1.953125,-7.019043
12.295224,0.136516,1.380729,9.998009,0.234036,0.808356,-0.035523,3.387451,-1.190186,-6.225586
12.305297,-0.319735,1.545985,9.935140,-0.222215,0.973612,-0.098392,-1.129150,0.976562,5.371094
12.315362,0.111967,1.238824,10.021959,0.209487,0.666451,-0.011572,-2.197266,1.251221,10.253906
12.325427,0.067659,0.853226,10.445279,0.165179,0.280853,0.411747,-1.586914,2.899170,20.050049
12.335493,-0.228724,0.949026,10.290201,-0.131204,0.376653,0.256670,2.288818,2.197266,13.275146
12.345558,-0.092208,0.486189,10.303973,0.005312,-0.086184,0.270441,1.190186,-0.396729,-0.366211
12.355623,0.343685,0.444875,9.894424,0.441205,-0.127498,-0.139107,1.586914,-1.068115,-0.823975
12.365695,0.009580,0.358654,10.083032,0.107100,-0.213719,0.049501,2.105713,-0.946045,-7.293701
12.375759,0.129331,0.055085,10.296788,0.226851,-0.517288,0.263256,4.180908,-1.983643,-11.627197
12.385825,0.141905,0.377216,9.872271,0.239425,-0.195157,-0.161261,-0.640869,-0.732422,-0.274658
12.395888,0.101788,0.192799,9.968670,0.199308,-0.379574,-0.064862,-2.380371,1.892090,12.237549
12.405953,0.268841,0.028740,10.308763,0.366361,-0.543633,0.275231,1.251221,2.624512,15.747070
12.416018,0.308359,0.170046,10.012978,0.405879,-0.402327,-0.020554,2.197266,1.922607,10.375977
12.426091,0.355062,-0.099393,10.107581,0.452582,-0.671766,0.074050,-1.739502,-0.610352,-5.004883
12.436157,0.041314,-0.008981,10.083631,0.138834,-0.581354,0.050099,-2.624512,-1.098633,-5.432129
12.446223,-0.164059,-0.066462,10.002200,-0.066539,-0.638835,-0.031331,-3.387451,2.410889,8.972168
12.456288,-0.088616,-0.242496,10.121951,0.008904,-0.814869,0.088420,-4.669189,2.716064,14.801025
12.466354,0.055684,0.049098,10.034533,0.153204,-0.523275,0.001001,-3.570557,2.410889,12.390137
12.476420,0.032333,-0.168849,10.144105,0.129853,-0.741222,0.110574,-1.251221,0.640869,6.591797
12.486492,-0.131127,0.303569,10.050699,-0.033607,-0.268804,0.017168,-1.037598,0.579834,5.981445
12.496558,0.015568,0.161065,10.113569,0.113088,-0.411308,0.080037,-5.706787,-1.831055,1.434326
12.506624,0.055085,0.000000,10.142309,0.152605,-0.572373,0.108777,-4.669189,-1.647949,2.136230
12.516689,0.092208,0.167651,9.901609,0.189728,-0.404722,-0.131922,2.960205,-0.915527,-7.598877
12.526753,-0.311353,0.471819,10.123149,-0.213833,-0.100554,0.089617,1.800537,0.427246,-11.291504
12.536819,0.070054,0.499362,10.096804,0.167574,-0.073011,0.063272,2.410889,-0.885010,-8.728027
12.546883,0.003593,0.950224,10.041119,0.101112,0.377851,0.007588,0.854492,-1.556396,0.061035
12.556946,-0.072449,0.864602,10.012379,0.025071,0.292229,-0.021153,1.342773,0.122070,4.852295
12.567013,0.173040,0.955014,9.904603,0.270560,0.382641,-0.128928,0.701904,0.305176,-7.843018
12.577079,0.201182,0.894540,9.838740,0.298702,0.322167,-0.194791,2.258301,-1.037598,-18.524170
12.587144,-0.056283,0.914299,9.999207,0.041237,0.341926,-0.034325,0.549316,-2.227783,-23.559570
12.597210,-0.117955,0.980162,9.960287,-0.020435,0.407789,-0.073244,-2.441406,-2.136230,-17.883301
12.607275,-0.113763,1.255589,9.948312,-0.016243,0.683216,-0.085219,0.274658,-0.488281,-8.728027
12.617347,0.347877,1.037642,9.902208,0.445397,0.465269,-0.131323,1.586914,0.427246,0.396729
12.627413,0.234712,1.056204,10.127939,0.332232,0.483831,0.094407,2.746582,0.305176,-2.624512
12.637478,0.285606,1.028062,9.958491,0.383126,0.455689,-0.075040,1.434326,-1.922607,-14.892578
12.647544,0.212558,1.022673,9.847722,0.310078,0.450300,-0.185810,-0.885010,-1.098633,-12.664795
12.657609,0.092208,0.952619,10.024953,0.189728,0.380246,-0.008579,-3.173828,2.593994,11.474609
12.667675,0.222737,0.734672,9.965078,0.320257,0.162299,-0.068454,-3.540039,3.967285,23.345947
12.677746,0.338895,0.573008,10.102791,0.436415,0.000635,0.069259,-5.798340,3.448486,26.489258
