time,ax_raw,ay_raw,az_raw,ax,ay,az,gx,gy,gz
0.000504,-0.056283,0.241298,10.066267,0.004864,0.007355,0.009463,0.061035,0.061035,0.061035
0.010600,-0.060474,0.243094,10.059681,0.000673,0.009151,0.002876,0.030518,0.061035,0.061035
0.020669,-0.062869,0.238903,10.063273,-0.001722,0.004960,0.006469,0.061035,0.091553,0.061035
0.030735,-0.062869,0.240101,10.068662,-0.001722,0.006157,0.011858,0.000000,0.061035,0.061035
0.040800,-0.067659,0.231119,10.061477,-0.006512,-0.002824,0.004673,0.000000,0.030518,0.061035
0.050865,-0.063468,0.230521,10.056088,-0.002321,-0.003423,-0.000716,0.000000,0.030518,0.030518
0.060931,-0.067659,0.234712,10.052496,-0.006512,0.000769,-0.004309,0.030518,0.030518,0.030518
0.070997,-0.063468,0.240699,10.057286,-0.002321,0.006756,0.000481,0.061035,0.030518,0.030518
0.081063,-0.058079,0.246088,10.067465,0.003068,0.012145,0.010660,0.091553,0.030518,0.061035
0.091129,-0.052690,0.248483,10.070458,0.008457,0.014540,0.013654,0.061035,0.030518,0.061035
0.101195,-0.052092,0.244891,10.066267,0.009055,0.010947,0.009463,0.061035,0.000000,0.061035
0.111260,-0.053289,0.240699,10.065668,0.007858,0.006756,0.008864,0.091553,0.000000,0.061035
0.121325,-0.053888,0.233514,10.069860,0.007259,-0.000429,0.013055,0.030518,0.030518,0.061035
0.131392,-0.049697,0.232317,10.070458,0.011450,-0.001626,0.013654,0.061035,0.030518,0.061035
0.141458,-0.049697,0.232317,10.064471,0.011450,-0.001626,0.007666,0.061035,0.030518,0.030518
0.151525,-0.061672,0.232916,10.056088,-0.000525,-0.001028,-0.000716,0.061035,0.030518,0.061035
0.161591,-0.053289,0.237107,10.052496,0.007858,0.003164,-0.004309,0.030518,0.030518,0.030518
0.171656,-0.053888,0.238903,10.056088,0.007259,0.004960,-0.000716,0.000000,0.000000,0.061035
0.181722,-0.056283,0.234712,10.058483,0.004864,0.000769,0.001679,-0.030518,-0.030518,0.091553
0.191791,-0.052690,0.238304,10.059681,0.008457,0.004361,0.002876,0.030518,0.000000,0.091553
0.201857,-0.050894,0.234113,10.056088,0.010253,0.000170,-0.000716,0.030518,0.030518,0.091553
0.211923,-0.053888,0.239502,10.057885,0.007259,0.005559,0.001080,0.030518,0.030518,0.061035
0.221990,-0.052092,0.241298,10.063872,0.009055,0.007355,0.007068,0.061035,0.061035,0.091553
0.232102,-0.050295,0.243094,10.071057,0.010852,0.009151,0.014253,0.061035,0.061035,0.122070
0.242198,-0.052690,0.247286,10.068662,0.008457,0.013343,0.011858,0.061035,0.061035,0.122070
0.252295,-0.052092,0.250280,10.068063,0.009055,0.016336,0.011259,0.061035,0.091553,0.091553
0.262393,-0.055085,0.248483,10.072255,0.006062,0.014540,0.015450,0.091553,0.061035,0.122070
0.272488,-0.050295,0.242496,10.078242,0.010852,0.008552,0.021438,0.091553,0.030518,0.122070
0.282584,-0.052690,0.241897,10.087224,0.008457,0.007954,0.030419,0.091553,0.030518,0.122070
0.292681,-0.054487,0.243693,10.082433,0.006660,0.009750,0.025629,0.091553,0.030518,0.122070
0.302778,-0.051493,0.245490,10.074650,0.009654,0.011546,0.017845,0.061035,0.030518,0.122070
0.312876,-0.053888,0.249082,10.071656,0.007259,0.015139,0.014851,0.030518,0.030518,0.122070
0.322973,-0.051493,0.247885,10.075847,0.009654,0.013941,0.019043,0.030518,0.030518,0.122070
0.333099,-0.055684,0.241897,10.071057,0.005463,0.007954,0.014253,0.030518,0.030518,0.061035
0.343193,-0.053289,0.246088,10.065668,0.007858,0.012145,0.008864,0.030518,0.000000,0.061035
0.353291,-0.050894,0.237107,10.057286,0.010253,0.003164,0.000481,0.091553,0.000000,0.091553
0.363385,-0.043110,0.234712,10.056088,0.018037,0.000769,-0.000716,0.091553,0.000000,0.061035
0.373479,-0.048499,0.238304,10.059082,0.012648,0.004361,0.002278,0.091553,0.000000,0.091553
0.383573,-0.040117,0.238903,10.054292,0.021031,0.004960,-0.002513,0.061035,0.000000,0.061035
0.393667,-0.049697,0.241298,10.053094,0.011450,0.007355,-0.003710,0.061035,0.000000,0.091553
0.403759,-0.049098,0.231119,10.047706,0.012049,-0.002824,-0.009099,0.030518,0.030518,0.091553
0.413854,-0.053888,0.236508,10.046508,0.007259,0.002565,-0.010296,0.030518,0.000000,0.061035
0.423947,-0.052092,0.240699,10.062076,0.009055,0.006756,0.005271,0.061035,0.030518,0.030518
0.434042,-0.056283,0.232916,10.059082,0.004864,-0.001028,0.002278,0.061035,0.061035,0.030518
0.444140,-0.056283,0.232916,10.060878,0.004864,-0.001028,0.004074,0.061035,0.030518,0.061035
0.454236,-0.053888,0.237706,10.053094,0.007259,0.003762,-0.003710,0.061035,0.030518,0.091553
0.464330,-0.051493,0.234113,10.053693,0.009654,0.000170,-0.003111,0.061035,0.000000,0.091553
0.474425,-0.050295,0.237107,10.059082,0.010852,0.003164,0.002278,0.000000,0.000000,0.091553
0.484519,-0.061672,0.241298,10.053693,-0.000525,0.007355,-0.003111,0.000000,-0.030518,0.061035
0.494614,-0.058079,0.247286,10.054292,0.003068,0.013343,-0.002513,0.000000,0.000000,0.061035
0.504708,-0.056283,0.246088,10.051298,0.004864,0.012145,-0.005506,0.000000,0.000000,0.061035
0.514805,-0.059875,0.247286,10.050101,0.001272,0.013343,-0.006704,0.000000,0.061035,0.030518
0.524899,-0.061073,0.246088,10.060878,0.000074,0.012145,0.004074,0.000000,0.061035,0.030518
0.534996,-0.063468,0.246687,10.064471,-0.002321,0.012744,0.007666,0.030518,0.061035,0.030518
0.545089,-0.056882,0.249082,10.062076,0.004265,0.015139,0.005271,0.030518,0.030518,0.061035
0.555185,-0.055684,0.246088,10.059082,0.005463,0.012145,0.002278,0.030518,0.000000,0.061035
0.565279,-0.059875,0.244891,10.065070,0.001272,0.010947,0.008265,0.061035,0.000000,0.091553
0.575375,-0.061073,0.243094,10.070458,0.000074,0.009151,0.013654,0.061035,0.000000,0.061035
0.585469,-0.066462,0.235311,10.065070,-0.005315,0.001367,0.008265,0.061035,0.030518,0.091553
0.595565,-0.071252,0.236508,10.066267,-0.010105,0.002565,0.009463,0.061035,0.030518,0.091553
0.605659,-0.068857,0.237706,10.065070,-0.007710,0.003762,0.008265,0.061035,0.030518,0.091553
0.615755,-0.071252,0.234113,10.072255,-0.010105,0.000170,0.015450,0.061035,0.061035,0.091553
0.625864,-0.067061,0.229922,10.074650,-0.005913,-0.004021,0.017845,0.061035,0.030518,0.122070
0.635991,-0.058678,0.227527,10.069261,0.002469,-0.006416,0.012456,0.030518,0.061035,0.091553
0.646085,-0.059875,0.234113,10.062675,0.001272,0.000170,0.005870,0.030518,0.061035,0.091553
0.656180,-0.061672,0.238903,10.059681,-0.000525,0.004960,0.002876,0.061035,0.091553,0.122070
0.666275,-0.056283,0.239502,10.060280,0.004864,0.005559,0.003475,0.061035,0.061035,0.061035
0.676368,-0.054487,0.238304,10.067465,0.006660,0.004361,0.010660,0.030518,0.061035,0.061035
0.686465,-0.052690,0.234712,10.061477,0.008457,0.000769,0.004673,0.030518,0.030518,0.061035
0.696559,-0.050295,0.237706,10.057885,0.010852,0.003762,0.001080,0.030518,0.061035,0.030518
0.706656,-0.046703,0.239502,10.053094,0.014444,0.005559,-0.003710,0.030518,0.030518,0.061035
0.716752,-0.052690,0.244292,10.057885,0.008457,0.010349,0.001080,0.030518,0.030518,0.030518
0.726850,-0.058079,0.237706,10.064471,0.003068,0.003762,0.007666,0.030518,0.061035,0.061035
0.736973,-0.059277,0.236508,10.065668,0.001870,0.002565,0.008864,0.030518,0.061035,0.061035
0.747069,-0.055684,0.236508,10.067465,0.005463,0.002565,0.010660,0.030518,0.061035,0.030518
0.757166,-0.057480,0.234113,10.057286,0.003667,0.000170,0.000481,0.030518,0.061035,0.030518
0.767262,-0.055684,0.231119,10.057885,0.005463,-0.002824,0.001080,0.000000,0.061035,0.030518
0.777361,-0.050894,0.225132,10.063872,0.010253,-0.008811,0.007068,0.030518,0.030518,0.030518
0.787457,-0.055684,0.224533,10.060878,0.005463,-0.009410,0.004074,0.030518,0.030518,0.061035
0.797566,-0.055085,0.226329,10.069860,0.006062,-0.007614,0.013055,0.061035,0.000000,0.061035
0.807664,-0.062869,0.224533,10.070458,-0.001722,-0.009410,0.013654,0.030518,0.000000,0.091553
0.817761,-0.064067,0.229323,10.077045,-0.002920,-0.004620,0.020240,0.000000,0.000000,0.091553
0.827857,-0.061073,0.230521,10.078242,0.000074,-0.003423,0.021438,0.000000,0.000000,0.091553
0.837984,-0.058079,0.237107,10.074051,0.003068,0.003164,0.017246,0.030518,-0.030518,0.122070
0.848081,-0.051493,0.244891,10.069261,0.009654,0.010947,0.012456,0.030518,0.000000,0.122070
0.858178,-0.051493,0.239502,10.063273,0.009654,0.005559,0.006469,0.030518,-0.030518,0.091553
0.868276,-0.065264,0.239502,10.065668,-0.004117,0.005559,0.008864,0.030518,0.000000,0.091553
0.878377,-0.064666,0.241897,10.065070,-0.003518,0.007954,0.008265,0.061035,0.000000,0.061035
0.888476,-0.061672,0.245490,10.057286,-0.000525,0.011546,0.000481,0.061035,0.030518,0.061035
0.898572,-0.068857,0.247286,10.054292,-0.007710,0.013343,-0.002513,0.030518,0.000000,0.061035
0.908669,-0.065264,0.247286,10.056687,-0.004117,0.013343,-0.000118,0.030518,0.000000,0.061035
0.918767,-0.066462,0.240101,10.066866,-0.005315,0.006157,0.010061,0.030518,0.000000,0.091553
0.928864,-0.065264,0.238304,10.075248,-0.004117,0.004361,0.018444,0.030518,-0.030518,0.122070
0.939057,-0.055684,0.241298,10.067465,0.005463,0.007355,0.010660,0.030518,0.000000,0.122070
0.949147,-0.052690,0.240699,10.061477,0.008457,0.006756,0.004673,0.030518,0.000000,0.122070
0.959237,-0.055085,0.234712,10.062076,0.006062,0.000769,0.005271,0.030518,-0.061035,0.122070
0.969327,-0.062869,0.237706,10.059681,-0.001722,0.003762,0.002876,0.030518,-0.030518,0.091553
0.979418,-0.061073,0.231119,10.060280,0.000074,-0.002824,0.003475,0.061035,0.000000,0.091553
0.989508,-0.061073,0.231718,10.056088,0.000074,-0.002225,-0.000716,0.030518,0.030518,0.091553
0.999597,-0.055085,0.234712,10.060280,0.006062,0.000769,0.003475,0.030518,0.030518,0.091553
1.009684,-0.058678,0.232916,10.062675,0.002469,-0.001028,0.005870,0.030518,0.061035,0.091553
1.019774,-0.063468,0.232317,10.063273,-0.002321,-0.001626,0.006469,0.061035,0.030518,0.061035
1.029864,-0.057480,0.237107,10.060878,0.003667,0.003164,0.004074,0.030518,0.030518,0.061035
1.039998,-0.058678,0.235311,10.062076,0.002469,0.001367,0.005271,0.030518,0.061035,0.091553
1.050083,-0.062271,0.243094,10.062675,-0.001123,0.009151,0.005870,0.030518,0.091553,0.091553
1.060175,-0.057480,0.240101,10.060878,0.003667,0.006157,0.004074,0.030518,0.091553,0.091553
1.070266,-0.059277,0.241897,10.066267,0.001870,0.007954,0.009463,0.030518,0.000000,0.122070
1.080358,-0.050894,0.237107,10.065668,0.010253,0.003164,0.008864,0.030518,0.000000,0.091553
1.090448,-0.049697,0.243094,10.067465,0.011450,0.009151,0.010660,0.030518,0.000000,0.122070
1.100538,-0.055085,0.234712,10.062675,0.006062,0.000769,0.005870,0.061035,0.030518,0.091553
1.110629,-0.051493,0.230521,10.066866,0.009654,-0.003423,0.010061,0.030518,0.030518,0.091553
1.120720,-0.052690,0.234113,10.067465,0.008457,0.000170,0.010660,0.030518,0.030518,0.091553
1.130810,-0.050295,0.232916,10.061477,0.010852,-0.001028,0.004673,0.000000,0.000000,0.122070
1.140979,-0.053888,0.231718,10.062675,0.007259,-0.002225,0.005870,0.030518,0.000000,0.061035
1.151079,-0.058678,0.234113,10.051298,0.002469,0.000170,-0.005506,0.030518,0.000000,0.061035
1.161177,-0.058079,0.237706,10.052496,0.003068,0.003762,-0.004309,0.030518,0.000000,0.061035
1.171274,-0.055684,0.237107,10.060878,0.005463,0.003164,0.004074,0.030518,0.030518,0.030518
1.181371,-0.060474,0.232916,10.064471,0.000673,-0.001028,0.007666,0.030518,0.030518,0.030518
1.191468,-0.049697,0.232916,10.063273,0.011450,-0.001028,0.006469,0.030518,0.030518,0.030518
1.201562,-0.048499,0.232317,10.058483,0.012648,-0.001626,0.001679,0.000000,0.030518,0.061035
1.211660,-0.049697,0.227527,10.056088,0.011450,-0.006416,-0.000716,0.030518,0.061035,0.061035
1.221757,-0.058079,0.225731,10.057885,0.003068,-0.008213,0.001080,0.030518,0.030518,0.091553
1.231854,-0.055684,0.232916,10.060878,0.005463,-0.001028,0.004074,0.061035,0.061035,0.122070
1.241977,-0.056283,0.241897,10.052496,0.004864,0.007954,-0.004309,0.030518,0.000000,0.061035
1.252075,-0.055085,0.242496,10.046508,0.006062,0.008552,-0.010296,0.030518,0.030518,0.122070
1.262172,-0.058079,0.240101,10.060878,0.003068,0.006157,0.004074,0.061035,0.030518,0.122070
1.272269,-0.059277,0.244891,10.060280,0.001870,0.010947,0.003475,0.030518,0.030518,0.091553
1.282366,-0.052092,0.237107,10.063273,0.009055,0.003164,0.006469,0.061035,0.061035,0.122070
1.292463,-0.056283,0.236508,10.061477,0.004864,0.002565,0.004673,0.061035,0.030518,0.122070
1.302560,-0.057480,0.231718,10.056088,0.003667,-0.002225,-0.000716,0.000000,0.030518,0.061035
1.312657,-0.064067,0.232916,10.055490,-0.002920,-0.001028,-0.001315,0.030518,0.030518,0.091553
1.322755,-0.068258,0.234113,10.063872,-0.007111,0.000170,0.007068,0.030518,0.030518,0.122070
1.332853,-0.054487,0.235311,10.066866,0.006660,0.001367,0.010061,0.091553,0.030518,0.091553
1.342976,-0.055085,0.232317,10.065668,0.006062,-0.001626,0.008864,0.061035,0.061035,0.122070
1.353073,-0.056882,0.232916,10.069261,0.004265,-0.001028,0.012456,0.091553,0.030518,0.091553
1.363170,-0.059277,0.237107,10.073452,0.001870,0.003164,0.016648,0.061035,0.030518,0.122070
1.373268,-0.053289,0.238903,10.072255,0.007858,0.004960,0.015450,0.030518,0.030518,0.091553
1.383366,-0.053289,0.240101,10.068662,0.007858,0.006157,0.011858,0.030518,0.061035,0.030518
1.393464,-0.048499,0.244292,10.063872,0.012648,0.010349,0.007068,0.030518,0.061035,0.061035
1.403558,-0.049098,0.236508,10.063872,0.012049,0.002565,0.007068,0.000000,0.091553,0.091553
1.413652,-0.055085,0.235311,10.062675,0.006062,0.001367,0.005870,0.000000,0.091553,0.122070
1.423746,-0.056882,0.228724,10.059681,0.004265,-0.005219,0.002876,0.061035,0.091553,0.122070
1.433840,-0.055684,0.229323,10.055490,0.005463,-0.004620,-0.001315,0.091553,0.091553,0.122070
1.443934,-0.055684,0.229323,10.053693,0.005463,-0.004620,-0.003111,0.122070,0.091553,0.122070
1.454028,-0.057480,0.229922,10.045311,0.003667,-0.004021,-0.011494,0.122070,0.091553,0.122070
1.464123,-0.064067,0.233514,10.045909,-0.002920,-0.000429,-0.010895,0.061035,0.061035,0.122070
1.474218,-0.061672,0.231718,10.055490,-0.000525,-0.002225,-0.001315,0.061035,0.091553,0.091553
1.484312,-0.063468,0.229922,10.051298,-0.002321,-0.004021,-0.005506,0.030518,0.061035,0.091553
1.494408,-0.057480,0.225132,10.051298,0.003667,-0.008811,-0.005506,0.030518,0.061035,0.122070
1.504502,-0.057480,0.229323,10.051897,0.003667,-0.004620,-0.004908,0.030518,0.061035,0.122070
1.514598,-0.061672,0.229323,10.057885,-0.000525,-0.004620,0.001080,-0.030518,0.061035,0.091553
1.524692,-0.059277,0.235311,10.059681,0.001870,0.001367,0.002876,0.000000,0.061035,0.122070
1.534789,-0.053289,0.229922,10.057885,0.007858,-0.004021,0.001080,0.030518,0.030518,0.122070
1.544912,-0.053888,0.231718,10.063872,0.007259,-0.002225,0.007068,0.061035,0.030518,0.061035
1.555008,-0.048499,0.233514,10.057885,0.012648,-0.000429,0.001080,0.061035,0.030518,0.091553
1.565103,-0.049697,0.232916,10.068662,0.011450,-0.001028,0.011858,0.061035,0.030518,0.091553
1.575200,-0.053289,0.234712,10.068662,0.007858,0.000769,0.011858,0.061035,0.030518,0.091553
1.585295,-0.050295,0.234113,10.068662,0.010852,0.000170,0.011858,0.061035,0.030518,0.061035
1.595388,-0.053888,0.237706,10.066866,0.007259,0.003762,0.010061,0.061035,0.030518,0.061035
1.605482,-0.058678,0.237706,10.057885,0.002469,0.003762,0.001080,0.061035,0.030518,0.061035
1.615578,-0.063468,0.224533,10.060280,-0.002321,-0.009410,0.003475,0.030518,0.030518,0.061035
1.625672,-0.060474,0.226329,10.062076,0.000673,-0.007614,0.005271,0.030518,0.030518,0.061035
1.635769,-0.065264,0.228724,10.060280,-0.004117,-0.005219,0.003475,0.030518,0.061035,0.091553
1.645887,-0.061672,0.231119,10.059681,-0.000525,-0.002824,0.002876,0.030518,0.061035,0.091553
1.655984,-0.057480,0.234712,10.054292,0.003667,0.000769,-0.002513,0.061035,0.061035,0.030518
1.666078,-0.059277,0.235909,10.059681,0.001870,0.001966,0.002876,0.030518,0.061035,0.030518
1.676175,-0.059875,0.235909,10.056687,0.001272,0.001966,-0.000118,0.091553,0.030518,0.030518
1.686272,-0.064666,0.237107,10.053693,-0.003518,0.003164,-0.003111,0.061035,0.061035,0.061035
1.696369,-0.072449,0.235311,10.054292,-0.011302,0.001367,-0.002513,0.061035,0.030518,0.091553
1.706466,-0.073048,0.232317,10.056687,-0.011901,-0.001626,-0.000118,0.061035,0.030518,0.030518
1.716563,-0.073647,0.232317,10.062675,-0.012500,-0.001626,0.005870,0.061035,0.061035,0.061035
1.726661,-0.057480,0.237107,10.063273,0.003667,0.003164,0.006469,0.030518,0.061035,0.061035
1.736757,-0.049697,0.237107,10.060878,0.011450,0.003164,0.004074,0.030518,0.030518,0.061035
1.746880,-0.050295,0.228126,10.060878,0.010852,-0.005818,0.004074,0.061035,0.030518,0.061035
1.756976,-0.056283,0.228126,10.057286,0.004864,-0.005818,0.000481,0.030518,0.000000,0.061035
1.767076,-0.055684,0.227527,10.060878,0.005463,-0.006416,0.004074,0.061035,0.000000,0.091553
1.777173,-0.058079,0.226329,10.063872,0.003068,-0.007614,0.007068,0.061035,0.000000,0.061035
1.787269,-0.056283,0.226329,10.065668,0.004864,-0.007614,0.008864,0.061035,0.030518,0.061035
1.797378,-0.056882,0.232916,10.064471,0.004265,-0.001028,0.007666,0.061035,0.000000,0.122070
1.807472,-0.055085,0.231718,10.062076,0.006062,-0.002225,0.005271,0.061035,0.030518,0.091553
1.817566,-0.059277,0.232916,10.069261,0.001870,-0.001028,0.012456,0.061035,0.061035,0.091553
1.827663,-0.061073,0.233514,10.065070,0.000074,-0.000429,0.008265,0.061035,0.061035,0.091553
1.837757,-0.059277,0.233514,10.063273,0.001870,-0.000429,0.006469,0.091553,0.000000,0.122070
1.847883,-0.050295,0.239502,10.065668,0.010852,0.005559,0.008864,0.091553,0.000000,0.091553
1.857980,-0.049697,0.241897,10.063872,0.011450,0.007954,0.007068,0.091553,0.000000,0.091553
1.868078,-0.052092,0.236508,10.066267,0.009055,0.002565,0.009463,0.061035,0.000000,0.030518
1.878174,-0.052690,0.238903,10.063273,0.008457,0.004960,0.006469,0.061035,0.030518,0.061035
1.888271,-0.055085,0.234113,10.063872,0.006062,0.000170,0.007068,0.061035,0.000000,0.091553
1.898368,-0.057480,0.234113,10.061477,0.003667,0.000170,0.004673,0.061035,0.000000,0.091553
1.908465,-0.064666,0.236508,10.058483,-0.003518,0.002565,0.001679,0.091553,-0.030518,0.061035
1.918563,-0.048499,0.237706,10.062675,0.012648,0.003762,0.005870,0.091553,0.030518,0.061035
1.928659,-0.047302,0.237107,10.065668,0.013845,0.003164,0.008864,0.091553,0.030518,0.061035
1.938758,-0.045505,0.240699,10.058483,0.015642,0.006756,0.001679,0.091553,0.061035,0.091553
1.948881,-0.044907,0.245490,10.056687,0.016240,0.011546,-0.000118,0.030518,0.000000,0.091553
1.958978,-0.051493,0.252076,10.059681,0.009654,0.018133,0.002876,0.030518,0.030518,0.091553
1.969075,-0.046703,0.251477,10.062675,0.014444,0.017534,0.005870,0.030518,0.061035,0.091553
1.979172,-0.048499,0.250280,10.060280,0.012648,0.016336,0.003475,0.030518,0.030518,0.091553
1.989269,-0.047302,0.238903,10.055490,0.013845,0.004960,-0.001315,0.030518,0.030518,0.061035
1.999366,-0.049697,0.238903,10.055490,0.011450,0.004960,-0.001315,0.030518,0.061035,0.061035
2.009463,-0.050894,0.247286,10.054891,0.010253,0.013343,-0.001914,0.030518,0.030518,0.091553
2.019560,-0.054487,0.249082,10.062675,0.006660,0.015139,0.005870,0.000000,0.030518,0.091553
2.029656,-0.055085,0.246088,10.056687,0.006062,0.012145,-0.000118,0.122070,0.030518,0.091553
2.039753,-0.052690,0.246088,10.057286,0.008457,0.012145,0.000481,0.152588,0.030518,0.091553
2.049875,-0.057480,0.241897,10.049502,0.003667,0.007954,-0.007303,0.030518,0.030518,0.061035
2.059971,-0.055684,0.241897,10.054292,0.005463,0.007954,-0.002513,0.030518,0.030518,0.061035
2.070069,-0.053888,0.241897,10.058483,0.007259,0.007954,0.001679,0.030518,0.000000,0.061035
2.080167,-0.055085,0.237107,10.051897,0.006062,0.003164,-0.004908,0.030518,0.030518,0.061035
2.090265,-0.056283,0.231119,10.053094,0.004864,-0.002824,-0.003710,0.061035,0.061035,0.030518
2.100362,-0.057480,0.216151,10.050101,0.003667,-0.017793,-0.006704,0.244141,0.000000,0.061035
2.110458,-0.064067,0.220342,10.053693,-0.002920,-0.013601,-0.003111,0.396729,0.000000,0.030518
2.120555,-0.057480,0.221539,10.080637,0.003667,-0.012404,0.023833,0.671387,-0.091553,0.000000
2.130651,-0.056882,0.234113,10.066267,0.004265,0.000170,0.009463,0.793457,-0.122070,-0.061035
2.140749,-0.050295,0.229323,10.064471,0.010852,-0.004620,0.007666,0.946045,-0.213623,-0.183105
2.150875,-0.022154,0.253872,10.045909,0.038993,0.019929,-0.010895,0.885010,-0.701904,-0.366211
2.160971,-0.058678,0.261057,10.053094,0.002469,0.027114,-0.003710,0.946045,-0.579834,-0.366211
2.171067,-0.122745,0.278421,10.036329,-0.061598,0.044478,-0.020475,0.732422,-0.396729,-0.244141
2.181164,-0.681383,0.240699,10.050101,-0.620236,0.006756,-0.006704,0.305176,-0.213623,-0.366211
2.191261,-0.797542,0.280816,10.078242,-0.736394,0.046873,0.021438,-0.396729,-0.122070,-2.929688
2.201357,-0.425116,0.185015,10.052496,-0.363969,-0.048928,-0.004309,-0.854492,0.091553,-3.417969
2.211455,-0.323926,0.158071,10.052496,-0.262779,-0.075872,-0.004309,-0.823975,0.061035,-5.126953
2.221552,-0.473016,0.035327,10.080038,-0.411869,-0.198617,0.023234,-0.457764,0.061035,-6.530762
2.231652,-0.496967,0.382604,10.001003,-0.435819,0.148661,-0.055802,0.152588,0.152588,-6.652832
2.241748,-0.396376,0.236508,10.036329,-0.335229,0.002565,-0.020475,-0.823975,0.183105,-5.554199
2.251874,-0.543669,0.352068,10.068063,-0.482522,0.118125,0.011259,-1.464844,0.152588,-4.730225
2.261971,-0.553250,0.216749,10.122550,-0.492102,-0.017194,0.065746,0.244141,-0.213623,-3.234863
2.272069,-0.546663,0.292791,10.050699,-0.485516,0.058848,-0.006105,0.640869,-0.122070,-2.502441
2.282166,-0.257465,0.302371,10.073452,-0.196318,0.068428,0.016648,-1.464844,0.793457,0.122070
2.292263,-0.279619,0.314945,10.086625,-0.218471,0.081002,0.029820,-0.885010,0.701904,0.061035
2.302360,-0.470023,0.172441,10.033934,-0.408875,-0.061502,-0.022870,-1.068115,0.457764,-1.800537
2.312456,-0.547262,0.214354,10.165660,-0.486115,-0.019589,0.108856,-2.166748,0.762939,-3.387451
2.322554,-0.326920,0.224533,10.086625,-0.265773,-0.009410,0.029820,-2.075195,0.671387,-5.737305
2.332651,-0.494572,0.369432,10.042317,-0.433424,0.135489,-0.014488,-2.624512,0.030518,-9.063721
2.342749,-0.481399,0.277224,10.044712,-0.420252,0.043280,-0.012093,-3.082275,0.000000,-9.399414
2.352934,-0.475411,0.235311,10.056088,-0.414264,0.001367,-0.000716,-3.112793,-0.457764,-8.850098
2.363062,-0.583187,0.337099,10.130334,-0.522040,0.103156,0.073529,-2.746582,-0.793457,-8.483887
2.373152,-0.511935,0.326321,10.096804,-0.450788,0.092378,0.039999,-0.762939,-1.281738,-7.690430
2.383242,-0.284409,0.158670,10.133926,-0.223261,-0.075273,0.077122,-0.091553,-1.617432,-6.896973
2.393329,-0.428708,0.168849,10.051897,-0.367561,-0.065094,-0.004908,0.244141,-1.678467,-6.225586
2.403419,-0.532293,0.081431,10.005194,-0.471146,-0.152513,-0.051610,1.525879,-1.342773,-4.486084
2.413506,-0.446072,0.012574,10.063273,-0.384925,-0.221369,0.006469,1.220703,-1.281738,-3.570557
2.423592,-0.223336,0.104782,10.092612,-0.162188,-0.129161,0.035808,0.946045,-1.098633,-4.180908
2.433678,-0.292791,0.022753,10.092612,-0.231644,-0.211191,0.035808,0.640869,-0.793457,-4.669189
2.443764,-0.258063,0.074246,10.058483,-0.196916,-0.159698,0.001679,0.427246,-0.518799,-7.171631
2.453853,-0.335901,0.186213,10.056687,-0.274754,-0.047730,-0.000118,0.061035,-0.335693,-7.568359
2.463946,-0.349074,0.151485,10.048304,-0.287927,-0.082458,-0.008500,0.518799,-0.061035,-8.209229
2.474038,-0.435295,0.002994,10.045909,-0.374148,-0.230949,-0.010895,1.007080,0.244141,-7.415771
2.484131,-0.772394,0.141306,10.106982,-0.711247,-0.092637,0.050178,0.366211,0.122070,-6.774902
2.494227,-0.863405,0.005988,10.096205,-0.802257,-0.227956,0.039400,-0.701904,0.335693,-3.753662
2.504324,-0.649649,0.100591,10.081835,-0.588502,-0.133352,0.025030,-0.152588,0.579834,-2.258301
2.514418,-0.872386,0.293390,10.139315,-0.811239,0.059447,0.082511,-0.579834,0.549316,1.831055
2.524512,-0.681383,0.351469,9.775871,-0.620236,0.117526,-0.280934,-0.122070,0.183105,1.159668
2.534605,-0.907712,0.067061,10.087224,-0.846565,-0.166883,0.030419,0.274658,1.464844,-1.464844
2.544697,-0.799937,0.246088,9.929152,-0.738789,0.012145,-0.127652,-1.129150,1.312256,-1.525879
2.554794,-0.907114,-0.123942,10.057286,-0.845967,-0.357886,0.000481,-0.793457,1.403809,-0.061035
2.564881,-0.637075,0.233514,10.069860,-0.575928,-0.000429,0.013055,0.366211,1.068115,3.143311
2.574968,-0.753234,0.000599,10.098600,-0.692087,-0.233345,0.041795,-0.030518,0.793457,2.044678
2.585055,-0.322130,0.016166,10.088421,-0.260983,-0.217777,0.031617,1.770020,0.335693,0.061035
2.595141,-0.404160,-0.064666,10.065070,-0.343012,-0.298609,0.008265,0.701904,-0.213623,-2.563477
2.605227,-0.564626,0.049098,10.029743,-0.503479,-0.184845,-0.027061,-1.525879,-0.549316,-5.279541
2.615317,-0.404758,0.204175,10.024953,-0.343611,-0.029768,-0.031852,-1.251221,-0.732422,-4.211426
2.625403,-0.476609,0.048499,10.091415,-0.415462,-0.185444,0.034610,-1.281738,-0.488281,-2.990723
2.635493,-0.432900,-0.032333,10.141710,-0.371753,-0.266276,0.084906,-0.610352,-0.396729,-3.265381
2.645581,-0.491578,-0.207169,10.150692,-0.430431,-0.441112,0.093887,-0.885010,-0.579834,-4.791260
2.655695,-0.696951,0.032333,10.159074,-0.635804,-0.201610,0.102270,0.640869,-0.946045,-4.730225
2.665782,-0.604742,0.126936,10.056088,-0.543595,-0.107007,-0.000716,2.136230,-0.549316,-3.845215
2.675886,-0.268841,0.110171,10.069860,-0.207694,-0.123772,0.013055,-0.091553,-0.274658,-2.746582
2.685974,-0.496368,-0.125739,10.184222,-0.435221,-0.359682,0.127417,0.946045,0.579834,-6.256104
2.696063,-0.408950,-0.189805,9.931547,-0.347802,-0.423749,-0.125257,3.051758,1.281738,-8.514404
2.706151,-0.804128,0.452060,10.083631,-0.742981,0.218117,0.026826,0.061035,1.342773,-4.974365
2.716239,-0.544268,0.636476,9.941127,-0.483121,0.402533,-0.115677,-0.885010,0.976562,-2.288818
2.726328,-0.329315,0.243094,10.311757,-0.268168,0.009151,0.254952,-2.593994,0.244141,0.244141
2.736415,-0.205373,0.086221,10.264455,-0.144226,-0.147723,0.207650,-2.563477,-0.427246,1.190186
2.746503,-0.602347,0.131127,10.126143,-0.541200,-0.102816,0.069338,-1.129150,-1.708984,3.265381
2.756619,-0.607137,0.308359,9.969868,-0.545990,0.074416,-0.086937,0.305176,-1.037598,6.591797
2.766708,0.056283,0.464035,9.986034,0.117430,0.230092,-0.070771,0.915527,-0.579834,10.894775
2.776797,-0.595761,0.444875,9.945319,-0.534614,0.210932,-0.111486,2.349854,0.671387,9.948730
2.786885,-0.617316,0.627495,9.869277,-0.556169,0.393552,-0.187528,-0.274658,1.098633,12.084961
2.796974,-0.606539,0.101190,10.082433,-0.545392,-0.132754,0.025629,-2.105713,1.220703,10.894775
2.807063,-0.207169,0.141306,10.078242,-0.146022,-0.092637,0.021438,-1.281738,0.610352,10.620117
2.817151,-0.428708,0.228126,10.015972,-0.367561,-0.005818,-0.040833,-0.152588,0.335693,10.253906
2.827240,-0.831072,0.305365,10.250684,-0.769925,0.071422,0.193879,0.213623,0.396729,10.467529
2.837329,-0.952619,0.271835,10.174642,-0.891472,0.037891,0.117837,-3.112793,-0.030518,11.108398
2.847418,-0.462239,-0.000599,9.989626,-0.401092,-0.234542,-0.067178,-0.091553,-0.427246,7.049561
2.857581,-0.268841,0.484991,9.908196,-0.207694,0.251048,-0.148609,0.854492,-0.122070,10.284424
2.867676,-0.893342,0.186812,10.012978,-0.832195,-0.047132,-0.043827,0.885010,0.091553,10.101318
2.877774,-0.534688,0.140707,10.059681,-0.473541,-0.093236,0.002876,1.312256,0.152588,9.582520
2.887869,-0.693957,0.425715,9.860295,-0.632810,0.191771,-0.196509,-0.152588,1.831055,11.749268
2.897965,-0.732876,0.217348,10.354867,-0.671729,-0.016595,0.298062,-0.213623,1.617432,10.711670
2.908063,-0.608335,0.013173,9.810000,-0.547188,-0.220771,-0.246805,-0.305176,1.007080,9.368896
2.918160,-0.663420,0.379012,10.111174,-0.602273,0.145069,0.054369,-1.312256,0.946045,9.979248
2.928254,-0.578397,0.232317,10.091415,-0.517250,-0.001626,0.034610,-1.251221,0.671387,10.955811
2.938350,-0.517324,0.159269,9.948911,-0.456177,-0.074674,-0.107893,0.213623,0.488281,8.117676
2.948446,-0.356259,0.068857,10.041718,-0.295112,-0.165086,-0.015086,1.129150,0.823975,8.544922
2.958612,-0.711920,0.211360,9.999805,-0.650772,-0.022583,-0.056999,1.861572,0.061035,8.544922
2.968703,-0.546663,0.285606,9.924961,-0.485516,0.051663,-0.131844,1.708984,0.396729,8.087158
2.978792,-0.390388,0.202379,9.896819,-0.329241,-0.031564,-0.159985,-0.335693,0.610352,6.042480
2.988881,-0.764610,0.337099,10.227332,-0.703463,0.103156,0.170528,0.213623,1.007080,5.523682
2.998971,-0.698148,0.145497,9.930948,-0.637001,-0.088446,-0.125856,0.457764,0.671387,5.432129
3.009061,-0.483195,0.248483,10.154883,-0.422048,0.014540,0.098078,0.427246,0.915527,6.256104
3.019150,-0.617316,0.261656,9.969269,-0.556169,0.027713,-0.087536,0.335693,0.976562,6.713867
3.029239,-0.588576,0.299976,9.924961,-0.527429,0.066033,-0.131844,-0.274658,0.000000,7.934570
3.039330,-0.562830,0.327519,10.215956,-0.501682,0.093576,0.159151,-0.305176,0.000000,8.148193
3.049421,-0.252076,0.549657,10.080038,-0.190929,0.315714,0.023234,-1.007080,-0.091553,6.958008
3.059573,0.024549,0.475411,9.946516,0.085696,0.241468,-0.110288,-0.823975,0.518799,7.141113
3.069670,0.007784,0.322130,10.135723,0.068931,0.088187,0.078918,-0.610352,0.885010,5.645752
3.079765,-0.214354,0.159868,10.199789,-0.153207,-0.074076,0.142985,-0.823975,0.885010,6.256104
3.089862,0.045505,0.038320,10.462643,0.106652,-0.195623,0.405838,-0.366211,0.823975,6.347656
3.099959,-0.474214,-0.068857,10.120754,-0.413067,-0.302800,0.063949,-0.244141,1.586914,5.096436
3.110055,-0.241298,0.118553,10.030941,-0.180151,-0.115390,-0.025864,0.030518,1.403809,3.509521
3.120151,-0.461640,0.291594,10.147698,-0.400493,0.057650,0.090893,0.976562,0.335693,2.502441
3.130279,-0.506547,0.395777,10.106982,-0.445400,0.161834,0.050178,-0.061035,-0.244141,1.983643
3.140376,-0.418530,0.305365,10.080637,-0.357383,0.071422,0.023833,1.098633,-1.037598,-1.098633
3.150475,-0.544268,0.275427,9.989028,-0.483121,0.041484,-0.067777,2.075195,-0.091553,-1.647949
3.160640,-0.714913,0.360450,9.924961,-0.653766,0.126507,-0.131844,1.739502,0.152588,-2.014160
3.170731,-0.388592,0.384999,9.923165,-0.327445,0.151056,-0.133640,0.549316,0.091553,-0.488281
3.180821,-0.710722,0.377216,10.047107,-0.649575,0.143272,-0.009698,-0.366211,0.122070,0.183105
3.190911,-0.843047,0.508942,10.020163,-0.781900,0.274998,-0.036642,-0.091553,-0.335693,-2.777100
3.201002,-0.638273,0.258662,10.133926,-0.577126,0.024719,0.077122,-0.335693,-0.488281,-5.065918
3.211092,-0.634680,0.335901,10.008787,-0.573533,0.101958,-0.048018,-0.885010,-0.152588,-8.789062
3.221183,-0.768801,0.632285,10.087822,-0.707654,0.398342,0.031018,0.427246,1.190186,-7.781982
3.231273,-1.193318,0.532892,10.002200,-1.132171,0.298949,-0.054604,0.305176,0.793457,-4.211426
3.241363,-0.807122,0.261656,10.075847,-0.745974,0.027713,0.019043,0.183105,-1.037598,-2.929688
3.251454,-0.678988,0.245490,10.298584,-0.617841,0.011546,0.241779,0.488281,-0.610352,-2.502441
3.261605,-1.293311,0.400567,9.659713,-1.232163,0.166624,-0.397092,1.434326,-1.098633,-4.455566
3.271702,-0.761616,0.213755,10.130933,-0.700469,-0.020188,0.074128,1.464844,-2.075195,-2.441406
3.281801,-1.073568,0.192799,10.044712,-1.012420,-0.041144,-0.012093,-1.220703,-1.312256,-5.126953
3.291897,-0.817300,0.323328,9.926158,-0.756153,0.089384,-0.130646,-0.885010,-1.251221,-6.286621
3.301994,-0.594564,0.332309,10.402169,-0.533417,0.098366,0.345364,1.586914,1.281738,-4.791260
3.312089,-0.830473,0.334704,10.011182,-0.769326,0.100761,-0.045623,2.288818,0.946045,-5.279541
3.322186,-0.768203,0.446072,9.809401,-0.707055,0.212129,-0.247403,0.915527,0.427246,-6.683350
3.332283,-0.276625,-0.158670,10.029144,-0.215478,-0.392613,-0.027660,-1.800537,-0.366211,-9.460449
3.342377,-0.591570,0.194595,9.827963,-0.530423,-0.039348,-0.228842,-1.556396,0.366211,-9.063721
3.352474,-0.484991,-0.613125,9.904005,-0.423844,-0.847068,-0.152800,-2.227783,0.305176,-10.345459
3.362648,-0.781375,0.008981,10.123748,-0.720228,-0.224962,0.066943,-2.624512,-0.579834,-9.918213
3.372737,0.168250,0.125739,9.864487,0.229397,-0.108205,-0.192318,-1.495361,0.915527,-3.845215
3.382828,0.052690,-0.318538,9.778266,0.113838,-0.552481,-0.278539,-0.732422,1.556396,-5.737305
3.392918,0.087418,-0.132924,10.172845,0.148565,-0.366867,0.116041,0.000000,1.068115,-6.225586
3.403008,0.137714,0.358654,10.429711,0.198861,0.124711,0.372907,0.457764,0.518799,-4.730225
3.413098,0.246088,0.040117,10.144105,0.307235,-0.193827,0.087301,-0.488281,0.427246,-3.479004
3.423184,-0.128134,0.039518,10.042916,-0.066986,-0.194425,-0.013889,0.366211,0.274658,-7.965088
3.433275,0.059277,0.286205,9.801617,0.120424,0.052262,-0.255187,0.305176,-0.579834,-9.246826
3.443365,0.131726,0.089813,10.441088,0.192873,-0.144130,0.384283,2.624512,-2.593994,-4.974365
3.453486,-0.568218,-0.031734,9.928553,-0.507071,-0.265677,-0.128251,0.335693,-1.770020,-6.958008
3.463634,0.035925,0.110171,10.024953,0.097072,-0.123772,-0.031852,-1.068115,-0.823975,-5.279541
3.473727,0.334105,0.282612,9.981843,0.395252,0.048669,-0.074962,-0.396729,-0.213623,-2.685547
3.483820,-0.423918,0.505349,10.348281,-0.362771,0.271406,0.291476,-1.739502,-1.800537,-1.953125
3.493913,-0.448467,1.205892,9.901609,-0.387320,0.971949,-0.155195,-0.823975,1.373291,3.387451
3.504006,-0.493973,0.529898,10.345886,-0.432826,0.295955,0.289081,-0.854492,2.136230,4.913330
3.514099,0.046703,0.437690,10.117161,0.107850,0.203747,0.060357,0.915527,0.762939,1.556396
3.524194,-0.033530,0.258662,9.894424,0.027617,0.024719,-0.162380,0.640869,0.762939,0.122070
3.534396,0.137714,0.377216,9.880653,0.198861,0.143272,-0.176151,2.227783,1.647949,5.065918
3.544489,0.248483,0.206570,9.708810,0.309630,-0.027373,-0.347994,4.150391,2.471924,10.009766
3.554583,-0.273631,0.525707,9.850117,-0.212484,0.291764,-0.206688,2.471924,0.854492,9.552002
3.564751,-0.023950,0.115560,10.314152,0.037197,-0.118384,0.257347,0.640869,2.532959,7.385254
3.574840,-0.104782,0.051493,9.904603,-0.043635,-0.182450,-0.152201,-0.366211,2.777100,4.394531
3.584927,-0.231718,0.015568,10.111174,-0.170571,-0.218376,0.054369,-0.823975,1.556396,2.105713
3.595014,0.040117,0.147294,9.802216,0.101264,-0.086650,-0.254588,0.030518,1.129150,-0.335693
3.605100,-0.208367,0.249681,10.068662,-0.147220,0.015738,0.011858,3.875732,1.373291,3.173828
3.615189,-0.451461,0.476010,10.393187,-0.390314,0.242067,0.336383,2.410889,0.854492,3.662109
3.625275,-0.294587,-0.385598,10.241104,-0.233440,-0.619541,0.184299,-0.701904,-1.007080,2.258301
3.635364,0.040117,-0.211959,9.833351,0.101264,-0.445902,-0.223453,-2.258301,-2.777100,-2.532959
3.645452,-0.568218,0.706531,9.884844,-0.507071,0.472587,-0.171960,-1.281738,-3.082275,2.746582
3.655539,-0.125140,-0.392783,10.278226,-0.063993,-0.626726,0.221422,-0.976562,-2.075195,9.246826
3.665684,-0.334105,-0.420326,9.791439,-0.272958,-0.654269,-0.265366,0.305176,0.335693,6.439209
3.675777,-0.198188,-0.223336,10.168055,-0.137041,-0.457279,0.111251,0.213623,1.525879,5.859375
3.685870,-0.638273,0.563428,10.238708,-0.577126,0.329485,0.181904,2.044678,1.159668,8.422852
3.695964,-0.872386,0.206570,10.199789,-0.811239,-0.027373,0.142985,0.946045,-0.305176,9.582520
3.706058,-0.166454,0.230521,10.163265,-0.105307,-0.003423,0.106461,1.129150,-0.976562,12.786865
3.716153,-0.470621,0.516127,9.830956,-0.409474,0.282183,-0.225848,-0.122070,0.000000,10.314941
3.726273,-0.362845,0.113763,10.117760,-0.301698,-0.120180,0.060955,-2.655029,1.586914,9.948730
3.736369,0.219743,0.319735,9.911788,0.280890,0.085792,-0.145016,-2.166748,2.746582,8.911133
3.746464,0.004790,0.422122,10.075248,0.065937,0.188179,0.018444,-1.556396,1.953125,5.218506
3.756559,-0.498763,0.441881,10.105186,-0.437616,0.207938,0.048382,-0.030518,1.464844,5.157471
3.766726,-0.331111,0.398172,9.909393,-0.269964,0.164229,-0.147411,0.488281,0.946045,8.941650
3.776815,-0.223336,0.299976,9.709409,-0.162188,0.066033,-0.347395,1.586914,1.708984,7.568359
3.786904,-0.027543,0.241298,9.876462,0.033604,0.007355,-0.180343,0.213623,1.220703,2.746582
3.796993,-0.017963,0.471220,9.876462,0.043184,0.237277,-0.180343,3.967285,-0.244141,5.676270
3.807080,-1.035247,0.302970,10.019564,-0.974100,0.069027,-0.037240,-1.281738,-1.495361,2.227783
3.817168,0.871188,-0.098795,10.248289,0.932335,-0.332738,0.191484,-2.960205,-0.854492,-4.089355
3.827258,0.269440,-0.292192,9.827364,0.330587,-0.526136,-0.229441,-1.739502,-0.579834,-4.455566
3.837346,0.147892,-0.176034,9.712403,0.209040,-0.409977,-0.344402,-0.396729,-0.152588,-10.162354
3.847435,-0.513732,0.211959,10.098001,-0.452585,-0.021984,0.041197,-0.091553,-0.823975,-7.904053
3.857521,-0.264650,0.061672,10.227332,-0.203503,-0.172272,0.170528,-0.152588,-0.366211,-4.180908
3.867671,0.338297,0.273032,9.892628,0.399444,0.039089,-0.164176,-0.946045,-1.495361,-7.171631
3.877782,0.144300,0.107177,10.166259,0.205447,-0.126766,0.109455,-2.624512,-2.258301,-7.781982
3.887880,0.570015,0.199984,9.909393,0.631162,-0.033959,-0.147411,-0.122070,-1.464844,-4.882812
3.897972,0.161664,0.262853,10.086625,0.222811,0.028910,0.029820,0.030518,-0.885010,-4.669189
3.908067,0.359253,0.379012,9.735156,0.420400,0.145069,-0.321649,-1.342773,0.061035,-6.683350
3.918162,0.965193,0.011376,10.270443,1.026340,-0.222567,0.213638,-0.030518,0.640869,-7.293701
3.928258,0.847238,0.181423,10.008188,0.908385,-0.052521,-0.048617,1.953125,0.091553,-6.744385
3.938355,0.234113,0.658630,10.159673,0.295260,0.424687,0.102868,-1.434326,-1.373291,-10.406494
3.948452,0.622705,0.483195,9.971065,0.683852,0.249252,-0.085739,-3.051758,-0.610352,-12.268066
3.958549,0.349074,0.397573,10.389595,0.410221,0.163630,0.332790,-2.105713,-0.488281,-10.070801
3.968722,-0.095202,0.332309,9.936936,-0.034055,0.098366,-0.119868,-0.335693,-0.457764,-11.077881
3.978813,-0.093406,0.282612,10.057286,-0.032259,0.048669,0.000481,-0.579834,-1.190186,-6.683350
3.988902,-0.207768,0.022753,10.054292,-0.146621,-0.211191,-0.002513,-2.166748,-2.105713,-7.873535
3.998992,0.168849,-0.027543,9.952504,0.229996,-0.261486,-0.104301,-2.197266,-2.197266,-9.307861
4.009082,-0.164059,0.037722,10.135723,-0.102912,-0.196222,0.078918,1.068115,-1.770020,-9.338379
4.019173,-0.316741,0.069456,9.747729,-0.255594,-0.164488,-0.309075,0.671387,-0.152588,-9.704590
4.029263,-0.349074,0.186812,10.142309,-0.287927,-0.047132,0.085504,-2.563477,-0.183105,-11.993408
4.039354,-0.374821,0.159269,10.162068,-0.313673,-0.074674,0.105263,-1.831055,-0.122070,-10.528564
4.049444,-0.346080,0.256267,9.949510,-0.284933,0.022324,-0.107295,-1.129150,-0.396729,-5.615234
4.059534,0.013173,0.464035,9.772278,0.074320,0.230092,-0.284526,0.976562,-0.915527,-3.936768
4.069780,0.402363,0.430505,10.053693,0.463510,0.196561,-0.003111,0.976562,-0.915527,4.547119
4.079877,-0.838257,0.132325,10.511741,-0.777110,-0.101618,0.454936,-0.579834,-0.457764,2.349854
4.089969,-0.099393,0.034728,10.079440,-0.038246,-0.199215,0.022635,-1.678467,-0.549316,0.579834
4.100057,-0.056882,0.139510,9.881252,0.004265,-0.094433,-0.175553,-0.305176,-0.183105,5.798340
4.110147,0.141905,0.138911,10.022558,0.203052,-0.095032,-0.034247,-0.213623,-0.274658,6.561279
4.120238,0.045505,0.116158,9.824370,0.106652,-0.117785,-0.232434,0.885010,2.502441,9.796143
4.130328,-0.049697,0.049098,9.972263,0.011450,-0.184845,-0.084542,-2.624512,1.861572,11.108398
4.140419,0.019759,0.046104,10.265054,0.080906,-0.187839,0.208249,-3.753662,3.051758,15.502930
4.150510,0.458646,-0.117955,10.224338,0.519793,-0.351898,0.167534,-2.868652,2.838135,17.669678
4.160600,-0.085023,-0.143701,10.367441,-0.023876,-0.377644,0.310636,-0.701904,1.342773,18.157959
4.170727,0.001796,0.489183,10.214758,0.062943,0.255239,0.157954,1.342773,2.105713,19.531250
4.180817,0.381407,0.227527,9.990824,0.442554,-0.006416,-0.065981,1.770020,1.159668,20.660400
4.190907,0.539478,0.109572,10.005793,0.600625,-0.124371,-0.051012,0.183105,1.220703,18.676758
4.200997,0.663420,-0.202379,10.224338,0.724568,-0.436322,0.167534,1.983643,0.946045,16.296387
4.211088,0.301772,0.267045,9.982441,0.362920,0.033101,-0.074363,4.394531,1.556396,13.397217
4.221178,-0.092208,0.407752,9.765093,-0.031061,0.173809,-0.291711,1.190186,0.427246,10.528564
4.231267,-0.393981,0.165855,9.962682,-0.332834,-0.068088,-0.094122,-0.946045,-0.976562,7.049561
4.241355,0.230521,0.049098,10.078242,0.291668,-0.184845,0.021438,-0.518799,0.152588,3.356934
4.251446,-0.241298,0.284409,9.960287,-0.180151,0.050465,-0.096517,-2.105713,1.281738,1.556396
4.261536,-0.005988,0.071252,10.105785,0.055160,-0.162691,0.048980,0.000000,0.122070,-1.495361
4.271695,0.323328,0.015568,10.095606,0.384475,-0.218376,0.038802,0.640869,0.244141,-0.823975
4.281792,0.023950,-0.279020,10.730885,0.085097,-0.512963,0.674080,-2.288818,0.396729,-1.098633
4.291890,0.010778,-0.192799,9.944720,0.071925,-0.426742,-0.112085,-1.495361,0.732422,-5.920410
4.301986,-0.559836,0.122745,10.309362,-0.498689,-0.111199,0.252557,-0.122070,-0.030518,-7.202148
4.312083,0.159868,-0.083227,10.141111,0.221015,-0.317170,0.084307,-1.190186,-0.610352,-6.103516
4.322181,0.064067,-0.068258,10.049502,0.125214,-0.302201,-0.007303,-0.946045,-1.495361,-6.134033
4.332278,-0.171244,-0.020358,10.153087,-0.110097,-0.254301,0.096282,-1.159668,-0.885010,-6.591797
4.342373,0.098795,-0.083826,10.234517,0.159942,-0.317769,0.177713,1.007080,-1.251221,-5.798340
4.352471,-0.167053,0.253872,9.915381,-0.105906,0.019929,-0.141424,1.403809,-0.061035,-4.486084
4.362569,-0.313149,0.301174,10.143506,-0.252002,0.067230,0.086702,-1.861572,1.953125,-3.265381
4.372770,0.395777,0.286804,10.056088,0.456924,0.052860,-0.000716,-1.434326,1.861572,-2.014160
4.382861,-0.113165,0.673599,10.133328,-0.052018,0.439656,0.076523,2.471924,0.427246,-4.394531
4.392952,-0.128134,0.221539,10.095606,-0.066986,-0.012404,0.038802,2.990723,0.427246,0.976562
4.403042,-0.164658,0.641865,10.051298,-0.103510,0.407922,-0.005506,0.915527,-1.342773,-3.448486
4.413132,-0.062869,-0.031135,10.108779,-0.001722,-0.265079,0.051974,-0.122070,-0.427246,-2.563477
4.423222,-0.777184,-0.274828,10.095606,-0.716037,-0.508772,0.038802,-4.394531,0.274658,-14.068604
4.433311,0.173040,-0.392783,10.466235,0.234187,-0.626726,0.409431,-2.319336,-1.586914,-16.876221
4.443401,-0.035327,0.043709,10.007589,0.025821,-0.190234,-0.049215,2.349854,-2.502441,-9.857178
4.453492,-0.578397,0.071851,9.888437,-0.517250,-0.162093,-0.168368,0.335693,-2.502441,-8.819580
4.463582,-0.113763,0.315544,9.805210,-0.052616,0.081601,-0.251595,1.434326,-2.563477,-8.514404
4.473731,-0.359253,-0.014969,10.132729,-0.298106,-0.248912,0.075924,-0.030518,-0.823975,-5.737305
4.483829,-0.225132,0.217348,10.171049,-0.163985,-0.016595,0.114245,1.281738,0.274658,-2.807617
4.493925,0.174238,-0.265248,10.139914,0.235385,-0.499192,0.083109,-3.967285,0.427246,-5.249023
4.504022,0.293390,0.108973,10.009385,0.354537,-0.124970,-0.047419,-3.509521,0.396729,-4.913330
4.514119,0.286205,0.089813,9.999805,0.347352,-0.144130,-0.056999,-1.617432,-0.976562,-2.655029
4.524216,0.408950,-0.289199,10.434501,0.470097,-0.523142,0.377697,-0.579834,-1.831055,-1.007080
4.534313,0.267045,0.094005,9.979448,0.328192,-0.139939,-0.077357,0.427246,0.640869,-2.746582
4.544409,-0.067061,-0.166454,10.169253,-0.005913,-0.400397,0.112448,-0.518799,1.495361,-4.486084
4.554505,-0.434696,0.091011,9.968670,-0.373549,-0.142933,-0.088134,2.593994,0.854492,-4.180908
4.564602,0.350272,-0.152682,10.125544,0.411419,-0.386626,0.068739,-0.305176,-0.762939,-1.251221
4.574764,0.244292,0.041314,10.187216,0.305439,-0.192629,0.130411,1.403809,-1.342773,-0.823975
4.584860,-0.238304,-0.018561,10.054292,-0.177157,-0.252505,-0.002513,1.434326,-0.579834,-0.244141
4.594957,0.031135,-0.085023,10.117760,0.092282,-0.318966,0.060955,-0.488281,-0.518799,1.159668
4.605053,-0.165256,0.061073,9.973460,-0.104109,-0.172870,-0.083344,-0.976562,1.556396,-1.190186
4.615150,0.147892,0.229922,9.711205,0.209040,-0.004021,-0.345599,-1.464844,2.441406,-3.570557
4.625247,-0.364043,-0.349673,10.229128,-0.302896,-0.583616,0.172324,-2.899170,2.685547,-5.737305
4.635344,-0.457449,-0.222138,10.009385,-0.396302,-0.456081,-0.047419,-2.624512,0.854492,-11.718750
4.645441,0.034728,0.047900,10.048304,0.095875,-0.186043,-0.008500,0.274658,-0.610352,-11.627197
4.655538,-0.018561,0.510139,9.942325,0.042586,0.276196,-0.114480,0.976562,-1.892090,-6.958008
4.665634,-0.037123,0.154479,10.095007,0.024024,-0.079465,0.038203,-1.861572,1.647949,-7.141113
4.675757,0.298180,-0.126337,9.808802,0.359327,-0.360281,-0.248002,3.051758,1.617432,-3.204346
4.685855,-0.727487,0.375419,10.307565,-0.666340,0.141476,0.250761,-1.037598,-0.366211,-1.098633
4.695951,-0.741857,0.034129,10.017768,-0.680710,-0.199814,-0.039037,-3.265381,-0.579834,-4.882812
4.706047,0.661025,0.072449,9.888437,0.722172,-0.161494,-0.168368,0.701904,-1.068115,-3.509521
4.716144,-0.726888,0.734073,10.039922,-0.665741,0.500130,-0.016883,0.396729,-0.091553,-4.394531
4.726270,-0.596959,-0.167053,10.119556,-0.535812,-0.400996,0.062752,-3.875732,0.946045,-6.744385
4.736366,-0.226928,-0.024549,10.027348,-0.165781,-0.258492,-0.029456,-1.922607,-0.579834,-6.866455
4.746462,-0.857417,0.601749,10.038126,-0.796270,0.367805,-0.018679,-1.251221,0.152588,-5.126953
4.756559,-0.604144,0.459844,10.259665,-0.542997,0.225900,0.202860,-2.136230,0.305176,-6.500244
4.766656,-0.595761,0.607137,10.454859,-0.534614,0.373194,0.398054,3.082275,-0.946045,-6.896973
4.776777,-0.787363,0.893342,10.195598,-0.726216,0.659399,0.138794,2.502441,-2.441406,-3.906250
4.786874,-0.588576,0.992736,9.821376,-0.527429,0.758792,-0.235428,0.549316,-0.793457,-2.441406
4.796970,-0.493973,0.385598,10.151290,-0.432826,0.151655,0.094486,-2.349854,-0.061035,-6.134033
4.807067,-0.593965,0.159868,10.021959,-0.532818,-0.074076,-0.034845,-3.845215,-0.244141,-11.505127
4.817163,0.407752,0.338895,9.832753,0.468899,0.104952,-0.224052,0.579834,-0.793457,-9.552002
4.827260,0.271835,0.352068,9.999207,0.332982,0.118125,-0.057598,1.831055,-0.549316,-8.209229
4.837363,0.001796,0.539478,9.782457,0.062943,0.305535,-0.274347,1.617432,1.220703,-8.666992
4.847459,0.115560,-0.031135,10.019564,0.176707,-0.265079,-0.037240,0.427246,0.091553,-10.406494
4.857555,0.768801,0.360450,10.238708,0.829948,0.126507,0.181904,1.586914,0.854492,-8.941650
4.867652,0.266446,0.554447,9.890233,0.327593,0.320504,-0.166571,2.105713,0.885010,-7.751465
4.877769,0.373024,0.383203,9.880054,0.434171,0.149260,-0.176750,2.014160,-0.091553,-8.087158
4.887860,0.414937,0.463436,9.996213,0.476084,0.229493,-0.060592,3.417969,0.732422,-6.011963
4.897957,-0.123344,0.031734,10.210567,-0.062196,-0.202209,0.153762,-0.823975,-1.342773,-5.340576
4.908051,0.103585,0.471220,9.792636,0.164732,0.237277,-0.264168,-1.037598,-1.373291,-6.713867
4.918148,0.246687,0.496967,9.816586,0.307834,0.263023,-0.240218,-0.915527,-0.488281,-5.065918
4.928244,-0.302371,0.995729,9.907597,-0.241224,0.761786,-0.149207,-0.427246,1.159668,-0.793457
4.938340,0.066462,-0.032333,9.979448,0.127609,-0.266276,-0.077357,-5.096436,-0.701904,-2.838135
4.948436,0.526306,0.116757,9.632170,0.587453,-0.117186,-0.424635,-4.821777,0.915527,-4.425049
4.958533,0.310754,0.030536,10.242900,0.371901,-0.203407,0.186095,-1.098633,-1.525879,-2.685547
4.968629,-0.020956,0.254471,9.794432,0.040191,0.020528,-0.262372,0.793457,-1.251221,-1.892090
4.978878,0.164658,0.159269,9.926158,0.225805,-0.074674,-0.130646,0.152588,0.213623,2.258301
4.988976,0.232916,-0.174836,9.987231,0.294063,-0.408780,-0.069573,-0.518799,0.366211,1.770020
4.999074,0.241298,-0.066462,10.271640,0.302445,-0.300405,0.214835,-1.159668,-0.091553,2.075195
5.009170,-0.065863,-0.281415,10.351873,-0.004716,-0.515358,0.295069,-2.380371,0.183105,0.793457
5.019266,0.483794,0.033530,9.867480,0.544941,-0.200413,-0.189324,0.762939,-0.671387,1.617432
5.029363,-0.031734,-0.146096,10.017768,0.029413,-0.380039,-0.039037,-0.335693,0.030518,2.716064
5.039459,0.149090,-0.182021,10.066866,0.210237,-0.415965,0.010061,0.274658,0.640869,1.831055
5.049556,-0.244891,-0.235909,9.920171,-0.183744,-0.469853,-0.136634,0.640869,0.640869,3.845215
5.059652,0.232916,0.305964,10.057286,0.294063,0.072020,0.000481,1.739502,0.793457,4.577637
5.069749,-0.098795,0.301174,10.314750,-0.037647,0.067230,0.257946,-0.793457,0.946045,5.798340
5.079843,-0.119751,-0.195194,10.238708,-0.058604,-0.429137,0.181904,-0.793457,0.823975,3.051758
5.089933,0.007185,0.188009,9.730366,0.068332,-0.045934,-0.326439,-0.244141,0.946045,3.417969
5.100023,-0.080832,-0.224533,10.324330,-0.019685,-0.458476,0.267526,-2.197266,1.220703,3.631592
5.110113,0.095202,-0.205373,10.062076,0.156349,-0.439316,0.005271,-0.762939,0.427246,2.960205
5.120203,-0.110770,0.318538,9.906400,-0.049623,0.084594,-0.150405,1.861572,0.244141,4.486084
5.130292,-0.336500,0.280816,9.879456,-0.275353,0.046873,-0.177349,0.030518,0.762939,4.180908
5.140382,-0.052092,0.059277,10.112970,0.009055,-0.174667,0.056165,-3.356934,0.610352,1.708984
5.150473,-0.193398,0.222138,10.141111,-0.132251,-0.011805,0.084307,0.274658,-0.457764,1.190186
5.160563,-0.086819,0.190404,10.042916,-0.025672,-0.043539,-0.013889,0.396729,-0.946045,1.739502
5.170653,-0.146096,0.147294,10.256671,-0.084949,-0.086650,0.199867,0.305176,-1.953125,-0.823975
5.180808,-0.387394,0.285606,10.097402,-0.326247,0.051663,0.040598,0.976562,-1.953125,-0.488281
5.190909,-0.333506,0.292192,10.065070,-0.272359,0.058249,0.008265,3.051758,-0.823975,3.082275
5.201004,-0.583187,0.315544,10.213561,-0.522040,0.081601,0.156756,0.427246,-1.403809,0.915527
5.211100,-0.343685,0.199984,9.965676,-0.282538,-0.033959,-0.091128,-0.457764,-0.091553,-1.159668
5.221197,-0.458047,0.458047,9.920171,-0.396900,0.224104,-0.136634,0.366211,0.152588,0.427246
5.231293,-0.425116,0.426912,9.666299,-0.363969,0.192969,-0.390506,-2.227783,0.335693,0.976562
5.241393,-0.480201,-0.074844,10.306967,-0.419054,-0.308788,0.250162,-2.288818,0.183105,-2.716064
5.251489,-0.325124,0.380808,9.884246,-0.263977,0.146865,-0.172559,0.274658,0.488281,-0.579834
5.261585,-0.697549,0.574805,9.909393,-0.636402,0.340861,-0.147411,1.556396,0.457764,1.892090
5.271682,-0.501757,0.291594,10.217153,-0.440609,0.057650,0.160349,-0.274658,0.579834,3.417969
5.281858,-0.396974,0.149689,9.899813,-0.335827,-0.084255,-0.156991,0.213623,0.000000,5.615234
5.291947,-0.535886,0.211959,10.151290,-0.474739,-0.021984,0.094486,1.617432,0.000000,5.584717
5.302038,-0.158670,-0.013173,10.175240,-0.097523,-0.247116,0.118436,0.244141,0.305176,4.364014
5.312127,0.011975,-0.082628,10.045909,0.073122,-0.316571,-0.010895,1.037598,0.915527,3.051758
5.322216,0.020956,-0.116158,10.075847,0.082104,-0.350102,0.019043,-1.251221,0.671387,3.845215
5.332306,0.060474,-0.019160,10.057286,0.121621,-0.253103,0.000481,-1.373291,1.098633,5.401611
5.342396,-0.014969,-0.222138,9.981244,0.046178,-0.456081,-0.075561,-1.647949,0.976562,3.662109
5.352485,-0.134121,0.017963,9.953701,-0.072974,-0.215981,-0.103103,-2.807617,-0.122070,0.579834
5.362575,-0.029339,0.195194,10.144105,0.031808,-0.038749,0.087301,-0.701904,-1.068115,0.122070
5.372664,-0.002395,0.179626,10.051298,0.058752,-0.054317,-0.005506,0.885010,-1.525879,1.617432
5.382812,0.317939,0.212558,9.918375,0.379086,-0.021385,-0.138430,1.129150,-1.068115,2.105713
5.392906,-0.162861,0.016166,10.222542,-0.101714,-0.217777,0.165738,-0.305176,-0.854492,1.281738
5.403002,0.527503,0.225132,10.146500,0.588650,-0.008811,0.089696,0.885010,-0.640869,3.356934
5.413098,0.432900,0.456251,10.030941,0.494047,0.222308,-0.025864,1.922607,-0.305176,4.058838
5.423195,0.025148,0.279619,10.051897,0.086295,0.045675,-0.004908,0.183105,0.213623,1.434326
5.433291,0.237706,0.485590,9.899813,0.298853,0.251647,-0.156991,-0.549316,0.030518,0.762939
5.443386,0.535287,0.270038,9.890832,0.596434,0.036095,-0.165973,-0.122070,-0.030518,2.716064
5.453482,0.337698,-0.106578,10.114167,0.398845,-0.340522,0.057363,-0.518799,1.007080,1.831055
5.463578,0.699346,-0.140109,10.105186,0.760493,-0.374052,0.048382,0.488281,0.305176,2.136230
5.473675,0.456251,0.147892,10.028546,0.517398,-0.086051,-0.028259,0.000000,-0.183105,2.532959
5.483796,0.346679,-0.033530,10.265054,0.407826,-0.267474,0.208249,-1.647949,-0.518799,2.166748
5.493892,0.475411,0.364642,10.062675,0.536558,0.130698,0.005870,-0.213623,-0.061035,5.035400
5.503989,0.223934,0.313149,10.021959,0.285081,0.079206,-0.034845,-0.793457,0.762939,5.340576
5.514085,0.280816,0.229922,10.199191,0.341963,-0.004021,0.142386,-1.464844,1.495361,6.744385
5.524181,0.459844,0.177830,10.013577,0.520991,-0.056113,-0.043228,-2.807617,2.685547,6.835938
5.534276,0.340093,0.199984,9.927955,0.401240,-0.033959,-0.128850,-2.197266,3.112793,6.011963
5.544373,0.225731,-0.007185,10.027348,0.286878,-0.241128,-0.029456,0.549316,2.563477,6.378174
5.554469,0.299976,0.353864,10.100396,0.361123,0.119921,0.043592,3.479004,2.105713,9.002686
5.564565,0.039518,0.038320,10.056088,0.100665,-0.195623,-0.000716,1.983643,1.342773,7.934570
5.574661,0.090412,0.276625,9.865684,0.151559,0.042681,-0.191120,2.197266,1.220703,6.164551
5.584779,-0.211360,-0.036524,10.178833,-0.150213,-0.270467,0.122028,0.274658,-1.251221,2.655029
5.594876,0.129930,0.220941,9.896221,0.191077,-0.013003,-0.160584,-0.579834,-2.532959,1.495361
5.604972,0.189207,0.301772,10.065070,0.250354,0.067829,0.008265,0.244141,-0.640869,3.112793
5.615069,-0.146096,-0.007185,10.260862,-0.084949,-0.241128,0.204058,-1.037598,0.518799,3.082275
5.625165,-0.067659,-0.180225,10.037527,-0.006512,-0.414168,-0.019278,-0.091553,0.976562,1.586914
5.635262,-0.282612,0.071252,10.030941,-0.221465,-0.162691,-0.025864,0.213623,0.579834,5.462646
5.645358,0.026345,-0.124541,10.050699,0.087492,-0.358484,-0.006105,-0.762939,-0.671387,4.821777
5.655454,0.220342,0.134720,10.048903,0.281489,-0.099223,-0.007901,-0.183105,0.305176,4.577637
5.665550,-0.019160,0.028141,10.081835,0.041987,-0.205802,0.025030,-0.946045,1.251221,3.906250
5.675646,0.171843,-0.132325,10.206974,0.232990,-0.366268,0.150170,-1.464844,1.556396,4.547119
5.685768,0.221539,-0.100591,9.972861,0.282686,-0.334534,-0.083943,-1.190186,1.495361,2.899170
5.695863,0.402962,0.095801,10.056687,0.464109,-0.138142,-0.000118,-0.183105,0.579834,3.112793
5.705960,0.538281,-0.017364,10.148895,0.599428,-0.251307,0.092091,1.708984,-0.244141,2.716064
5.716053,0.504152,0.040715,10.031539,0.565299,-0.193228,-0.025265,2.227783,-0.274658,4.547119
5.726149,0.326920,0.141905,9.951905,0.388067,-0.092038,-0.104900,1.098633,-0.183105,5.920410
5.736245,0.561033,0.195793,9.962682,0.622180,-0.038150,-0.094122,0.518799,0.549316,7.659912
5.746342,0.455054,0.043110,10.037527,0.516201,-0.190833,-0.019278,-0.457764,0.518799,8.941650
5.756438,0.324525,-0.083826,10.089619,0.385672,-0.317769,0.032814,-0.579834,0.213623,8.148193
5.766534,0.558040,-0.101788,9.990824,0.619187,-0.335732,-0.065981,-0.335693,0.671387,8.026123
5.776628,0.299976,-0.317939,9.985435,0.361123,-0.551882,-0.071369,-0.335693,0.915527,7.019043
5.786751,0.104183,-0.152682,9.759106,0.165330,-0.386626,-0.297699,-0.335693,0.854492,5.798340
5.796847,0.356858,-0.006586,10.095007,0.418005,-0.240530,0.038203,-1.098633,0.762939,7.598877
5.806945,0.246088,-0.188608,9.969269,0.307235,-0.422551,-0.087536,-2.410889,0.274658,6.195068
5.817039,0.137714,-0.528701,9.994417,0.198861,-0.762644,-0.062388,-1.129150,-0.823975,4.150391
5.827135,0.196990,-0.383203,10.045909,0.258137,-0.617146,-0.010895,0.244141,-0.579834,5.004883
5.837232,0.223934,-0.359852,10.026749,0.285081,-0.593795,-0.030055,0.213623,-0.823975,4.669189
5.847328,-0.026345,-0.386197,10.058483,0.034802,-0.620140,0.001679,-0.457764,-0.549316,2.441406
5.857424,0.225731,-0.305365,10.159673,0.286878,-0.539308,0.102868,-0.793457,-0.030518,0.915527
5.867520,0.191602,-0.127535,10.224937,0.252749,-0.361478,0.168133,-1.464844,0.457764,-0.305176
5.877616,0.070054,-0.289797,10.222542,0.131201,-0.523741,0.165738,-0.976562,0.061035,-2.471924
5.887794,-0.119751,-0.131127,10.009984,-0.058604,-0.365071,-0.046820,0.000000,-1.251221,-1.190186
5.897884,0.020358,-0.127535,10.293794,0.081505,-0.361478,0.236989,0.854492,-1.678467,0.579834
5.907974,0.171843,0.004790,10.051298,0.232990,-0.229153,-0.005506,2.044678,-0.854492,1.922607
5.918064,0.143102,0.286205,10.054891,0.204250,0.052262,-0.001914,1.739502,-0.732422,2.532959
5.928154,0.257465,0.220342,10.011780,0.318612,-0.013601,-0.045024,1.770020,-0.671387,2.380371
5.938266,0.020956,0.201182,10.064471,0.082104,-0.032762,0.007666,0.732422,-0.244141,0.549316
5.948355,-0.166454,0.563428,9.979448,-0.105307,0.329485,-0.077357,0.305176,0.274658,2.655029
5.958445,0.390388,0.129930,10.190808,0.451535,-0.104013,0.134004,-1.068115,0.091553,-0.457764
5.968535,0.271236,0.234712,10.001003,0.332383,0.000769,-0.055802,-0.244141,0.213623,-1.892090
5.978624,0.223336,0.292192,10.064471,0.284483,0.058249,0.007666,0.061035,0.061035,-2.380371
5.988771,0.836461,0.261656,10.096804,0.897608,0.027713,0.039999,-1.251221,-0.091553,-2.471924
5.998869,0.177231,0.101788,10.039323,0.238379,-0.132155,-0.017481,-1.647949,0.732422,-6.225586
6.008965,0.432301,0.213157,10.084828,0.493448,-0.020787,0.028024,-2.685547,0.122070,-7.476807
6.019062,0.486788,0.088017,10.014175,0.547935,-0.145926,-0.042629,-1.556396,-0.427246,-7.904053
6.029159,0.380808,-0.140109,10.079440,0.441955,-0.374052,0.022635,-1.129150,-0.732422,-10.528564
6.039253,0.598755,-0.008981,10.210567,0.659902,-0.242925,0.153762,0.305176,-0.915527,-11.627197
6.049345,0.135917,0.141306,10.086026,0.197064,-0.092637,0.029221,1.922607,-1.190186,-8.728027
6.059440,0.431702,-0.187410,10.188413,0.492849,-0.421354,0.131609,0.518799,-1.647949,-10.894775
6.069537,0.535886,-0.032932,10.033336,0.597033,-0.266875,-0.023469,2.166748,-1.556396,-10.375977
6.079633,0.120350,0.050894,9.977651,0.181497,-0.183049,-0.079153,2.441406,-1.281738,-9.765625
6.089822,0.139510,-0.102387,10.102791,0.200657,-0.336330,0.045987,0.793457,-1.373291,-8.209229
6.099913,0.277822,-0.238304,10.046508,0.338969,-0.472248,-0.010296,0.915527,-1.190186,-7.354736
6.110003,0.267643,-0.138911,10.068063,0.328791,-0.372854,0.011259,1.403809,-1.068115,-5.981445
6.120096,0.076042,-0.086819,10.077045,0.137189,-0.320763,0.020240,0.427246,-1.037598,-5.126953
6.130184,0.017963,0.007784,9.980046,0.079110,-0.226159,-0.076758,0.793457,-1.251221,-3.967285
6.140273,0.336500,0.023351,10.038724,0.397647,-0.210592,-0.018080,1.831055,-1.312256,-3.265381
6.150364,0.232916,0.316741,9.973460,0.294063,0.082798,-0.083344,3.479004,-1.403809,-4.577637
6.160454,-0.178429,0.261656,9.920770,-0.117282,0.027713,-0.136035,2.075195,-1.831055,-5.462646
6.170544,0.065863,0.438289,9.950707,0.127010,0.204345,-0.106097,1.007080,-1.159668,-6.530762
6.180634,0.049697,0.195793,10.118958,0.110844,-0.038150,0.062153,1.037598,-0.671387,-6.591797
6.190789,0.108375,0.117955,10.160272,0.169522,-0.115989,0.103467,-1.953125,-1.037598,-12.725830
6.200886,0.005988,-0.069456,10.095007,0.067135,-0.303399,0.038203,-0.732422,-1.525879,-18.371582
6.210982,-0.301174,0.507145,10.051298,-0.240027,0.273202,-0.005506,1.373291,-0.976562,-16.845703
6.221078,-0.504750,0.280217,9.896819,-0.443603,0.046274,-0.159985,0.579834,-1.098633,-12.664795
6.231175,-0.237706,0.010179,10.058483,-0.176559,-0.223764,0.001679,-0.976562,-2.136230,-15.075684
6.241271,0.480201,-0.035327,10.124945,0.541349,-0.269270,0.068141,-1.007080,-1.892090,-13.885498
6.251369,0.073048,0.128134,10.060878,0.134195,-0.105810,0.004074,1.525879,-1.678467,-11.138916
6.261466,0.737067,0.269440,9.862690,0.798214,0.035496,-0.194114,2.563477,-1.190186,-4.669189
6.271562,0.855621,0.122745,10.069860,0.916768,-0.111199,0.013055,1.708984,-1.190186,-1.800537
6.281656,1.131048,0.095202,10.014774,1.192195,-0.138741,-0.042030,0.793457,-1.281738,-3.967285
6.291819,1.432222,0.201182,10.020163,1.493369,-0.032762,-0.036642,0.915527,-1.281738,-5.859375
6.301909,1.196312,0.507744,9.970466,1.257459,0.273801,-0.086338,-0.122070,-1.617432,-11.810303
6.311999,0.795745,0.387394,9.955497,0.856892,0.153451,-0.101307,-1.220703,-2.197266,-16.326904
6.322087,0.698148,0.428110,9.932146,0.759295,0.194166,-0.124659,-2.593994,-2.990723,-19.958496
6.332176,0.590372,0.390987,10.004595,0.651519,0.157044,-0.052209,-2.044678,-4.333496,-24.810791
6.342266,0.572410,0.426912,10.027947,0.633557,0.192969,-0.028858,-0.213623,-4.730225,-27.374268
6.352356,0.316741,0.930465,10.027947,0.377888,0.696522,-0.028858,0.732422,-4.577637,-31.799316
6.362445,0.034129,1.063987,10.054292,0.095276,0.830044,-0.002513,1.403809,-4.180908,-29.266357
6.372535,0.216749,0.707130,10.115365,0.277896,0.473186,0.058560,2.227783,-4.791260,-35.095215
6.382625,-0.696352,0.687371,9.905202,-0.635205,0.453427,-0.151602,1.098633,-4.638672,-36.621094
6.392774,-0.131726,0.429906,9.972861,-0.070579,0.195963,-0.083943,0.335693,-5.249023,-38.909912
6.402870,0.052092,0.408950,10.054891,0.113239,0.175006,-0.001914,0.061035,-4.058838,-36.804199
6.412966,-0.490979,0.638273,9.947115,-0.429832,0.404329,-0.109690,-0.213623,-3.631592,-35.858154
6.423061,-0.056283,0.286804,9.992620,0.004864,0.052860,-0.064184,-0.701904,-3.662109,-33.081055
6.433157,0.241298,0.179028,10.221943,0.302445,-0.054916,0.165139,-0.518799,-2.899170,-29.907227
6.443253,0.614323,0.007784,10.106982,0.675470,-0.226159,0.050178,0.183105,-3.448486,-31.707764
6.453348,0.953218,0.325723,10.120155,1.014365,0.091779,0.063351,-0.213623,-3.631592,-32.196045
6.463444,0.353265,0.325723,10.067465,0.414412,0.091779,0.010660,0.549316,-3.631592,-29.541016
6.473541,1.289718,-0.021555,10.054292,1.350865,-0.255498,-0.002513,0.244141,-3.204346,-29.205322
6.483637,1.608854,0.409548,10.051298,1.670001,0.175605,-0.005506,0.885010,-2.624512,-27.770996
6.493758,0.437690,0.190404,10.026749,0.498837,-0.043539,-0.030055,1.434326,-1.647949,-22.583008
6.503854,0.529898,0.149689,10.054891,0.591045,-0.084255,-0.001914,0.671387,-1.617432,-23.071289
6.513950,0.839454,-0.059875,10.051298,0.900601,-0.293819,-0.005506,-0.244141,-1.190186,-19.866943
6.524046,0.947230,0.029938,10.042317,1.008377,-0.204006,-0.014488,-0.762939,-1.037598,-18.768311
6.534142,0.905317,0.099992,10.047706,0.966464,-0.133951,-0.009099,-0.610352,-0.946045,-16.723633
6.544238,0.437091,-0.198188,9.971065,0.498238,-0.432131,-0.085739,-0.549316,-1.068115,-17.333984
6.554333,0.606539,-0.095801,10.119556,0.667686,-0.329744,0.062752,-1.464844,-1.098633,-19.500732
6.564430,0.305365,-0.010778,10.055490,0.366512,-0.244721,-0.001315,-0.335693,-0.915527,-15.747070
6.574526,0.160466,-0.164059,10.099797,0.221613,-0.398002,0.042993,-0.457764,-0.885010,-14.709473
6.584622,0.542472,-0.032333,10.101594,0.603619,-0.266276,0.044789,-1.098633,-0.823975,-13.061523
6.594743,0.547861,0.209564,10.033336,0.609008,-0.024379,-0.023469,-0.976562,-0.732422,-12.115479
6.604840,0.534688,0.413141,10.018367,0.595835,0.179198,-0.038438,-0.701904,-0.427246,-6.896973
6.614935,0.537682,0.440085,10.039922,0.598829,0.206142,-0.016883,-0.427246,-0.305176,-4.882812
6.625032,0.606539,0.384401,10.046508,0.667686,0.150457,-0.010296,-0.244141,-0.244141,-3.295898
6.635127,0.732277,0.367037,10.018965,0.793424,0.133093,-0.037839,0.000000,-0.183105,-1.800537
6.645223,0.586181,0.322729,10.027348,0.647328,0.088786,-0.029456,-0.091553,-0.152588,-1.403809
6.655318,0.368833,0.249082,10.041718,0.429980,0.015139,-0.015086,-0.305176,-0.091553,-0.823975
6.665411,0.293390,0.217348,10.050101,0.354537,-0.016595,-0.006704,-0.335693,-0.061035,-0.640869
6.675508,0.235311,0.196392,10.047706,0.296458,-0.037552,-0.009099,-0.244141,-0.030518,-0.335693
6.685605,0.162263,0.166454,10.044712,0.223410,-0.067489,-0.012093,-0.183105,0.000000,-0.244141
6.695792,0.129331,0.156275,10.045909,0.190478,-0.077668,-0.010895,-0.122070,0.030518,-0.122070
6.705882,0.095801,0.142504,10.051897,0.156948,-0.091440,-0.004908,-0.122070,0.030518,-0.061035
6.715971,0.089214,0.143701,10.046508,0.150362,-0.090242,-0.010296,-0.122070,0.061035,-0.030518
6.726059,0.067061,0.150886,10.041119,0.128208,-0.083057,-0.015685,-0.732422,-0.091553,0.030518
6.736148,0.065863,0.149090,10.042317,0.127010,-0.084853,-0.014488,-1.007080,-0.122070,0.061035
6.746264,0.055684,0.153880,10.053094,0.116831,-0.080063,-0.003710,-1.586914,-0.213623,0.091553
6.756353,0.058678,0.145497,10.056088,0.119825,-0.088446,-0.000716,-1.892090,-0.274658,0.091553
6.766443,0.052690,0.128134,10.059082,0.113838,-0.105810,0.002278,-2.105713,-0.335693,0.091553
6.776533,0.052690,0.123942,10.061477,0.113838,-0.110001,0.004673,-2.166748,-0.366211,0.122070
6.786622,0.049098,0.131127,10.054292,0.110245,-0.102816,-0.002513,-2.227783,-0.396729,0.122070
6.796769,0.040117,0.114362,10.056088,0.101264,-0.119581,-0.000716,-2.532959,-0.488281,0.122070
6.806866,0.043110,0.100591,10.054891,0.104257,-0.133352,-0.001914,-2.532959,-0.457764,0.122070
6.816962,0.050894,0.061073,10.062076,0.112041,-0.172870,0.005271,-1.647949,-0.305176,0.061035
6.827058,0.054487,0.023950,10.061477,0.115634,-0.209993,0.004673,-0.915527,-0.183105,0.000000
6.837154,0.062271,-0.007784,10.064471,0.123418,-0.241727,0.007666,2.197266,0.366211,-0.061035
6.847250,0.063468,-0.036524,10.080637,0.124615,-0.270467,0.023833,4.455566,0.793457,-0.152588
6.857347,0.070653,0.129331,10.093211,0.131800,-0.104612,0.036407,4.425049,0.732422,-0.152588
6.867442,-0.086221,0.216749,10.054292,-0.025074,-0.017194,-0.002513,3.143311,0.488281,-0.457764
6.877538,-0.380808,0.490380,10.051897,-0.319661,0.256437,-0.004908,2.777100,0.213623,-4.028320
6.887634,-0.405956,0.540676,10.050101,-0.344809,0.306732,-0.006704,1.739502,-1.495361,-23.406982
6.897756,-0.080233,0.361648,10.071656,-0.019086,0.127705,0.014851,1.190186,-2.166748,-33.630371
6.907852,0.168250,0.232916,10.040521,0.229397,-0.001028,-0.016284,0.671387,-2.868652,-43.548584
6.917948,0.288600,-0.207768,10.079440,0.349747,-0.441711,0.022635,0.335693,-2.929688,-46.630859
6.928042,0.380209,-0.494572,10.091415,0.441356,-0.728515,0.034610,0.030518,-2.990723,-48.614502
6.938138,0.417332,-0.420925,10.047107,0.478479,-0.654868,-0.009698,0.000000,-3.051758,-49.102783
6.948234,0.393981,-0.425715,10.099797,0.455128,-0.659658,0.042993,-0.457764,-2.990723,-49.865723
6.958330,0.397573,-0.408950,10.051298,0.458720,-0.642893,-0.005506,-0.518799,-2.838135,-49.926758
6.968425,0.295186,-0.419727,10.081835,0.356333,-0.653670,0.025030,-0.732422,-2.777100,-48.461914
6.978523,0.270038,-0.524509,10.103989,0.331186,-0.758453,0.047184,-1.617432,-2.960205,-51.696777
6.988621,0.116158,-0.319136,10.005793,0.177306,-0.553080,-0.051012,-0.823975,-2.838135,-53.161621
6.998793,0.094005,-0.367037,10.002200,0.155152,-0.600980,-0.054604,-1.983643,-2.746582,-55.114746
7.008882,0.038919,-0.116757,9.958491,0.100066,-0.350700,-0.098313,-1.678467,-2.716064,-55.603027
7.018972,-0.086221,0.073647,10.002200,-0.025074,-0.160296,-0.054604,-1.983643,-2.532959,-55.755615
7.029062,-0.026345,0.074246,9.929751,0.034802,-0.159698,-0.127054,-2.441406,-2.593994,-55.847168
7.039151,0.004191,0.056882,10.047706,0.065338,-0.177062,-0.009099,-2.807617,-2.349854,-55.786133
7.049241,-0.172441,0.514929,10.054292,-0.111294,0.280986,-0.002513,-1.983643,-2.258301,-50.964355
7.059331,-0.199984,0.510738,10.030941,-0.138837,0.276795,-0.025864,-1.129150,-2.319336,-47.271729
7.069420,-0.298779,0.626896,10.062076,-0.237632,0.392953,0.005271,-0.732422,-2.075195,-41.900635
7.079510,-0.165256,0.662223,10.009385,-0.104109,0.428280,-0.047419,-0.549316,-1.983643,-39.520264
7.089599,-0.091609,0.787961,10.062076,-0.030462,0.554018,0.005271,-0.061035,-1.953125,-37.963867
7.099746,0.093406,0.818498,10.017169,0.154553,0.584555,-0.039635,-0.091553,-1.892090,-35.369873
7.109842,0.152084,0.821492,10.024354,0.213231,0.587548,-0.032450,-0.244141,-1.953125,-35.217285
7.119939,0.620909,0.526904,10.038724,0.682056,0.292961,-0.018080,-0.335693,-2.197266,-39.703369
7.130036,0.602347,0.450862,10.006392,0.663495,0.216919,-0.050413,-0.640869,-2.410889,-45.013428
7.140131,0.634081,0.213755,10.003997,0.695229,-0.020188,-0.052808,-0.396729,-2.624512,-55.389404
7.150230,0.394579,0.364043,10.092612,0.455727,0.130100,0.035808,-0.396729,-3.173828,-61.279297
7.160326,0.389191,0.193997,10.042317,0.450338,-0.039947,-0.014488,0.000000,-3.845215,-68.603516
7.170424,0.409548,0.567620,10.115964,0.470695,0.333676,0.059159,-0.305176,-4.577637,-81.726074
7.180519,0.505349,0.483794,10.093810,0.566496,0.249851,0.037005,-0.732422,-4.791260,-85.571289
7.190616,0.368833,0.245490,10.123748,0.429980,0.011546,0.066943,0.335693,-6.011963,-99.792480
7.200777,0.224533,0.176034,9.981244,0.285680,-0.057909,-0.075561,0.488281,-7.080078,-105.224609
7.210866,-0.041314,0.446072,10.086026,0.019833,0.212129,0.029221,0.457764,-6.774902,-102.111816
7.220957,-0.036524,0.298180,10.074650,0.024623,0.064237,0.017845,0.823975,-6.683350,-93.139648
7.231047,-0.024549,0.240101,10.052496,0.036598,0.006157,-0.004309,1.220703,-6.561279,-79.559326
7.241137,-0.036524,0.267643,10.085427,0.024623,0.033700,0.028623,1.129150,-6.683350,-79.589844
7.251225,0.222737,0.262853,10.129136,0.283884,0.028910,0.072332,0.854492,-7.110596,-85.510254
7.261315,0.217348,0.462239,10.001602,0.278495,0.228296,-0.055203,-0.854492,-7.781982,-105.957031
7.271405,0.546064,0.318538,9.886641,0.607212,0.084594,-0.170164,-4.211426,-4.943848,-119.232178
7.281496,0.525707,0.379611,10.030342,0.586854,0.145667,-0.026463,-7.141113,-1.861572,-135.864258
7.291586,0.224533,0.326321,10.093211,0.285680,0.092378,0.036407,-7.965088,-0.335693,-135.589600
7.301731,-0.022154,0.182620,10.074051,0.038993,-0.051323,0.017246,-5.981445,-0.030518,-123.107910
7.311828,-0.253872,-0.023950,10.024953,-0.192725,-0.257893,-0.031852,-4.791260,-1.098633,-114.807129
7.321925,-0.205373,-0.010778,10.047107,-0.144226,-0.244721,-0.009698,-4.119873,-1.373291,-107.788086
7.332021,0.209564,0.264051,9.983639,0.270711,0.030108,-0.073166,-3.814697,-1.373291,-99.365234
7.342117,-0.067659,0.325124,10.066267,-0.006512,0.091181,0.009463,-4.913330,-0.274658,-99.273682
7.352213,-0.035327,0.362247,10.045311,0.025821,0.128303,-0.011494,-3.753662,-2.166748,-99.945068
7.362309,-0.367635,0.326920,10.001003,-0.306488,0.092977,-0.055802,-3.295898,-3.356934,-99.060059
7.372405,-0.182021,-0.052092,10.099199,-0.120874,-0.286035,0.042394,-2.502441,-3.326416,-90.759277
7.382501,-0.286205,-0.349074,10.071057,-0.225058,-0.583017,0.014253,-2.319336,-2.746582,-84.167480
7.392598,-0.225132,-0.071252,10.064471,-0.163985,-0.305195,0.007666,-1.861572,-2.502441,-79.223633
7.402720,-0.079634,0.117356,10.142908,-0.018487,-0.116587,0.086103,-0.793457,-3.265381,-76.141357
7.412817,-0.014969,-0.111368,10.105186,0.046178,-0.345312,0.048382,-1.342773,-3.051758,-75.134277
7.422912,-0.155078,0.017963,10.063273,-0.093930,-0.215981,0.006469,-1.464844,-3.356934,-73.852539
7.433007,-0.089813,-0.017963,10.103390,-0.028666,-0.251906,0.046585,-1.403809,-3.448486,-73.333740
7.443104,-0.025148,-0.108375,10.115964,0.035999,-0.342318,0.059159,-1.007080,-3.601074,-72.296143
7.453199,-0.043110,-0.111967,10.097402,0.018037,-0.345910,0.040598,-1.068115,-3.387451,-72.113037
7.463295,-0.020358,-0.089214,10.051897,0.040789,-0.323158,-0.004908,-1.159668,-3.417969,-72.509766
7.473391,-0.034129,-0.165855,10.041119,0.027018,-0.399798,-0.015685,-1.342773,-3.295898,-73.730469
7.483488,-0.063468,-0.083826,10.063273,-0.002321,-0.317769,0.006469,-1.159668,-3.082275,-73.486328
7.493584,-0.001198,-0.107177,10.076446,0.059950,-0.341120,0.019641,-1.220703,-2.929688,-70.770264
7.503705,0.055085,-0.183219,10.095007,0.116233,-0.417162,0.038203,-0.701904,-3.143311,-69.152832
7.513801,0.086221,-0.100591,10.070458,0.147368,-0.334534,0.013654,-0.885010,-3.021240,-67.474365
7.523897,-0.026944,-0.068258,10.084828,0.034203,-0.302201,0.028024,-1.007080,-2.807617,-67.047119
7.533993,0.011376,-0.099393,10.056088,0.072523,-0.333337,-0.000716,-0.579834,-3.295898,-66.589355
7.544089,0.112566,0.000000,10.098600,0.173713,-0.233943,0.041795,-0.640869,-3.234863,-66.528320
7.554185,0.095202,0.002395,10.066866,0.156349,-0.231548,0.010061,-0.915527,-2.685547,-66.925049
7.564281,0.087418,0.075443,10.080637,0.148565,-0.158500,0.023833,-0.762939,-2.624512,-65.185547
7.574378,0.052092,0.020956,10.047706,0.113239,-0.212987,-0.009099,-0.885010,-2.380371,-62.927246
7.584473,-0.007784,-0.111368,10.042317,0.053363,-0.345312,-0.014488,-0.976562,-1.953125,-55.877686
7.594570,-0.035925,-0.204175,10.026749,0.025222,-0.438119,-0.030055,-0.854492,-1.800537,-51.025391
7.604690,0.100591,-0.074844,10.074051,0.161738,-0.308788,0.017246,-0.793457,-1.495361,-45.898438
7.614786,0.282612,0.191003,10.023755,0.343759,-0.042940,-0.033049,-1.129150,-1.403809,-45.074463
7.624881,0.166454,0.156874,10.090816,0.227601,-0.077069,0.034012,-1.068115,-1.342773,-44.708252
7.634979,0.165855,0.086819,10.062675,0.227002,-0.147124,0.005870,-1.586914,-0.946045,-43.609619
7.645076,0.216151,0.155078,10.080637,0.277298,-0.078866,0.023833,-1.678467,-0.976562,-42.449951
7.655172,0.268242,0.144899,10.063273,0.329389,-0.089045,0.006469,-2.044678,-1.281738,-40.405273
7.665269,0.257465,0.179626,10.071057,0.318612,-0.054317,0.014253,-2.349854,-1.007080,-39.978027
7.675365,0.331710,0.237706,10.007589,0.392857,0.003762,-0.049215,-1.373291,-1.831055,-39.154053
7.685461,0.357457,0.224533,10.085427,0.418604,-0.009410,0.028623,-1.159668,-1.953125,-39.062500
7.695557,0.335303,0.301772,10.061477,0.396450,0.067829,0.004673,-1.190186,-1.983643,-41.198730
7.705723,0.323926,0.314945,10.048903,0.385073,0.081002,-0.007901,-1.129150,-2.258301,-42.572021
7.715813,0.234712,0.346679,10.073452,0.295859,0.112736,0.016648,-1.342773,-2.258301,-43.182373
7.725904,0.299976,0.417332,10.033336,0.361123,0.183389,-0.023469,-0.366211,-2.899170,-42.327881
7.735994,0.241298,0.353864,10.022558,0.302445,0.119921,-0.034247,-0.427246,-2.746582,-42.663574
7.746084,0.056283,0.432301,10.064471,0.117430,0.198358,0.007666,-0.457764,-2.227783,-43.151855
7.756174,0.047900,0.384401,10.036928,0.109047,0.150457,-0.019876,-0.610352,-2.014160,-44.281006
7.766264,0.124541,0.394579,10.041119,0.185688,0.160636,-0.015685,-0.732422,-1.800537,-45.898438
7.776354,0.219743,0.378413,10.050699,0.280890,0.144470,-0.006105,-0.854492,-1.678467,-46.936035
7.786444,0.182021,0.228126,10.002799,0.243169,-0.005818,-0.054005,-1.037598,-1.586914,-48.095703
7.796533,0.023950,0.176034,10.035132,0.085097,-0.057909,-0.021673,-1.373291,-1.495361,-51.177979
7.806681,0.064067,0.265847,10.096205,0.125214,0.031904,0.039400,-1.159668,-1.647949,-52.246094
7.816777,0.178429,0.160466,10.045909,0.239576,-0.073477,-0.010895,-0.976562,-1.831055,-53.924561
7.826877,0.259860,0.107776,10.042317,0.321007,-0.126167,-0.014488,-1.098633,-1.647949,-55.328369
7.836973,0.282612,0.117955,10.061477,0.343759,-0.115989,0.004673,-1.129150,-1.800537,-59.600830
7.847069,0.253872,0.179626,10.026151,0.315019,-0.054317,-0.030654,-1.312256,-2.014160,-61.340332
7.857165,0.064067,0.174836,10.026151,0.125214,-0.059107,-0.030654,-0.549316,-2.807617,-61.676025
7.867260,0.104782,0.316741,10.051897,0.165929,0.082798,-0.004908,-0.091553,-2.838135,-58.654785
7.877355,0.246088,0.252076,10.062076,0.307235,0.018133,0.005271,-0.183105,-2.716064,-57.220459
7.887452,0.708327,0.432301,10.005793,0.769474,0.198358,-0.051012,0.457764,-2.868652,-63.232422
7.897548,0.544867,0.288600,10.038724,0.606014,0.054657,-0.018080,0.640869,-3.540039,-68.115234
7.907714,0.348475,0.153281,10.093211,0.409622,-0.080662,0.036407,0.701904,-3.875732,-74.188232
7.917804,0.007185,0.040715,10.066866,0.068332,-0.193228,0.010061,1.007080,-4.302979,-74.066162
7.927894,-0.073647,-0.138911,10.020762,-0.012500,-0.372854,-0.036043,0.061035,-3.601074,-73.547363
7.937984,0.172441,-0.049697,9.957892,0.233589,-0.283640,-0.098912,-0.213623,-3.631592,-73.181152
7.948073,0.094005,0.173040,10.063872,0.155152,-0.060903,0.007068,0.732422,-3.509521,-73.699951
7.958163,0.360450,0.285606,10.020163,0.421598,0.051663,-0.036642,0.091553,-3.753662,-73.577881
7.968252,0.341889,-0.146695,9.940529,0.403036,-0.380638,-0.116276,0.000000,-3.692627,-74.768066
7.978342,0.158071,0.062271,10.062675,0.219218,-0.171673,0.005870,-0.122070,-3.906250,-80.780029
7.988431,0.286804,0.123942,10.092612,0.347951,-0.110001,0.035808,-0.213623,-3.906250,-81.878662
7.998521,0.263452,0.122745,10.118958,0.324599,-0.111199,0.062153,1.037598,-4.364014,-83.221436
8.008667,0.432301,-0.115560,10.058483,0.493448,-0.349503,0.001679,0.854492,-4.547119,-83.618164
8.018763,0.443079,-0.316741,10.122550,0.504226,-0.550685,0.065746,1.312256,-4.699707,-85.083008
8.028858,0.473615,-0.113165,10.075847,0.534762,-0.347108,0.019043,3.662109,-6.195068,-88.684082
8.038955,0.410147,-0.106578,10.067465,0.471294,-0.340522,0.010660,4.913330,-6.683350,-88.806152
8.049048,0.170046,-0.178429,10.126741,0.231193,-0.412372,0.069937,5.798340,-7.141113,-84.167480
8.059148,0.238903,-0.068857,10.081236,0.300050,-0.302800,0.024431,5.493164,-6.744385,-81.359863
8.069243,0.304167,0.046703,10.077643,0.365315,-0.187240,0.020839,1.464844,-4.333496,-74.279785
8.079340,0.344883,0.210762,10.033336,0.406030,-0.023182,-0.023469,2.990723,-5.218506,-70.831299
8.089436,0.589774,0.562830,10.039922,0.650921,0.328886,-0.016883,3.967285,-5.615234,-67.596436
8.099533,0.382006,0.756227,9.978250,0.443153,0.522284,-0.078554,2.563477,-4.455566,-61.737061
8.109709,0.207169,0.747845,10.014175,0.268316,0.513902,-0.042629,1.678467,-4.058838,-57.342529
8.119799,-0.144300,0.635878,10.103989,-0.083153,0.401934,0.047184,3.814697,-5.035400,-45.806885
8.129888,-0.275427,0.657433,10.087224,-0.214280,0.423490,0.030419,8.117676,-7.293701,-39.672852
8.139977,-0.140707,1.069975,9.881252,-0.079560,0.836032,-0.175553,2.807617,-3.631592,-27.526855
8.150067,-0.617915,0.852028,10.097402,-0.556768,0.618085,0.040598,2.655029,-2.960205,-18.890381
8.160156,-0.389789,1.001118,9.995015,-0.328642,0.767175,-0.061789,4.211426,-3.265381,-11.657715
8.170267,-0.429307,0.792153,10.037527,-0.368160,0.558209,-0.019278,3.234863,-2.136230,-2.014160
8.180357,-0.294587,0.795745,10.038126,-0.233440,0.561802,-0.018679,3.265381,-2.014160,1.647949
8.190448,-0.001198,0.775388,10.030941,0.059950,0.541444,-0.025864,3.326416,-1.953125,6.591797
8.200537,0.107776,0.711321,9.998009,0.168923,0.477378,-0.058795,3.479004,-2.044678,7.385254
8.210684,0.181423,0.673000,10.078242,0.242570,0.439057,0.021438,-5.615234,3.662109,5.920410
8.220779,0.065264,0.315544,10.053094,0.126411,0.081601,-0.003710,-5.218506,3.234863,4.943848
8.230875,0.156275,0.517324,10.048903,0.217422,0.283381,-0.007901,-3.662109,2.288818,3.234863
8.240972,0.186213,0.437690,10.054292,0.247360,0.203747,-0.002513,-4.058838,2.685547,2.960205
8.251065,0.167651,0.374222,10.056088,0.228798,0.140279,-0.000716,-3.631592,2.410889,2.502441
8.261161,0.179626,0.378413,10.051897,0.240774,0.144470,-0.004908,-2.014160,1.373291,1.678467
8.271259,0.200583,0.406555,10.047107,0.261730,0.172611,-0.009698,-1.770020,1.220703,1.403809
8.281355,0.219144,0.422721,10.036329,0.280291,0.188778,-0.020475,-2.410889,1.678467,1.037598
8.291451,0.216749,0.418530,10.039922,0.277896,0.184586,-0.016883,-2.899170,2.044678,0.976562
8.301546,0.217947,0.410147,10.048903,0.279094,0.176204,-0.007901,-3.692627,2.563477,0.946045
8.311710,0.147892,0.305365,10.062076,0.209040,0.071422,0.005271,-2.899170,2.044678,0.946045
8.321800,0.172441,0.348475,10.057286,0.233589,0.114532,0.000481,-2.075195,1.556396,0.732422
8.331890,0.168849,0.343087,10.049502,0.229996,0.109143,-0.007303,-1.281738,0.976562,0.518799
8.341979,0.173639,0.346679,10.052496,0.234786,0.112736,-0.004309,-1.037598,0.762939,0.427246
8.352069,0.182021,0.344284,10.059681,0.243169,0.110341,0.002876,-0.671387,0.488281,0.366211
8.362159,0.180824,0.344284,10.050699,0.241971,0.110341,-0.006105,-0.518799,0.396729,0.305176
8.372247,0.183219,0.345482,10.047107,0.244366,0.111538,-0.009698,-0.274658,0.244141,0.183105
8.382336,0.182620,0.348475,10.048304,0.243767,0.114532,-0.008500,-0.152588,0.152588,0.152588
8.392425,0.188009,0.348475,10.050101,0.249156,0.114532,-0.006704,-0.030518,0.122070,0.122070
8.402515,0.193997,0.348475,10.048304,0.255144,0.114532,-0.008500,0.091553,0.030518,0.152588
8.412669,0.194595,0.347278,10.046508,0.255742,0.113335,-0.010296,0.183105,0.000000,0.152588
8.422766,0.185614,0.341889,10.051298,0.246761,0.107946,-0.005506,0.579834,-0.244141,0.091553
8.432863,0.185015,0.345482,10.051897,0.246162,0.111538,-0.004908,0.915527,-0.549316,0.091553
8.442959,0.204774,0.367635,10.057286,0.265921,0.133692,0.000481,1.312256,-0.823975,0.122070
8.453055,0.207169,0.380209,10.051298,0.268316,0.146266,-0.005506,1.220703,-0.762939,0.122070
8.463150,0.213755,0.384999,10.054292,0.274903,0.151056,-0.002513,0.671387,-0.366211,0.091553
8.473246,0.211959,0.392184,10.052496,0.273106,0.158241,-0.004309,0.366211,-0.152588,0.091553
8.483342,0.216749,0.390388,10.046508,0.277896,0.156445,-0.010296,0.122070,0.030518,0.091553
8.493438,0.208367,0.389789,10.049502,0.269514,0.155846,-0.007303,-0.335693,0.335693,0.122070
8.503535,0.205972,0.387394,10.046508,0.267119,0.153451,-0.010296,-0.518799,0.488281,0.122070
8.513696,0.198787,0.367037,10.048903,0.259934,0.133093,-0.007901,-0.946045,0.732422,0.213623
8.523787,0.188608,0.349074,10.047706,0.249755,0.115131,-0.009099,-0.762939,0.579834,0.213623
8.533877,0.197589,0.358055,10.051298,0.258736,0.124112,-0.005506,-0.488281,0.396729,0.183105
8.543967,0.193398,0.354463,10.055490,0.254545,0.120520,-0.001315,-0.366211,0.335693,0.213623
8.554056,0.196392,0.355660,10.055490,0.257539,0.121717,-0.001315,-0.335693,0.274658,0.183105
8.564145,0.196990,0.362845,10.047706,0.258137,0.128902,-0.009099,-0.183105,0.152588,0.213623
8.574235,0.189805,0.365240,10.047706,0.250952,0.131297,-0.009099,-0.152588,0.152588,0.213623
8.584325,0.183219,0.364642,10.049502,0.244366,0.130698,-0.007303,-0.122070,0.091553,0.183105
8.594414,0.183219,0.364043,10.052496,0.244366,0.130100,-0.004309,-0.091553,0.091553,0.183105
8.604503,0.189207,0.364642,10.050699,0.250354,0.130698,-0.006105,-0.030518,0.091553,0.183105
8.614649,0.181423,0.365240,10.044712,0.242570,0.131297,-0.012093,-0.030518,0.091553,0.244141
8.624746,0.183219,0.363444,10.045311,0.244366,0.129501,-0.011494,-0.030518,0.061035,0.244141
8.634844,0.190404,0.361049,10.049502,0.251551,0.127106,-0.007303,-0.030518,0.091553,0.274658
8.644941,0.180824,0.361049,10.054292,0.241971,0.127106,-0.002513,0.000000,0.061035,0.244141
8.655035,0.191602,0.356259,10.061477,0.252749,0.122316,0.004673,-0.030518,0.030518,0.274658
8.665130,0.188608,0.358654,10.058483,0.249755,0.124711,0.001679,0.000000,0.061035,0.274658
8.675226,0.185015,0.355062,10.050699,0.246162,0.121118,-0.006105,-0.030518,0.061035,0.305176
8.685320,0.182620,0.350870,10.045311,0.243767,0.116927,-0.011494,-0.030518,0.091553,0.305176
8.695416,0.183818,0.358055,10.050699,0.244965,0.124112,-0.006105,0.000000,0.061035,0.305176
8.705515,0.178429,0.350870,10.049502,0.239576,0.116927,-0.007303,-0.030518,0.061035,0.305176
8.715684,0.186812,0.355062,10.046508,0.247959,0.121118,-0.010296,-0.030518,0.061035,0.274658
8.725774,0.188009,0.355062,10.031539,0.249156,0.121118,-0.025265,0.000000,0.061035,0.274658
8.735863,0.191602,0.353265,10.033934,0.252749,0.119322,-0.022870,0.000000,0.091553,0.244141
8.745953,0.188009,0.353265,10.042317,0.249156,0.119322,-0.014488,0.030518,0.030518,0.213623
8.756042,0.188608,0.353864,10.045311,0.249755,0.119921,-0.011494,0.030518,0.061035,0.213623
8.766131,0.190404,0.352667,10.048903,0.251551,0.118723,-0.007901,0.030518,0.091553,0.183105
8.776221,0.185015,0.353265,10.046508,0.246162,0.119322,-0.010296,0.030518,0.061035,0.183105
8.786310,0.191003,0.347278,10.042317,0.252150,0.113335,-0.014488,0.030518,0.061035,0.183105
8.796400,0.198787,0.340692,10.054891,0.259934,0.106748,-0.001914,0.030518,0.061035,0.122070
8.806490,0.198188,0.338297,10.054891,0.259335,0.104353,-0.001914,0.030518,0.061035,0.122070
8.816636,0.191602,0.351469,10.041119,0.252749,0.117526,-0.015685,0.030518,0.030518,0.122070
8.826731,0.185015,0.349074,10.037527,0.246162,0.115131,-0.019278,0.061035,0.030518,0.122070
8.836828,0.182021,0.348475,10.039922,0.243169,0.114532,-0.016883,0.061035,0.030518,0.122070
8.846925,0.185614,0.349673,10.048304,0.246761,0.115730,-0.008500,0.000000,0.030518,0.122070
8.857020,0.185015,0.350272,10.047706,0.246162,0.116328,-0.009099,0.000000,0.000000,0.122070
8.867116,0.196392,0.358055,10.045311,0.257539,0.124112,-0.011494,0.030518,0.000000,0.122070
8.877214,0.192200,0.362247,10.044113,0.253347,0.128303,-0.012691,0.030518,0.000000,0.091553
8.887310,0.193997,0.355660,10.051298,0.255144,0.121717,-0.005506,0.061035,0.000000,0.061035
8.897406,0.192200,0.353265,10.054292,0.253347,0.119322,-0.002513,0.091553,0.030518,0.030518
8.907502,0.189207,0.355660,10.054292,0.250354,0.121717,-0.002513,0.152588,0.030518,0.030518
8.917622,0.192799,0.358654,10.054891,0.253946,0.124711,-0.001914,0.152588,0.030518,0.061035
8.927718,0.193398,0.364043,10.053693,0.254545,0.130100,-0.003111,0.152588,0.000000,0.091553
8.937814,0.197589,0.353864,10.056687,0.258736,0.119921,-0.000118,0.122070,0.000000,0.061035
8.947911,0.197589,0.352068,10.059082,0.258736,0.118125,0.002278,0.152588,0.030518,0.091553
8.958007,0.195194,0.357457,10.053094,0.256341,0.123513,-0.003710,0.183105,-0.030518,0.091553
8.968103,0.195793,0.360450,10.051298,0.256940,0.126507,-0.005506,0.152588,0.000000,0.091553
8.978196,0.194595,0.353265,10.040521,0.255742,0.119322,-0.016284,0.152588,0.030518,0.122070
8.988292,0.198188,0.357457,10.042317,0.259335,0.123513,-0.014488,0.152588,0.030518,0.122070
8.998389,0.197589,0.362845,10.046508,0.258736,0.128902,-0.010296,0.152588,0.030518,0.122070
9.008485,0.196990,0.367037,10.052496,0.258137,0.133093,-0.004309,0.122070,0.030518,0.122070
9.018605,0.199984,0.367037,10.050101,0.261131,0.133093,-0.006704,0.091553,0.030518,0.091553
9.028701,0.198188,0.366438,10.041119,0.259335,0.132495,-0.015685,0.061035,0.061035,0.091553
9.038799,0.196392,0.362247,10.044712,0.257539,0.128303,-0.012093,0.000000,0.091553,0.091553
9.048896,0.195194,0.356858,10.045909,0.256341,0.122915,-0.010895,0.000000,0.091553,0.061035
9.058991,0.196990,0.356259,10.048304,0.258137,0.122316,-0.008500,-0.030518,0.122070,0.091553
9.069088,0.191003,0.353265,10.045909,0.252150,0.119322,-0.010895,-0.061035,0.122070,0.091553
9.079182,0.186213,0.356259,10.047107,0.247360,0.122316,-0.009698,-0.061035,0.152588,0.122070
9.089277,0.186213,0.350272,10.051897,0.247360,0.116328,-0.004908,-0.061035,0.152588,0.122070
9.099373,0.186812,0.352068,10.055490,0.247959,0.118125,-0.001315,-0.030518,0.122070,0.122070
9.109469,0.187410,0.355062,10.055490,0.248557,0.121118,-0.001315,-0.030518,0.122070,0.152588
9.119591,0.189805,0.361648,10.049502,0.250952,0.127705,-0.007303,-0.030518,0.091553,0.183105
9.129687,0.186812,0.359253,10.046508,0.247959,0.125310,-0.010296,-0.030518,0.061035,0.213623
9.139783,0.193398,0.358654,10.053693,0.254545,0.124711,-0.003111,-0.030518,0.122070,0.244141
9.149880,0.192200,0.353265,10.052496,0.253347,0.119322,-0.004309,-0.030518,0.091553,0.244141
9.159977,0.199385,0.354463,10.047706,0.260532,0.120520,-0.009099,-0.030518,0.091553,0.244141
9.170074,0.193997,0.353265,10.036329,0.255144,0.119322,-0.020475,-0.030518,0.091553,0.213623
9.180170,0.191602,0.351469,10.029743,0.252749,0.117526,-0.027061,-0.030518,0.091553,0.183105
9.190267,0.190404,0.358654,10.041718,0.251551,0.124711,-0.015086,0.000000,0.061035,0.213623
9.200360,0.196990,0.363444,10.041718,0.258137,0.129501,-0.015086,0.000000,0.091553,0.244141
9.210456,0.194595,0.361648,10.040521,0.255742,0.127705,-0.016284,0.000000,0.091553,0.183105
9.220575,0.195194,0.361049,10.041119,0.256341,0.127106,-0.015685,-0.030518,0.061035,0.183105
9.230672,0.196990,0.358654,10.039323,0.258137,0.124711,-0.017481,-0.030518,0.061035,0.122070
9.240768,0.191003,0.361648,10.044113,0.252150,0.127705,-0.012691,-0.030518,0.061035,0.122070
9.250864,0.195194,0.361648,10.040521,0.256341,0.127705,-0.016284,0.000000,0.061035,0.122070
9.260959,0.189207,0.356858,10.034533,0.250354,0.122915,-0.022271,-0.030518,0.030518,0.152588
9.271055,0.188608,0.348475,10.034533,0.249755,0.114532,-0.022271,-0.061035,0.030518,0.152588
9.281152,0.186812,0.340093,10.035731,0.247959,0.106150,-0.021074,-0.030518,0.030518,0.152588
9.291248,0.186812,0.337099,10.044113,0.247959,0.103156,-0.012691,0.000000,0.030518,0.152588
9.301344,0.185015,0.344883,10.045311,0.246162,0.110940,-0.011494,0.030518,0.030518,0.122070
9.311440,0.189805,0.347877,10.037527,0.250952,0.113933,-0.019278,0.061035,0.061035,0.152588
9.321561,0.191003,0.347278,10.037527,0.252150,0.113335,-0.019278,0.030518,0.061035,0.152588
9.331652,0.191003,0.351469,10.035132,0.252150,0.117526,-0.021673,0.061035,0.030518,0.152588
9.341742,0.191602,0.346080,10.045909,0.252749,0.112137,-0.010895,0.061035,0.030518,0.122070
9.351838,0.191602,0.355660,10.046508,0.252749,0.121717,-0.010296,0.091553,0.030518,0.122070
9.361935,0.192200,0.359253,10.042317,0.253347,0.125310,-0.014488,0.061035,0.030518,0.122070
9.372031,0.187410,0.359852,10.043514,0.248557,0.125908,-0.013290,0.061035,0.000000,0.122070
9.382127,0.185614,0.358055,10.044113,0.246761,0.124112,-0.012691,0.091553,0.000000,0.122070
9.392219,0.184417,0.356259,10.050699,0.245564,0.122316,-0.006105,0.152588,0.000000,0.091553
9.402316,0.188009,0.359852,10.054292,0.249156,0.125908,-0.002513,0.152588,0.000000,0.091553
9.412413,0.189207,0.361648,10.053094,0.250354,0.127705,-0.003710,0.152588,0.000000,0.091553
9.422591,0.193398,0.355062,10.046508,0.254545,0.121118,-0.010296,0.152588,0.030518,0.061035
9.432681,0.190404,0.357457,10.042916,0.251551,0.123513,-0.013889,0.152588,0.030518,0.061035
9.442771,0.192799,0.361049,10.051897,0.253946,0.127106,-0.004908,0.122070,0.030518,0.061035
9.452860,0.191003,0.359852,10.053693,0.252150,0.125908,-0.003111,0.122070,0.000000,0.061035
9.462950,0.191003,0.351469,10.056088,0.252150,0.117526,-0.000716,0.122070,0.030518,0.122070
9.473040,0.189805,0.355062,10.053693,0.250952,0.121118,-0.003111,0.122070,0.030518,0.091553
9.483130,0.188608,0.350870,10.053693,0.249755,0.116927,-0.003111,0.122070,0.061035,0.061035
9.493220,0.198188,0.354463,10.062675,0.259335,0.120520,0.005870,0.091553,0.061035,0.061035
9.503312,0.203577,0.355062,10.056687,0.264724,0.121118,-0.000118,0.091553,0.061035,0.061035
9.513401,0.202978,0.357457,10.045311,0.264125,0.123513,-0.011494,0.030518,0.061035,0.091553
9.523549,0.195194,0.359253,10.040521,0.256341,0.125310,-0.016284,0.000000,0.061035,0.122070
9.533645,0.193398,0.353265,10.038126,0.254545,0.119322,-0.018679,0.000000,0.061035,0.122070
9.543742,0.192799,0.358654,10.045311,0.253946,0.124711,-0.011494,0.000000,0.061035,0.122070
9.553839,0.195793,0.352068,10.048304,0.256940,0.118125,-0.008500,0.030518,0.061035,0.122070
9.563935,0.194595,0.353864,10.054891,0.255742,0.119921,-0.001914,0.000000,0.030518,0.122070
9.574030,0.195194,0.349673,10.050699,0.256341,0.115730,-0.006105,0.000000,0.030518,0.152588
9.584126,0.190404,0.356858,10.055490,0.251551,0.122915,-0.001315,-0.030518,0.030518,0.122070
9.594223,0.189805,0.355660,10.062675,0.250952,0.121717,0.005870,-0.030518,0.030518,0.122070
9.604322,0.190404,0.359852,10.061477,0.251551,0.125908,0.004673,0.000000,0.000000,0.152588
9.614419,0.192200,0.359852,10.058483,0.253347,0.125908,0.001679,0.030518,0.000000,0.183105
9.624597,0.189805,0.359253,10.053094,0.250952,0.125310,-0.003710,0.030518,0.000000,0.183105
9.634687,0.188009,0.358055,10.054891,0.249156,0.124112,-0.001914,0.061035,0.061035,0.183105
9.644777,0.189207,0.359852,10.061477,0.250354,0.125908,0.004673,0.061035,0.030518,0.122070
9.654867,0.190404,0.357457,10.048903,0.251551,0.123513,-0.007901,0.000000,0.030518,0.122070
9.664957,0.192200,0.351469,10.050699,0.253347,0.117526,-0.006105,-0.030518,0.061035,0.122070
9.675047,0.189805,0.349074,10.043514,0.250952,0.115131,-0.013290,-0.030518,0.030518,0.122070
9.685137,0.192200,0.353864,10.050101,0.253347,0.119921,-0.006704,-0.061035,0.061035,0.122070
9.695227,0.196990,0.349074,10.055490,0.258137,0.115131,-0.001315,0.000000,0.030518,0.152588
9.705317,0.193997,0.357457,10.057286,0.255144,0.123513,0.000481,0.000000,0.000000,0.122070
9.715407,0.191003,0.360450,10.053693,0.252150,0.126507,-0.003111,-0.030518,0.000000,0.122070
9.725555,0.200583,0.355062,10.045909,0.261730,0.121118,-0.010895,-0.030518,0.091553,0.152588
9.735651,0.210163,0.355062,10.051897,0.271310,0.121118,-0.004908,0.000000,0.091553,0.152588
9.745748,0.204175,0.357457,10.047107,0.265323,0.123513,-0.009698,0.000000,0.061035,0.183105
9.755844,0.202978,0.353265,10.047706,0.264125,0.119322,-0.009099,0.000000,0.030518,0.213623
9.765941,0.196392,0.354463,10.045311,0.257539,0.120520,-0.011494,0.000000,0.061035,0.213623
9.776036,0.193997,0.361049,10.042916,0.255144,0.127106,-0.013889,-0.030518,0.061035,0.213623
9.786133,0.198787,0.362845,10.048903,0.259934,0.128902,-0.007901,-0.030518,0.061035,0.213623
9.796229,0.192200,0.358055,10.053693,0.253347,0.124112,-0.003111,0.000000,0.061035,0.244141
9.806325,0.201780,0.353864,10.050699,0.262927,0.119921,-0.006105,0.030518,0.061035,0.244141
9.816421,0.194595,0.358055,10.047706,0.255742,0.124112,-0.009099,0.030518,0.061035,0.213623
9.826544,0.187410,0.354463,10.048903,0.248557,0.120520,-0.007901,0.000000,0.061035,0.213623
9.836641,0.182620,0.354463,10.053094,0.243767,0.120520,-0.003710,0.000000,0.061035,0.183105
9.846738,0.185614,0.348475,10.055490,0.246761,0.114532,-0.001315,0.000000,0.030518,0.122070
9.856834,0.177231,0.349074,10.052496,0.238379,0.115131,-0.004309,-0.030518,0.061035,0.152588
9.866930,0.183818,0.352068,10.054292,0.244965,0.118125,-0.002513,0.000000,0.030518,0.152588
9.877026,0.188009,0.349673,10.047706,0.249156,0.115730,-0.009099,-0.030518,0.030518,0.183105
9.887123,0.191602,0.356259,10.048903,0.252749,0.122316,-0.007901,0.000000,0.000000,0.183105
9.897220,0.188608,0.359852,10.048903,0.249755,0.125908,-0.007901,0.000000,0.000000,0.152588
9.907316,0.191602,0.356858,10.050101,0.252749,0.122915,-0.006704,0.000000,0.061035,0.183105
9.917412,0.193997,0.353864,10.052496,0.255144,0.119921,-0.004309,0.030518,0.030518,0.213623
9.927535,0.189207,0.347877,10.050101,0.250354,0.113933,-0.006704,0.030518,0.030518,0.213623
9.937631,0.193398,0.352667,10.053693,0.254545,0.118723,-0.003111,0.030518,0.030518,0.213623
9.947727,0.188608,0.356858,10.050101,0.249755,0.122915,-0.006704,0.030518,0.061035,0.213623
9.957823,0.190404,0.354463,10.050699,0.251551,0.120520,-0.006105,0.152588,-0.030518,0.183105
9.967920,0.193398,0.348475,10.044113,0.254545,0.114532,-0.012691,0.183105,0.000000,0.213623
9.978017,0.188009,0.352068,10.046508,0.249156,0.118125,-0.010296,0.396729,0.000000,0.122070
9.988112,0.186812,0.359253,10.054292,0.247959,0.125310,-0.002513,0.488281,-0.061035,0.122070
9.998206,0.193398,0.355062,10.051897,0.254545,0.121118,-0.004908,0.640869,-0.091553,0.122070
10.008301,0.189207,0.362845,10.054292,0.250354,0.128902,-0.002513,0.701904,-0.091553,0.091553
10.018397,0.189805,0.361648,10.054891,0.250952,0.127705,-0.001914,0.793457,-0.091553,0.091553
10.028519,0.180824,0.356858,10.056088,0.241971,0.122915,-0.000716,1.220703,-0.305176,0.061035
10.038616,0.180225,0.349074,10.063273,0.241372,0.115131,0.006469,1.556396,-0.518799,0.061035
10.048712,0.172441,0.340692,10.057286,0.233589,0.106748,0.000481,2.441406,-1.068115,-0.061035
10.058809,0.181423,0.342488,10.046508,0.242570,0.108545,-0.010296,3.021240,-1.464844,-0.091553
10.068905,0.191003,0.358654,10.039922,0.252150,0.124711,-0.016883,3.997803,-1.922607,-0.061035
10.079002,0.237706,0.438887,10.029144,0.298853,0.204944,-0.027660,3.356934,-1.434326,-0.061035
10.089110,0.222138,0.414937,10.040521,0.283285,0.180994,-0.016284,2.716064,-0.976562,0.000000
10.099219,0.231119,0.432301,10.032737,0.292266,0.198358,-0.024068,1.800537,-0.457764,0.000000
10.109338,0.229922,0.442480,10.030342,0.291069,0.208537,-0.026463,1.251221,-0.152588,0.000000
10.119452,0.241298,0.460443,10.020163,0.302445,0.226499,-0.036642,-0.305176,0.762939,0.061035
10.129717,0.235909,0.461640,10.014175,0.297057,0.227697,-0.042629,-1.129150,1.342773,0.122070
10.139822,0.211959,0.459844,10.013577,0.273106,0.225900,-0.043228,-1.251221,1.800537,0.579834
10.149970,0.152682,0.478405,10.003997,0.213830,0.244462,-0.052808,0.213623,1.251221,0.885010
10.160087,0.126936,0.544867,10.007589,0.188083,0.310924,-0.049215,2.288818,0.518799,2.593994
10.170207,0.100591,0.496368,10.041119,0.161738,0.262425,-0.015685,3.875732,-0.457764,3.662109
10.180321,0.148491,0.649050,10.017169,0.209638,0.415107,-0.039635,5.004883,-1.190186,4.455566
10.190423,-0.026345,0.687969,10.026151,0.034802,0.454026,-0.030654,5.676270,-1.312256,7.690430
10.200535,-0.107776,0.696951,10.023755,-0.046629,0.463007,-0.033049,6.805420,-2.136230,9.521484
10.210656,0.158071,0.761616,9.947714,0.219218,0.527673,-0.109091,4.333496,-0.366211,13.549805
10.220782,0.134121,0.549657,9.998009,0.195268,0.315714,-0.058795,2.288818,1.129150,14.709473
10.230885,0.162263,0.410746,10.034533,0.223410,0.176803,-0.022271,1.464844,1.525879,15.167236
10.240972,0.046104,0.637674,9.997410,0.107251,0.403731,-0.059394,1.373291,1.586914,15.686035
10.251040,-0.085622,0.593965,10.050699,-0.024475,0.360022,-0.006105,0.946045,1.739502,16.906738
10.261108,0.085622,0.540077,9.991423,0.146769,0.306134,-0.065382,3.631592,0.091553,18.768311
10.271175,0.164658,0.383802,10.053094,0.225805,0.149859,-0.003710,2.960205,0.488281,17.791748
10.281242,0.109572,0.452659,10.029144,0.170719,0.218715,-0.027660,3.601074,-0.183105,13.641357
10.291309,0.129331,0.611329,10.019564,0.190478,0.377385,-0.037240,3.173828,-0.213623,11.993408
10.301383,0.146695,0.716710,9.996213,0.207842,0.482766,-0.060592,1.922607,0.396729,8.850098
10.311449,0.095801,0.680186,10.041119,0.156948,0.446242,-0.015685,3.784180,-0.701904,7.293701
10.321516,0.156275,0.566422,10.019564,0.217422,0.332479,-0.037240,4.455566,-1.220703,5.310059
10.331583,0.133522,0.774190,9.938134,0.194669,0.540247,-0.118671,2.441406,0.091553,1.190186
10.341648,0.002395,0.660427,10.021360,0.063542,0.426483,-0.035444,2.838135,0.183105,-0.183105
10.351714,0.094603,0.584385,10.020762,0.155750,0.350442,-0.036043,5.340576,-0.305176,-2.410889
10.361780,0.109572,0.609532,9.990824,0.170719,0.375589,-0.065981,5.798340,-0.091553,-2.990723
10.371849,0.026345,0.726888,9.959689,0.087492,0.492945,-0.097116,4.272461,0.885010,-6.347656
10.381916,0.305365,0.576601,10.059082,0.366512,0.342658,0.002278,2.258301,0.610352,-10.131836
10.391983,0.517324,0.724493,10.100396,0.578471,0.490550,0.043592,0.030518,0.396729,-12.847900
10.402049,0.371228,1.015488,9.986034,0.432375,0.781545,-0.070771,-0.183105,-0.091553,-11.657715
10.412116,0.252675,1.199306,10.026151,0.313822,0.965363,-0.030654,-0.427246,0.000000,-9.857178
10.422182,0.189805,1.320255,9.961485,0.250952,1.086311,-0.095320,-2.105713,0.549316,-4.974365
10.432247,0.119152,1.357976,9.917177,0.180299,1.124033,-0.139627,-3.265381,1.220703,-2.319336
10.442314,0.035327,1.334625,9.991423,0.096474,1.100681,-0.065382,-3.906250,1.678467,0.061035
10.452380,-0.047900,1.163979,10.047107,0.013247,0.930036,-0.009698,-4.821777,2.166748,0.732422
10.462445,0.059875,1.121468,9.919572,0.121023,0.887525,-0.137232,-3.417969,1.770020,1.892090
10.472513,-0.062271,0.971779,10.077045,-0.001123,0.737836,0.020240,-4.791260,3.356934,4.455566
10.482580,-0.020358,1.011896,9.821975,0.040789,0.777952,-0.234829,-2.593994,2.227783,5.157471
10.492648,0.113165,0.916095,10.035731,0.174312,0.682152,-0.021074,-4.058838,3.326416,4.486084
10.502714,0.135319,0.936453,10.102791,0.196466,0.702509,0.045987,-3.845215,2.868652,4.119873
10.512779,0.396376,1.246608,9.956096,0.457523,1.012664,-0.100708,-10.559082,8.056641,5.096436
10.522845,0.413740,1.340612,9.983639,0.474887,1.106669,-0.073166,-6.072998,4.028320,3.875732
10.532911,0.549657,1.450783,9.996812,0.610804,1.216840,-0.059993,-4.272461,2.807617,0.793457
10.542978,0.651445,1.358575,9.922566,0.712592,1.124632,-0.134239,-1.953125,0.823975,-4.608154
10.553048,0.583786,1.394500,9.945917,0.644933,1.160557,-0.110887,-1.861572,0.183105,-6.317139
10.563113,0.575403,1.108295,9.954899,0.636551,0.874352,-0.101906,-3.082275,1.007080,-7.080078
10.573178,0.696352,1.160387,9.976454,0.757499,0.926444,-0.080351,-3.326416,1.159668,-7.873535
10.583243,0.665815,1.070574,9.883048,0.726963,0.836630,-0.173756,-2.105713,0.976562,-7.995605
10.593308,0.496368,0.996927,9.925560,0.557515,0.762984,-0.131245,-0.915527,1.037598,-6.835938
10.603380,0.602946,1.022673,9.876462,0.664093,0.788730,-0.180343,-1.586914,1.220703,-5.126953
10.613446,0.449665,0.751437,10.066267,0.510812,0.517494,0.009463,-4.943848,4.241943,-0.885010
10.623511,0.459245,0.892744,9.884844,0.520392,0.658800,-0.171960,-3.784180,3.448486,0.122070
10.633576,0.100591,0.860411,10.043514,0.161738,0.626468,-0.013290,-2.380371,1.647949,1.647949
10.643640,-0.025746,0.852627,10.078841,0.035401,0.618684,0.022036,-1.953125,1.251221,2.593994
10.653704,-0.022154,0.961002,9.959689,0.038993,0.727058,-0.097116,0.122070,0.579834,13.916016
10.663770,0.378413,1.248404,9.910591,0.439560,1.014461,-0.146214,0.823975,0.946045,21.209717
10.673835,0.564626,1.198707,9.996812,0.625773,0.964764,-0.059993,0.671387,1.770020,26.611328
10.683900,0.381407,0.963397,10.103989,0.442554,0.729453,0.047184,1.892090,2.593994,29.693604
10.693964,0.102986,0.956212,10.121353,0.164133,0.722268,0.064548,1.068115,1.678467,29.602051
10.704030,-0.195194,0.919687,10.032138,-0.134047,0.685744,-0.024666,-1.373291,1.129150,27.984619
10.714094,-0.002395,0.909509,9.943522,0.058752,0.675565,-0.113282,-0.274658,1.708984,29.907227
10.724165,0.052092,1.165177,9.893227,0.113239,0.931234,-0.163578,4.638672,3.021240,36.865234
10.734231,0.281415,0.951422,9.917776,0.342562,0.717478,-0.139029,3.448486,2.990723,39.886475
10.744296,0.096400,0.880170,9.902208,0.157547,0.646226,-0.154596,2.868652,3.082275,40.985107
10.754360,0.353265,0.683179,10.083032,0.414412,0.449236,0.026228,-3.082275,1.647949,39.581299
10.764424,0.741259,0.567620,10.037527,0.802406,0.333676,-0.019278,-2.838135,0.915527,33.416748
10.774553,0.688568,0.647853,9.933344,0.749715,0.413910,-0.123461,-1.831055,-0.152588,14.678955
10.784619,0.814905,0.913101,9.789044,0.876052,0.679158,-0.267761,-3.723145,-1.281738,5.828857
10.794685,0.758024,0.810714,9.799821,0.819171,0.576771,-0.256983,-1.495361,-0.518799,-6.805420
10.804781,0.346679,0.780776,10.170450,0.407826,0.546833,0.113646,0.335693,-0.549316,-9.918213
10.814847,0.134121,0.919089,10.081835,0.195268,0.685145,0.025030,1.312256,-0.762939,-11.260986
10.824911,-0.079634,0.738265,10.233320,-0.018487,0.504322,0.176515,-0.610352,-0.366211,-12.542725
10.834976,0.064666,0.865800,9.828561,0.125813,0.631856,-0.228243,-1.495361,-0.549316,-13.122559
10.845041,0.005389,0.689167,10.044712,0.066536,0.455224,-0.012093,-7.385254,0.091553,-14.617920
10.855114,0.391586,1.143622,9.765093,0.452733,0.909679,-0.291711,-6.347656,0.030518,-17.364502
10.865179,0.095202,0.913101,9.832753,0.156349,0.679158,-0.224052,-3.417969,-0.488281,-25.939941
10.875245,-0.093406,1.332230,9.961485,-0.032259,1.098286,-0.095320,0.000000,0.335693,-24.932861
10.885310,-0.082029,1.382525,9.793235,-0.020882,1.148582,-0.263570,-1.525879,0.640869,-21.911621
10.895375,-0.161664,1.187930,10.117760,-0.100517,0.953986,0.060955,-1.800537,-0.823975,-18.188477
10.905443,0.068857,1.075963,10.129136,0.130004,0.842019,0.072332,-0.549316,-1.617432,-16.204834
10.915509,0.281415,1.783092,9.974059,0.342562,1.549149,-0.082746,5.218506,-1.403809,-10.345459
10.925573,0.262255,1.431623,9.953701,0.323402,1.197680,-0.103103,3.082275,-1.586914,-6.988525
10.935639,0.327519,1.643582,9.753717,0.388666,1.409639,-0.303087,-1.464844,-1.159668,-4.699707
10.945704,0.143102,0.466430,9.759705,0.204250,0.232487,-0.297100,-9.155273,-3.295898,-3.997803
10.955770,0.141905,0.965792,10.140513,0.203052,0.731848,0.083708,-2.960205,-3.662109,-3.082275
10.965835,0.163460,1.093326,9.717193,0.224607,0.859383,-0.339612,6.347656,-1.953125,-1.831055
10.975905,-0.342488,0.966989,10.170450,-0.281341,0.733046,0.113646,5.126953,-2.441406,-2.929688
10.985970,-0.648452,0.620310,9.865085,-0.587304,0.386367,-0.191719,6.256104,-2.044678,-4.302979
10.996036,-0.849034,0.740061,10.036928,-0.787887,0.506118,-0.019876,5.401611,-1.068115,-9.033203
11.006101,-0.843047,0.791554,9.920171,-0.781900,0.557611,-0.136634,-2.624512,-1.037598,-19.042969
11.016167,-0.898132,0.644859,10.044113,-0.836985,0.410916,-0.012691,-4.516602,-1.556396,-23.223877
11.026232,-0.771196,0.293989,9.915381,-0.710049,0.060045,-0.141424,-6.500244,-1.007080,-23.956299
11.036298,-0.459245,0.574805,10.025552,-0.398098,0.340861,-0.031253,-0.762939,-0.976562,-26.184082
11.046375,-0.422721,0.760419,9.868079,-0.361574,0.526475,-0.188725,-3.662109,-1.007080,-24.688721
11.056441,0.176633,0.550256,9.850715,0.237780,0.316312,-0.206089,-2.899170,-0.457764,-21.667480
11.066508,0.118553,1.343606,10.006990,0.179701,1.109663,-0.049814,2.471924,0.122070,-16.723633
11.076574,0.329315,1.178350,9.886042,0.390462,0.944406,-0.170763,-1.403809,-0.488281,-6.835938
11.086640,0.370629,1.312471,9.859697,0.431776,1.078527,-0.197108,-3.540039,-1.281738,-4.699707
11.096707,0.707728,0.696352,9.990824,0.768875,0.462409,-0.065981,2.288818,-0.427246,-1.739502
11.106780,0.380808,1.477128,9.708810,0.441955,1.243185,-0.347994,1.831055,0.183105,-1.647949
11.116847,0.149689,1.351390,10.076446,0.210836,1.117447,0.019641,-1.647949,0.183105,-0.885010
11.126914,0.209564,0.839454,10.051897,0.270711,0.605511,-0.004908,-3.417969,-1.800537,-1.007080
11.136980,0.158670,1.093925,9.741143,0.219817,0.859982,-0.315661,-3.021240,0.701904,-1.434326
11.147047,0.053289,0.693358,9.790840,0.114436,0.459415,-0.265965,0.762939,1.556396,-4.760742
11.157113,-0.128732,0.328118,9.934541,-0.067585,0.094174,-0.122264,2.502441,1.617432,-6.805420
11.167179,-0.179626,0.397573,9.981843,-0.118479,0.163630,-0.074962,-2.166748,0.732422,-6.744385
11.177247,-0.002395,-0.182620,10.007589,0.058752,-0.416564,-0.049215,-5.828857,-0.061035,-6.225586
11.187313,0.051493,-0.307161,10.069860,0.112640,-0.541105,0.013055,-7.385254,-0.030518,-5.615234
11.197380,0.178429,-0.120948,9.795031,0.239576,-0.354892,-0.261773,2.899170,0.885010,-4.455566
11.207446,-0.005389,-0.449066,10.035731,0.055758,-0.683009,-0.021074,2.288818,0.854492,-0.732422
11.217512,0.114362,-0.379012,10.076446,0.175509,-0.612955,0.019641,4.852295,-0.244141,3.112793
11.227585,0.051493,-0.282014,9.978849,0.112640,-0.515957,-0.077956,4.608154,-0.122070,-0.122070
11.237652,-0.064666,-0.337099,10.005194,-0.003518,-0.571042,-0.051610,4.760742,-0.671387,-6.439209
11.247718,0.031135,-0.351469,10.064471,0.092282,-0.585412,0.007666,3.723145,-0.244141,-5.462646
11.257786,0.076042,-0.296384,10.162667,0.137189,-0.530327,0.105862,0.793457,-1.037598,-3.112793
11.267853,0.216749,-0.214953,10.118359,0.277896,-0.448896,0.061554,-4.180908,0.000000,3.143311
11.277919,0.262255,0.167651,9.989028,0.323402,-0.066292,-0.067777,-1.739502,0.305176,3.784180
11.287985,0.179028,0.062869,9.985435,0.240175,-0.171074,-0.071369,-4.211426,0.122070,3.326416
11.298051,-0.087418,0.183818,10.391391,-0.026271,-0.050126,0.334586,0.885010,2.044678,5.828857
11.308117,0.237706,0.623304,10.032737,0.298853,0.389361,-0.024068,5.798340,-0.183105,7.598877
11.318183,0.141905,0.501757,9.807006,0.203052,0.267813,-0.249798,3.936768,-0.457764,7.843018
11.328249,0.069456,0.144300,10.107581,0.130603,-0.089643,0.050777,1.678467,0.000000,7.476807
11.338317,0.145497,0.385598,10.008787,0.206645,0.151655,-0.048018,0.122070,-1.098633,2.593994
11.348383,0.189207,0.333506,10.058483,0.250354,0.099563,0.001679,-5.249023,-1.831055,-0.396729
11.358449,0.396974,0.521516,9.833950,0.458122,0.287572,-0.222854,-0.671387,-0.823975,-1.312256
11.368521,0.564027,0.483195,10.047706,0.625174,0.249252,-0.009099,-1.251221,-1.281738,-3.845215
11.378590,0.474813,0.416135,9.857302,0.535960,0.182191,-0.199503,-0.640869,-0.610352,-10.437012
11.388657,0.240101,0.005389,10.053693,0.301248,-0.228554,-0.003111,-1.190186,-0.732422,-10.589600
11.398724,0.406555,0.678988,10.186018,0.467702,0.445045,0.129214,1.007080,-0.274658,-10.040283
11.408790,0.498164,0.245490,9.955497,0.559311,0.011546,-0.101307,2.807617,-0.061035,-9.429932
11.418856,0.177830,0.162263,9.899813,0.238977,-0.071681,-0.156991,2.288818,0.457764,-8.209229
11.428927,0.282014,0.324525,9.957892,0.343161,0.090582,-0.098912,-0.213623,0.061035,-4.608154
11.438992,0.189805,0.196392,9.966275,0.250952,-0.037552,-0.090529,-1.800537,-0.793457,-4.669189
11.449057,0.267643,0.165855,9.960287,0.328791,-0.068088,-0.096517,2.502441,0.518799,-3.448486
11.459123,0.019160,-0.099992,10.007589,0.080307,-0.333935,-0.049215,1.647949,0.610352,-1.434326
11.469189,0.196392,-0.007185,9.912986,0.257539,-0.241128,-0.143819,0.366211,0.885010,-0.030518
11.479255,0.135917,0.136516,10.051897,0.197064,-0.097427,-0.004908,1.037598,1.708984,-0.061035
11.489326,-0.037123,0.116757,9.913585,0.024024,-0.117186,-0.143220,0.671387,1.495361,0.579834
11.499393,0.102387,-0.060474,10.047706,0.163534,-0.294418,-0.009099,-2.288818,-0.122070,-0.885010
11.509460,0.184417,0.196392,9.914782,0.245564,-0.037552,-0.142022,-1.007080,-0.091553,-1.159668
11.519526,0.331710,0.416733,9.800420,0.392857,0.182790,-0.256385,-1.861572,0.396729,1.312256
11.529596,0.261057,0.320334,9.823173,0.322204,0.086391,-0.233632,1.159668,0.457764,1.770020
11.539661,0.149090,0.340692,10.018367,0.210237,0.106748,-0.038438,0.183105,0.122070,2.075195
11.549728,0.073048,0.843646,9.864487,0.134195,0.609702,-0.192318,-1.861572,0.335693,-1.464844
11.559794,-0.185614,0.487386,9.880653,-0.124467,0.253443,-0.176151,-2.105713,-0.732422,-2.716064
11.569860,0.116158,1.013692,9.832753,0.177306,0.779749,-0.224052,3.387451,-0.335693,-4.486084
11.579927,0.163460,0.911305,10.004595,0.224607,0.677362,-0.052209,2.777100,-1.129150,-7.141113
11.589993,-0.043709,0.504152,10.175839,0.017438,0.270208,0.119035,1.342773,-0.610352,-6.408691
11.600059,-0.008383,0.655038,9.890832,0.052765,0.421095,-0.165973,-1.129150,-0.915527,-6.225586
11.610131,0.068258,0.543669,9.878857,0.129405,0.309726,-0.177948,-2.655029,-0.976562,-6.744385
11.620198,0.016765,0.650847,9.797426,0.077912,0.416903,-0.259378,2.838135,1.434326,-10.711670
11.630264,-0.065264,0.532293,9.935140,-0.004117,0.298350,-0.121665,2.838135,0.885010,-10.711670
11.640329,0.118553,0.667612,10.038126,0.179701,0.433668,-0.018679,2.136230,0.396729,-6.347656
11.650395,0.385598,1.089734,9.916578,0.446745,0.855791,-0.140226,2.990723,0.305176,-4.852295
11.660461,0.377814,1.210682,9.871073,0.438961,0.976739,-0.185732,-1.708984,-0.366211,-10.528564
11.670527,0.240101,1.219664,9.953701,0.301248,0.985720,-0.103103,-1.495361,-0.122070,-11.383057
11.680593,0.543071,1.428629,10.017169,0.604218,1.194686,-0.039635,-4.608154,-0.518799,-11.138916
11.690660,0.920286,1.936373,9.645941,0.981433,1.702430,-0.410863,-1.281738,-0.183105,-12.512207
11.700726,0.697549,1.237626,9.971065,0.758697,1.003683,-0.085739,-2.807617,-0.488281,-11.535645
11.710792,0.699944,1.257984,9.890832,0.761092,1.024041,-0.165973,-2.502441,-0.213623,-11.047363
11.720858,0.472418,1.074765,10.096804,0.533565,0.840822,0.039999,-5.187988,-1.098633,-9.826660
11.730930,0.413141,1.500480,9.992021,0.474288,1.266536,-0.064783,-0.762939,-0.061035,-3.967285
11.740997,0.220342,1.454974,9.954300,0.281489,1.221031,-0.102505,-1.800537,-0.335693,-0.946045
11.751063,0.008383,1.426833,9.821376,0.069530,1.192890,-0.235428,-4.547119,-1.190186,1.800537
11.761129,0.074844,1.584305,9.851314,0.135991,1.350362,-0.205490,-2.288818,0.091553,5.523682
11.771196,-0.010179,2.036365,9.644744,0.050968,1.802422,-0.412061,1.251221,0.946045,6.835938
11.781261,-0.441881,1.383723,10.092612,-0.380734,1.149779,0.035808,-0.610352,0.976562,9.582520
11.791328,-0.025746,1.241818,10.056088,0.035401,1.007874,-0.000716,-0.366211,-0.549316,11.230469
11.801395,0.276026,1.397494,10.052496,0.337173,1.163551,-0.004309,3.936768,0.183105,8.453369
11.811466,-0.380808,0.945434,9.808802,-0.319661,0.711491,-0.248002,2.471924,0.488281,3.387451
11.821532,-0.243693,0.581990,9.732162,-0.182546,0.348046,-0.324643,3.448486,-1.586914,-0.335693
11.831599,-0.465233,0.497565,9.901011,-0.404085,0.263622,-0.155794,4.730225,0.274658,-6.805420
11.841666,-0.119152,0.723296,9.763896,-0.058005,0.489353,-0.292909,6.591797,0.091553,-8.544922
11.851732,-0.199385,-0.050894,10.015373,-0.138238,-0.284837,-0.041432,5.645752,0.579834,-7.751465
11.861798,-0.095801,0.299377,9.883048,-0.034654,0.065434,-0.173756,5.920410,0.366211,-8.544922
11.871865,-0.048499,0.525108,9.824370,0.012648,0.291165,-0.232434,9.307861,0.488281,-13.885498
11.881932,-0.223336,0.352068,9.910591,-0.162188,0.118125,-0.146214,12.207031,0.671387,-17.791748
11.891999,-0.210762,0.178429,10.017768,-0.149615,-0.055514,-0.039037,10.589600,-0.610352,-18.981934
11.902065,-0.080832,0.211360,9.884844,-0.019685,-0.022583,-0.171960,10.314941,-0.976562,-18.066406
11.912131,-0.054487,0.208965,10.124346,0.006660,-0.024978,0.067542,10.986328,-1.586914,-18.066406
11.922198,-0.107776,0.248483,10.219548,-0.046629,0.014540,0.162744,1.983643,-1.281738,-19.134521
11.932265,0.062271,0.289797,10.190808,0.123418,0.055854,0.134004,4.058838,-2.410889,-19.439697
11.942331,0.108375,0.492177,9.886042,0.169522,0.258233,-0.170763,6.103516,0.213623,-15.106201
11.952398,-0.223934,0.046703,10.200987,-0.162787,-0.187240,0.144182,3.570557,1.098633,-11.779785
11.962464,-0.255668,0.082628,10.025552,-0.194521,-0.151315,-0.031253,2.044678,0.793457,-5.371094
11.972530,-0.019759,0.430505,9.711804,0.041388,0.196561,-0.345000,1.525879,1.617432,12.054443
11.982597,-0.059875,0.596360,9.879456,0.001272,0.362417,-0.177349,3.173828,1.983643,13.061523
11.992663,-0.468825,0.030536,10.250684,-0.407678,-0.203407,0.193879,4.211426,1.159668,9.216309
12.002729,-0.602946,0.036524,9.957294,-0.541799,-0.197419,-0.099511,2.746582,1.434326,10.437012
12.012795,-0.029339,0.346679,10.127939,0.031808,0.112736,0.071134,4.150391,1.617432,10.437012
12.022861,-0.556842,0.847837,9.821376,-0.495695,0.613894,-0.235428,0.030518,0.061035,5.371094
12.032928,-0.199984,0.235909,10.170450,-0.138837,0.001966,0.113646,1.525879,-2.349854,-2.410889
12.042994,-0.262255,0.920286,9.820778,-0.201108,0.686343,-0.236027,0.701904,-1.129150,-13.000488
12.053058,-0.238304,0.855621,9.967473,-0.177157,0.621677,-0.089332,-4.058838,-1.983643,-11.779785
12.063125,0.477806,1.114882,9.745334,0.538953,0.880938,-0.311470,-6.805420,-1.617432,-10.711670
12.073189,0.365839,1.427432,9.562115,0.426986,1.193488,-0.494689,0.640869,0.610352,-14.556885
12.083254,0.234712,1.198109,10.105186,0.295859,0.964165,0.048382,-1.281738,-0.183105,-11.444092
12.093319,-0.082029,0.676593,10.001003,-0.020882,0.442650,-0.055802,-5.493164,0.030518,-6.958008
12.103384,0.398771,1.086141,10.012978,0.459918,0.852198,-0.043827,-3.295898,1.464844,-4.577637
12.113455,0.646057,1.467548,9.922566,0.707204,1.233605,-0.134239,-0.122070,2.075195,0.122070
12.123520,0.418530,1.369951,9.796827,0.479677,1.136008,-0.259977,-0.854492,1.800537,2.624512
12.133587,0.502954,0.935255,9.890233,0.564101,0.701312,-0.166571,0.823975,0.823975,9.490967
12.143651,0.287402,1.301693,10.009385,0.348549,1.067750,-0.047419,1.220703,0.244141,12.084961
12.153716,0.337698,1.265768,9.875264,0.398845,1.031825,-0.181540,-3.997803,-0.885010,15.441895
12.163781,0.064666,0.862806,10.008188,0.125813,0.628863,-0.048617,-8.117676,-0.854492,13.671875
12.173846,0.240101,0.886157,10.039323,0.301248,0.652214,-0.017481,-0.976562,-1.098633,12.420654
12.183911,-0.130529,1.319057,9.993818,-0.069381,1.085114,-0.062987,3.967285,3.356934,17.761230
12.193976,-0.258063,1.156196,9.961485,-0.196916,0.922252,-0.095320,0.579834,2.227783,20.202637
12.204042,-0.240699,0.648452,9.699230,-0.179552,0.414508,-0.357574,-7.385254,1.434326,16.082764
12.214108,0.181423,1.208287,9.804012,0.242570,0.974344,-0.252792,1.159668,0.610352,8.789062
12.224173,0.048499,1.481320,9.715995,0.109646,1.247376,-0.340809,4.486084,1.068115,1.434326
12.234290,-0.617316,0.553848,9.991423,-0.556169,0.319905,-0.065382,-1.037598,0.701904,-0.854492
12.244356,-0.580193,0.464035,9.933942,-0.519046,0.230092,-0.122862,-2.563477,1.007080,-2.929688
12.254423,-0.162263,0.997526,9.977651,-0.101115,0.763582,-0.079153,-3.875732,0.915527,-3.173828
12.264488,-0.133522,0.598156,9.962682,-0.072375,0.364213,-0.094122,-3.479004,0.640869,-3.906250
12.274554,-0.092807,0.828078,10.122550,-0.031660,0.594135,0.065746,0.854492,0.488281,-6.896973
12.284619,-0.050295,0.395178,9.655521,0.010852,0.161235,-0.401283,-4.089355,-0.640869,-8.728027
12.294685,-0.029339,0.933459,9.873468,0.031808,0.699516,-0.183336,2.807617,-0.274658,-5.737305
12.304750,-0.247286,0.850232,10.072255,-0.186139,0.616289,0.015450,1.007080,-1.800537,-6.744385
12.314816,0.062271,0.240101,9.923763,0.123418,0.006157,-0.133041,7.507324,0.885010,-9.857178
12.324881,-0.183219,0.663420,9.976454,-0.122072,0.429477,-0.080351,6.805420,-0.061035,-12.878418
12.334946,-0.191003,0.732277,9.727971,-0.129856,0.498334,-0.328834,4.028320,-0.640869,-13.061523
12.345011,0.137115,0.467029,9.875863,0.198262,0.233086,-0.180941,-1.129150,0.793457,-5.493164
12.355083,0.399968,0.905317,9.871073,0.461115,0.671374,-0.185732,-0.274658,0.915527,-3.601074
12.365148,0.444875,1.347797,9.833950,0.506022,1.113854,-0.222854,-0.640869,0.396729,-4.455566
12.375213,0.344883,0.798140,9.879456,0.406030,0.564197,-0.177349,-6.958008,-0.854492,-6.622314
12.385279,0.177830,0.647853,9.977053,0.238977,0.413910,-0.079752,-0.183105,-0.335693,-7.843018
12.395344,0.539478,0.671803,9.456735,0.600625,0.437860,-0.600070,0.244141,0.885010,-7.598877
12.405414,0.290396,0.468825,9.920770,0.351543,0.234882,-0.136035,1.220703,1.373291,-8.056641
12.415479,-0.261656,0.742456,9.673484,-0.200509,0.508513,-0.383321,5.157471,-1.129150,-6.622314
12.425544,0.021555,0.519120,9.907597,0.082702,0.285177,-0.149207,4.333496,-0.885010,-3.845215
12.435610,-0.096400,-0.009580,10.173444,-0.035252,-0.243523,0.116640,0.854492,0.030518,0.061035
12.445675,-0.255070,-0.067659,9.903406,-0.193922,-0.301603,-0.153399,1.831055,0.457764,-0.549316
12.455740,-0.099393,0.436492,9.798025,-0.038246,0.202549,-0.258780,3.540039,2.563477,-0.823975
12.465806,-0.153880,0.310155,10.136920,-0.092733,0.076212,0.080116,3.692627,2.319336,1.434326
12.475877,-0.066462,-0.073647,10.027947,-0.005315,-0.307590,-0.028858,1.373291,1.525879,1.281738
12.485945,-0.025148,-0.261656,10.222542,0.035999,-0.495599,0.165738,-1.708984,2.166748,1.129150
12.496011,0.081431,-0.062271,9.870474,0.142578,-0.296214,-0.186330,-1.129150,1.678467,5.920410
12.506076,0.538281,0.438887,10.060878,0.599428,0.204944,0.004074,1.464844,1.739502,6.195068
12.516142,0.433499,0.062271,9.933344,0.494646,-0.171673,-0.123461,3.509521,1.281738,3.723145
12.526207,0.101788,0.268242,10.048304,0.162935,0.034299,-0.008500,-2.014160,1.739502,-3.540039
12.536273,0.200583,1.145418,10.127340,0.261730,0.911475,0.070536,0.518799,-0.152588,-4.760742
12.546340,0.425715,0.950224,9.947115,0.486862,0.716281,-0.109690,1.678467,-0.213623,-3.204346
12.556405,0.441282,1.368155,10.037527,0.502429,1.134212,-0.019278,1.342773,0.854492,12.145996
12.566471,0.708327,1.159788,9.684261,0.769474,0.925845,-0.372543,-4.943848,-1.434326,14.282227
12.576537,0.520917,1.649570,9.778865,0.582064,1.415626,-0.277940,1.434326,-0.030518,11.901855
12.586604,0.107776,1.053809,10.035132,0.168923,0.819865,-0.021673,-0.030518,-0.152588,9.063721
12.596670,-0.102986,1.338816,10.095007,-0.041839,1.104873,0.038203,1.007080,-0.610352,4.852295
12.606743,0.270038,0.552651,9.870474,0.331186,0.318707,-0.186330,1.037598,0.701904,7.263184
12.616810,0.193997,0.627495,9.904005,0.255144,0.393552,-0.152800,-1.800537,1.373291,8.331299
12.626875,0.397573,0.530497,9.833950,0.458720,0.296554,-0.222854,-5.126953,-0.122070,6.011963
12.636941,0.418530,-0.062869,9.983040,0.479677,-0.296813,-0.073764,-6.713867,-0.671387,1.922607
12.647007,0.273032,-0.198188,10.012978,0.334179,-0.432131,-0.043827,0.030518,-0.518799,-6.286621
12.657073,0.227527,-0.360450,9.924362,0.288674,-0.594394,-0.132442,-1.281738,-1.342773,-8.178711
12.667139,0.252675,-0.590971,10.070458,0.313822,-0.824914,0.013654,0.854492,-0.579834,-6.286621
12.677205,0.413141,-0.583786,9.939930,0.474288,-0.817729,-0.116875,1.861572,-0.122070,-3.021240
