time,ax_raw,ay_raw,az_raw,ax,ay,az,gx,gy,gz
0.000938,-0.127535,-0.445474,10.060878,-0.001514,-0.000772,0.000567,0.030518,0.061035,0.061035
0.011037,-0.126936,-0.446072,10.065668,-0.000915,-0.001370,0.005357,0.030518,0.061035,0.030518
0.021137,-0.126337,-0.443677,10.063872,-0.000317,0.001025,0.003560,0.030518,0.061035,0.030518
0.031235,-0.125739,-0.440684,10.068063,0.000282,0.004018,0.007752,0.030518,0.091553,0.030518
0.041325,-0.124541,-0.438887,10.060280,0.001480,0.005815,-0.000032,0.030518,0.061035,0.000000
0.051416,-0.126337,-0.442480,10.059082,-0.000317,0.002222,-0.001230,0.030518,0.030518,0.061035
0.061505,-0.122745,-0.447869,10.059681,0.003276,-0.003167,-0.000631,0.030518,0.030518,0.061035
0.071596,-0.120350,-0.444875,10.057885,0.005671,-0.000173,-0.002427,0.000000,0.061035,0.061035
0.081686,-0.120350,-0.438289,10.068662,0.005671,0.006413,0.008350,0.000000,0.061035,0.030518
0.091776,-0.126337,-0.441282,10.068662,-0.000317,0.003420,0.008350,0.000000,0.061035,0.030518
0.101867,-0.131726,-0.438289,10.063872,-0.005705,0.006413,0.003560,0.000000,0.091553,0.030518
0.111958,-0.134121,-0.438289,10.060280,-0.008100,0.006413,-0.000032,0.000000,0.091553,0.000000
0.122048,-0.126337,-0.437690,10.059681,-0.000317,0.007012,-0.000631,0.061035,0.030518,0.061035
0.132138,-0.129331,-0.443677,10.062675,-0.003310,0.001025,0.002363,0.061035,0.000000,0.061035
0.142230,-0.131726,-0.447869,10.063872,-0.005705,-0.003167,0.003560,0.030518,0.061035,0.061035
0.152327,-0.131726,-0.445474,10.057885,-0.005705,-0.000772,-0.002427,0.030518,0.091553,0.030518
0.162424,-0.128732,-0.450264,10.054292,-0.002712,-0.005562,-0.006020,0.000000,0.061035,0.030518
0.172521,-0.120948,-0.447270,10.053094,0.005072,-0.002568,-0.007217,0.000000,0.061035,0.061035
0.182618,-0.118553,-0.447869,10.056687,0.007467,-0.003167,-0.003625,0.000000,0.061035,0.061035
0.192715,-0.121547,-0.456251,10.051897,0.004473,-0.011549,-0.008415,0.030518,0.091553,0.061035
0.202812,-0.122146,-0.452659,10.056088,0.003875,-0.007957,-0.004223,0.000000,0.091553,0.030518
0.212909,-0.118553,-0.450862,10.056088,0.007467,-0.006160,-0.004223,0.000000,0.030518,0.061035
0.223006,-0.119751,-0.450862,10.060280,0.006270,-0.006160,-0.000032,0.030518,0.030518,0.000000
0.233104,-0.124541,-0.449665,10.062675,0.001480,-0.004963,0.002363,0.030518,0.030518,0.000000
0.243202,-0.125140,-0.447270,10.062675,0.000881,-0.002568,0.002363,0.030518,0.061035,0.030518
0.253299,-0.129331,-0.445474,10.059082,-0.003310,-0.000772,-0.001230,0.000000,0.061035,0.000000
0.263396,-0.127535,-0.446671,10.056088,-0.001514,-0.001969,-0.004223,0.000000,0.030518,-0.030518
0.273492,-0.127535,-0.447869,10.056687,-0.001514,-0.003167,-0.003625,0.030518,0.091553,0.000000
0.283590,-0.127535,-0.451461,10.060878,-0.001514,-0.006759,0.000567,0.061035,0.061035,0.000000
0.293686,-0.129331,-0.444276,10.065668,-0.003310,0.000426,0.005357,0.061035,0.030518,0.000000
0.303783,-0.132325,-0.447869,10.065668,-0.006304,-0.003167,0.005357,0.030518,0.030518,0.030518
0.313879,-0.129331,-0.458646,10.057286,-0.003310,-0.013944,-0.003026,0.000000,0.030518,0.000000
0.323976,-0.130529,-0.457449,10.053693,-0.004508,-0.012747,-0.006618,0.030518,0.000000,0.030518
0.334072,-0.129930,-0.452659,10.063273,-0.003909,-0.007957,0.002962,0.061035,0.000000,0.030518
0.344169,-0.130529,-0.448467,10.062076,-0.004508,-0.003765,0.001764,0.061035,0.030518,0.030518
0.354267,-0.128732,-0.449066,10.055490,-0.002712,-0.004364,-0.004822,0.000000,0.061035,0.061035
0.364363,-0.125739,-0.447270,10.048304,0.000282,-0.002568,-0.012007,0.000000,0.061035,0.061035
0.374460,-0.123942,-0.449066,10.045311,0.002078,-0.004364,-0.015001,0.000000,0.061035,0.030518
0.384554,-0.122146,-0.440684,10.047107,0.003875,0.004018,-0.013205,0.030518,0.061035,0.000000
0.394650,-0.120948,-0.441881,10.051897,0.005072,0.002821,-0.008415,0.061035,0.061035,0.030518
0.404747,-0.114362,-0.439486,10.051897,0.011659,0.005216,-0.008415,0.030518,0.000000,0.000000
0.414844,-0.118553,-0.446671,10.048304,0.007467,-0.001969,-0.012007,0.030518,0.000000,0.000000
0.424942,-0.114362,-0.446072,10.048903,0.011659,-0.001370,-0.011409,0.061035,0.030518,0.030518
0.435039,-0.116757,-0.441881,10.065070,0.009263,0.002821,0.004758,0.061035,0.030518,0.030518
0.445136,-0.112566,-0.438887,10.063273,0.013455,0.005815,0.002962,0.030518,0.030518,0.000000
0.455233,-0.111368,-0.440085,10.059082,0.014652,0.004617,-0.001230,-0.030518,0.000000,0.061035
0.465330,-0.111967,-0.437690,10.058483,0.014054,0.007012,-0.001828,-0.030518,0.000000,0.061035
0.475426,-0.120350,-0.442480,10.066866,0.005671,0.002222,0.006554,-0.030518,0.030518,0.030518
0.485523,-0.123344,-0.436492,10.069261,0.002677,0.008210,0.008949,-0.030518,0.061035,0.030518
0.495620,-0.125140,-0.435295,10.068063,0.000881,0.009407,0.007752,0.000000,0.030518,0.030518
0.505717,-0.121547,-0.434097,10.059681,0.004473,0.010605,-0.000631,-0.030518,0.000000,0.030518
0.515813,-0.116158,-0.435295,10.057885,0.009862,0.009407,-0.002427,0.030518,0.000000,0.061035
0.525910,-0.117955,-0.437690,10.054891,0.008066,0.007012,-0.005421,0.000000,0.000000,0.061035
0.536006,-0.119751,-0.439486,10.054292,0.006270,0.005216,-0.006020,0.030518,0.000000,0.030518
0.546104,-0.122745,-0.439486,10.055490,0.003276,0.005216,-0.004822,0.030518,0.030518,0.030518
0.556201,-0.120948,-0.441282,10.053094,0.005072,0.003420,-0.007217,0.000000,0.061035,0.000000
0.566298,-0.122146,-0.432900,10.059681,0.003875,0.011802,-0.000631,0.030518,0.030518,0.061035
0.576395,-0.120948,-0.432301,10.062675,0.005072,0.012401,0.002363,0.000000,0.030518,0.091553
0.586492,-0.116757,-0.437690,10.063273,0.009263,0.007012,0.002962,0.000000,0.030518,0.030518
0.596589,-0.118553,-0.443079,10.059681,0.007467,0.001623,-0.000631,-0.030518,0.061035,0.061035
0.606686,-0.118553,-0.446072,10.059082,0.007467,-0.001370,-0.001230,-0.030518,0.061035,0.061035
0.616783,-0.120350,-0.441881,10.057286,0.005671,0.002821,-0.003026,-0.030518,0.000000,0.061035
0.626880,-0.116158,-0.438289,10.061477,0.009862,0.006413,0.001165,-0.030518,0.000000,0.061035
0.636977,-0.119751,-0.446072,10.056088,0.006270,-0.001370,-0.004223,-0.030518,0.030518,0.000000
0.647074,-0.119152,-0.444276,10.053693,0.006868,0.000426,-0.006618,0.000000,0.061035,0.000000
0.657171,-0.117356,-0.445474,10.056088,0.008665,-0.000772,-0.004223,0.000000,0.030518,0.030518
0.667267,-0.116158,-0.443677,10.053094,0.009862,0.001025,-0.007217,0.030518,0.030518,0.030518
0.677363,-0.122146,-0.447270,10.056687,0.003875,-0.002568,-0.003625,0.030518,0.030518,0.030518
0.687460,-0.120948,-0.449066,10.059681,0.005072,-0.004364,-0.000631,0.030518,0.061035,0.030518
0.697557,-0.117955,-0.446671,10.062675,0.008066,-0.001969,0.002363,0.000000,0.061035,0.061035
0.707655,-0.120350,-0.447869,10.056687,0.005671,-0.003167,-0.003625,0.000000,0.061035,0.061035
0.717751,-0.119751,-0.447869,10.059082,0.006270,-0.003167,-0.001230,0.061035,0.061035,0.061035
0.727847,-0.113763,-0.453856,10.065668,0.012257,-0.009154,0.005357,0.030518,0.061035,0.122070
0.737939,-0.123344,-0.439486,10.071057,0.002677,0.005216,0.010745,0.030518,0.030518,0.122070
0.748030,-0.128134,-0.439486,10.069860,-0.002113,0.005216,0.009548,0.061035,0.030518,0.122070
0.758128,-0.125739,-0.441282,10.059082,0.000282,0.003420,-0.001230,0.030518,0.061035,0.061035
0.768225,-0.120350,-0.443677,10.057885,0.005671,0.001025,-0.002427,0.061035,0.061035,0.061035
0.778322,-0.122146,-0.436492,10.062675,0.003875,0.008210,0.002363,0.030518,0.091553,0.030518
0.788419,-0.123344,-0.438887,10.065668,0.002677,0.005815,0.005357,0.030518,0.061035,0.030518
0.798516,-0.120948,-0.437091,10.065070,0.005072,0.007611,0.004758,0.000000,0.030518,0.030518
0.808612,-0.121547,-0.437091,10.063273,0.004473,0.007611,0.002962,0.000000,0.030518,0.000000
0.818709,-0.121547,-0.442480,10.053094,0.004473,0.002222,-0.007217,-0.030518,0.061035,0.000000
0.828806,-0.120350,-0.440085,10.056687,0.005671,0.004617,-0.003625,0.000000,0.061035,0.000000
0.838902,-0.122745,-0.440684,10.060280,0.003276,0.004018,-0.000032,0.000000,0.061035,0.030518
0.849000,-0.120948,-0.438887,10.058483,0.005072,0.005815,-0.001828,-0.030518,0.061035,0.030518
0.859096,-0.122146,-0.438289,10.055490,0.003875,0.006413,-0.004822,-0.030518,0.030518,0.061035
0.869196,-0.128732,-0.438289,10.057885,-0.002712,0.006413,-0.002427,0.030518,0.091553,0.030518
0.879295,-0.129930,-0.440085,10.060878,-0.003909,0.004617,0.000567,0.030518,0.061035,0.030518
0.889391,-0.130529,-0.435894,10.055490,-0.004508,0.008808,-0.004822,0.030518,0.061035,0.061035
0.899489,-0.130529,-0.440085,10.053094,-0.004508,0.004617,-0.007217,0.061035,0.061035,0.061035
0.909586,-0.128732,-0.439486,10.051298,-0.002712,0.005216,-0.009014,0.061035,0.061035,0.061035
0.919684,-0.123344,-0.449066,10.053094,0.002677,-0.004364,-0.007217,0.030518,0.061035,0.000000
0.929782,-0.123344,-0.443079,10.059681,0.002677,0.001623,-0.000631,0.000000,0.061035,0.000000
0.939878,-0.131726,-0.439486,10.063273,-0.005705,0.005216,0.002962,0.030518,0.061035,0.030518
0.949975,-0.131127,-0.435295,10.057286,-0.005107,0.009407,-0.003026,0.061035,0.061035,0.061035
0.960073,-0.126936,-0.440085,10.055490,-0.000915,0.004617,-0.004822,0.122070,0.061035,0.030518
0.970169,-0.127535,-0.442480,10.051298,-0.001514,0.002222,-0.009014,0.091553,0.061035,0.030518
0.980267,-0.122146,-0.444875,10.059082,0.003875,-0.000173,-0.001230,0.122070,0.030518,0.030518
0.990364,-0.133522,-0.441282,10.050101,-0.007502,0.003420,-0.010211,0.122070,0.061035,0.061035
1.000461,-0.131127,-0.441881,10.054292,-0.005107,0.002821,-0.006020,0.091553,0.061035,0.091553
1.010558,-0.128732,-0.439486,10.049502,-0.002712,0.005216,-0.010810,0.091553,0.030518,0.061035
1.020655,-0.123344,-0.438887,10.053693,0.002677,0.005815,-0.006618,0.061035,0.061035,0.061035
1.030752,-0.128134,-0.438887,10.056088,-0.002113,0.005815,-0.004223,0.061035,0.091553,0.061035
1.040847,-0.126337,-0.441282,10.061477,-0.000317,0.003420,0.001165,0.091553,0.091553,0.030518
1.050945,-0.121547,-0.449066,10.054292,0.004473,-0.004364,-0.006020,0.091553,0.030518,0.030518
1.061042,-0.128134,-0.442480,10.054292,-0.002113,0.002222,-0.006020,0.061035,0.030518,-0.030518
1.071139,-0.126337,-0.444875,10.053094,-0.000317,-0.000173,-0.007217,0.061035,0.061035,-0.030518
1.081237,-0.127535,-0.441282,10.059082,-0.001514,0.003420,-0.001230,-0.030518,0.091553,0.030518
1.091334,-0.129930,-0.444276,10.063273,-0.003909,0.000426,0.002962,0.000000,0.091553,0.030518
1.101432,-0.120948,-0.452060,10.062076,0.005072,-0.007358,0.001764,0.000000,0.091553,0.030518
1.111528,-0.126337,-0.447869,10.059681,-0.000317,-0.003167,-0.000631,0.030518,0.091553,0.030518
1.121626,-0.125140,-0.444276,10.060280,0.000881,0.000426,-0.000032,0.061035,0.061035,0.000000
1.131724,-0.122745,-0.449665,10.071656,0.003276,-0.004963,0.011344,0.061035,0.061035,0.030518
1.141822,-0.122146,-0.444875,10.073452,0.003875,-0.000173,0.013140,0.061035,0.061035,0.000000
1.151919,-0.125140,-0.449066,10.061477,0.000881,-0.004364,0.001165,0.091553,0.030518,0.000000
1.162016,-0.129930,-0.443079,10.056687,-0.003909,0.001623,-0.003625,0.061035,0.030518,0.061035
1.172112,-0.131127,-0.446671,10.064471,-0.005107,-0.001969,0.004159,0.061035,0.061035,0.030518
1.182209,-0.129930,-0.444276,10.066866,-0.003909,0.000426,0.006554,0.091553,0.030518,0.030518
1.192306,-0.126936,-0.447270,10.067465,-0.000915,-0.002568,0.007153,0.091553,0.061035,0.000000
1.202403,-0.137714,-0.446671,10.066267,-0.011693,-0.001969,0.005955,0.061035,0.061035,0.000000
1.212500,-0.132924,-0.446671,10.066267,-0.006903,-0.001969,0.005955,0.061035,0.061035,0.030518
1.222598,-0.130529,-0.456850,10.065668,-0.004508,-0.012148,0.005357,0.000000,0.030518,0.000000
1.232696,-0.131726,-0.451461,10.062675,-0.005705,-0.006759,0.002363,0.000000,0.000000,0.030518
1.242793,-0.130529,-0.446072,10.062675,-0.004508,-0.001370,0.002363,0.000000,0.030518,0.030518
1.252891,-0.132325,-0.451461,10.062076,-0.006304,-0.006759,0.001764,0.000000,0.030518,0.000000
1.262988,-0.129930,-0.452060,10.063872,-0.003909,-0.007358,0.003560,0.030518,0.061035,0.030518
1.273085,-0.129930,-0.451461,10.061477,-0.003909,-0.006759,0.001165,0.061035,0.061035,0.000000
1.283211,-0.133522,-0.450862,10.065668,-0.007502,-0.006160,0.005357,0.030518,0.061035,0.000000
1.293309,-0.134720,-0.452659,10.066866,-0.008699,-0.007957,0.006554,0.030518,0.091553,0.000000
1.303406,-0.138312,-0.452659,10.063273,-0.012292,-0.007957,0.002962,0.030518,0.091553,0.000000
1.313504,-0.143102,-0.445474,10.063872,-0.017082,-0.000772,0.003560,0.061035,0.061035,0.030518
1.323600,-0.141306,-0.443677,10.067465,-0.015285,0.001025,0.007153,0.061035,0.061035,0.030518
1.333697,-0.135917,-0.449066,10.071656,-0.009897,-0.004364,0.011344,0.061035,0.030518,0.030518
1.343794,-0.128732,-0.446072,10.061477,-0.002712,-0.001370,0.001165,0.061035,0.061035,0.030518
1.353892,-0.126337,-0.443677,10.065668,-0.000317,0.001025,0.005357,0.061035,0.030518,0.030518
1.363988,-0.132924,-0.450264,10.056687,-0.006903,-0.005562,-0.003625,0.030518,0.030518,0.030518
1.374085,-0.131726,-0.449665,10.056088,-0.005705,-0.004963,-0.004223,0.000000,0.030518,0.030518
1.384183,-0.125739,-0.444276,10.069860,0.000282,0.000426,0.009548,0.030518,0.061035,0.030518
1.394280,-0.125739,-0.437091,10.069860,0.000282,0.007611,0.009548,0.000000,0.061035,0.061035
1.404379,-0.129331,-0.429906,10.057885,-0.003310,0.014796,-0.002427,0.061035,0.061035,0.091553
1.414475,-0.126337,-0.431104,10.053693,-0.000317,0.013598,-0.006618,0.000000,0.030518,0.061035
1.424572,-0.125140,-0.432301,10.059082,0.000881,0.012401,-0.001230,0.030518,0.030518,0.061035
1.434669,-0.129930,-0.432301,10.060280,-0.003909,0.012401,-0.000032,0.061035,0.030518,0.091553
1.444765,-0.129930,-0.435894,10.058483,-0.003909,0.008808,-0.001828,0.030518,0.030518,0.091553
1.454862,-0.129331,-0.437690,10.056687,-0.003310,0.007012,-0.003625,0.030518,0.000000,0.061035
1.464959,-0.128732,-0.443079,10.048903,-0.002712,0.001623,-0.011409,0.030518,0.030518,0.030518
1.475057,-0.128134,-0.437690,10.059082,-0.002113,0.007012,-0.001230,0.000000,0.061035,0.030518
1.485154,-0.123942,-0.438887,10.058483,0.002078,0.005815,-0.001828,0.030518,0.061035,0.000000
1.495252,-0.129331,-0.441881,10.056088,-0.003310,0.002821,-0.004223,0.061035,0.061035,0.000000
1.505348,-0.123344,-0.447270,10.059082,0.002677,-0.002568,-0.001230,0.061035,0.061035,-0.030518
1.515445,-0.116757,-0.448467,10.053693,0.009263,-0.003765,-0.006618,0.030518,0.091553,-0.030518
1.525543,-0.122745,-0.441282,10.054891,0.003276,0.003420,-0.005421,0.061035,0.091553,0.000000
1.535640,-0.119751,-0.447270,10.055490,0.006270,-0.002568,-0.004822,0.091553,0.061035,0.000000
1.545736,-0.123344,-0.444875,10.049502,0.002677,-0.000173,-0.010810,0.122070,0.061035,0.000000
1.555833,-0.126936,-0.453856,10.049502,-0.000915,-0.009154,-0.010810,0.152588,0.061035,-0.030518
1.565929,-0.125140,-0.455652,10.039922,0.000881,-0.010950,-0.020390,0.122070,0.091553,0.000000
1.576026,-0.122146,-0.443677,10.048903,0.003875,0.001025,-0.011409,0.152588,0.091553,0.030518
1.586122,-0.122146,-0.442480,10.044113,0.003875,0.002222,-0.016199,0.152588,0.122070,0.122070
1.596219,-0.122745,-0.441282,10.043514,0.003276,0.003420,-0.016797,0.152588,0.122070,0.091553
1.606313,-0.123344,-0.449665,10.042916,0.002677,-0.004963,-0.017396,0.152588,0.091553,0.122070
1.616408,-0.119751,-0.450264,10.029144,0.006270,-0.005562,-0.031167,0.305176,0.122070,0.122070
1.626506,-0.122745,-0.462239,10.043514,0.003276,-0.017537,-0.016797,0.396729,0.122070,0.030518
1.636603,-0.120948,-0.457449,10.042916,0.005072,-0.012747,-0.017396,0.549316,0.122070,-0.122070
1.646700,-0.126337,-0.460443,10.041119,-0.000317,-0.015741,-0.019192,0.610352,0.122070,-0.152588
1.656797,-0.135917,-0.453856,10.039922,-0.009897,-0.009154,-0.020390,0.640869,0.152588,-0.122070
1.666894,-0.745450,-0.540077,10.048304,-0.619429,-0.095375,-0.012007,0.549316,0.152588,0.671387
1.676988,-0.910107,-0.555046,10.057286,-0.784087,-0.110344,-0.003026,0.518799,0.152588,3.540039
1.687083,-0.295186,-0.431702,10.041718,-0.169165,0.013000,-0.018594,0.396729,0.061035,9.033203
1.697268,-0.150287,-0.376617,10.047706,-0.024267,0.068085,-0.012606,0.305176,0.061035,8.911133
1.707399,-0.207768,-0.338895,10.044712,-0.081747,0.105807,-0.015600,0.244141,0.122070,7.720947
1.717522,-0.174836,-0.350870,10.056088,-0.048816,0.093832,-0.004223,0.274658,0.122070,7.598877
1.727631,-0.328118,-0.283810,10.055490,-0.202097,0.160892,-0.004822,2.044678,0.122070,8.789062
1.737743,0.067061,-0.515528,10.068662,0.193081,-0.070826,0.008350,1.617432,0.152588,7.781982
1.747847,-0.034728,-0.483794,10.044113,0.091293,-0.039092,-0.016199,1.251221,0.183105,6.622314
1.757972,-0.028740,-0.460443,10.051897,0.097280,-0.015741,-0.008415,0.732422,0.122070,4.943848
1.768075,-0.040117,-0.451461,10.058483,0.085904,-0.006759,-0.001828,0.518799,0.091553,4.089355
1.778182,-0.344883,-0.508942,10.052496,-0.218862,-0.064240,-0.007816,0.274658,0.061035,2.990723
1.788274,-0.522713,-0.588576,10.055490,-0.396692,-0.143874,-0.004822,0.091553,-0.061035,3.021240
1.798379,-0.791554,-0.437091,10.041718,-0.665533,0.007611,-0.018594,-0.183105,0.061035,4.516602
1.808482,-0.489183,-0.490380,10.062675,-0.363162,-0.045678,0.002363,-0.213623,0.122070,5.676270
1.818597,-0.182021,-0.441282,10.052496,-0.056001,0.003420,-0.007816,-0.457764,0.122070,7.141113
1.828709,-0.022753,-0.405357,10.043514,0.103268,0.039345,-0.016797,-0.640869,0.061035,7.812500
1.838809,0.107776,-0.407752,10.054292,0.233797,0.036950,-0.006020,-0.762939,0.030518,7.354736
1.848912,-0.160466,-0.416135,10.059681,-0.034446,0.028567,-0.000631,-0.854492,0.030518,6.072998
1.858993,-0.117955,-0.419727,10.083032,0.008066,0.024975,0.022721,-0.671387,0.091553,5.462646
1.869060,-0.043110,-0.407752,10.015972,0.082910,0.036950,-0.044340,-0.579834,0.122070,3.936768
1.879127,-0.206570,-0.461041,10.072853,-0.080550,-0.016339,0.012542,-0.366211,0.091553,3.906250
1.889194,-0.325723,-0.441881,10.063872,-0.199702,0.002821,0.003560,-0.366211,0.183105,3.967285
1.899261,-0.323926,-0.416135,10.045909,-0.197906,0.028567,-0.014402,-0.335693,0.183105,5.493164
1.909326,-0.474813,-0.380808,10.030941,-0.348792,0.063894,-0.029371,-0.396729,0.152588,6.042480
1.919392,-0.397573,-0.311951,10.060280,-0.271553,0.132751,-0.000032,-0.640869,0.152588,6.530762
1.929458,-0.334105,-0.242496,10.049502,-0.208085,0.202206,-0.010810,-0.122070,0.183105,7.049561
1.939525,-0.234712,-0.349074,10.050101,-0.108691,0.095628,-0.010211,0.091553,0.183105,7.293701
1.949590,-0.235909,-0.491578,10.054292,-0.109889,-0.046876,-0.006020,0.091553,0.183105,7.080078
1.959657,-0.061073,-0.530497,9.999805,0.064948,-0.085795,-0.060506,0.091553,0.213623,6.713867
1.969723,-0.200583,-0.381407,10.033336,-0.074562,0.063295,-0.026976,-0.244141,0.030518,7.080078
1.979799,-0.318538,-0.280217,10.059681,-0.192517,0.164485,-0.000631,-0.396729,-0.091553,7.781982
1.989866,-0.229323,-0.326321,10.030342,-0.103302,0.118381,-0.029970,-0.183105,-0.274658,9.857178
1.999934,0.030536,-0.367037,10.078841,0.156557,0.077665,0.018529,-0.610352,-0.366211,10.284424
2.010000,0.211959,-0.372426,10.066267,0.337980,0.072276,0.005955,-0.122070,-0.244141,8.666992
2.020066,0.206570,-0.413740,10.011182,0.332591,0.030962,-0.049130,0.152588,-0.244141,7.812500
2.030133,0.188009,-0.526306,10.000404,0.314030,-0.081604,-0.059908,0.000000,-0.152588,7.263184
2.040199,-0.002994,-0.636476,10.036329,0.123027,-0.191774,-0.023982,-0.274658,-0.244141,6.378174
2.050265,-0.216749,-0.658630,10.065668,-0.090729,-0.213928,0.005357,-0.305176,-0.274658,6.500244
2.060332,-0.443677,-0.510139,10.054891,-0.317657,-0.065437,-0.005421,-0.091553,-0.305176,9.155273
2.070398,-0.413740,-0.452659,10.062076,-0.287719,-0.007957,0.001764,0.030518,-0.274658,11.199951
2.080463,-0.285007,-0.425116,10.046508,-0.158987,0.019586,-0.013804,0.213623,-0.335693,14.984131
2.090528,-0.285606,-0.483794,10.071057,-0.159585,-0.039092,0.010745,0.244141,-0.305176,16.967773
2.100602,-0.404160,-0.516725,10.086026,-0.278139,-0.072023,0.025714,0.152588,-0.427246,23.437500
2.110669,-0.583786,-0.528701,10.081236,-0.457765,-0.083999,0.020924,0.335693,-0.335693,26.824951
2.120735,-0.826282,-0.431104,10.077045,-0.700261,0.013598,0.016733,0.579834,-0.457764,31.677246
2.130800,-0.690364,-0.230521,10.011780,-0.564344,0.214181,-0.048531,0.335693,-0.610352,40.618896
2.140867,-0.559237,-0.307161,10.048304,-0.433216,0.137541,-0.012007,0.244141,-0.640869,40.130615
2.150932,-0.513732,-0.407752,10.063273,-0.387711,0.036950,0.002962,0.244141,-0.640869,29.296875
2.160998,-0.810714,-0.302371,10.108180,-0.684693,0.142331,0.047868,0.366211,-0.610352,23.590088
2.171064,-0.586780,-0.301772,10.096804,-0.460759,0.142930,0.036492,-0.518799,-0.915527,14.282227
2.181130,-0.375419,-0.274828,10.092612,-0.249399,0.169873,0.032301,-0.457764,-1.007080,11.230469
2.191196,-0.151485,-0.483794,10.129735,-0.025464,-0.039092,0.069423,0.000000,-1.007080,7.629395
2.201262,0.068258,-0.589175,10.080038,0.194279,-0.144473,0.019727,1.220703,-0.854492,-1.342773
2.211330,0.209564,-0.478405,10.046508,0.335585,-0.033703,-0.013804,1.647949,-0.854492,-4.730225
2.221395,0.593965,-0.347877,10.037527,0.719986,0.096825,-0.022785,1.129150,-0.457764,-7.141113
2.231464,0.888552,-0.393382,9.986633,1.014573,0.051320,-0.073679,0.732422,-0.366211,-7.324219
2.241531,1.058000,-0.456850,10.073452,1.184021,-0.012148,0.013140,0.854492,-0.305176,-7.843018
2.251598,1.216071,-0.561632,10.034533,1.342092,-0.116930,-0.025779,0.854492,-0.244141,-7.537842
2.261665,1.043630,-0.560435,10.053693,1.169650,-0.115733,-0.006618,0.762939,-0.152588,-6.347656
2.271731,0.571811,-0.477806,10.039323,0.697832,-0.033104,-0.020989,0.885010,-0.152588,-3.875732
2.281798,0.410746,-0.475411,10.058483,0.536767,-0.030709,-0.001828,0.549316,-0.122070,-3.021240
2.291866,0.190404,-0.446072,10.057286,0.316425,-0.001370,-0.003026,0.335693,-0.030518,-1.831055
2.301932,0.113165,-0.452060,10.062675,0.239185,-0.007358,0.002363,0.244141,-0.030518,-1.434326
2.312000,0.053888,-0.469424,10.062675,0.179909,-0.024722,0.002363,0.274658,-0.030518,-1.098633
2.322066,0.070653,-0.859812,10.095007,0.196674,-0.415110,0.034696,0.457764,-0.061035,-1.861572
2.332134,-0.086819,-1.056204,10.503957,0.039201,-0.611502,0.443645,1.770020,-0.183105,-6.072998
2.342200,0.249082,-2.044748,10.081835,0.375103,-1.600046,0.021523,6.378174,-1.190186,-23.345947
2.352269,0.264051,-1.695674,9.939331,0.390072,-1.250972,-0.120981,7.202148,-1.617432,-34.027100
2.362334,0.079634,-0.968187,9.569301,0.205655,-0.523485,-0.491011,1.922607,0.061035,-50.872803
2.372401,-0.041314,-0.510139,9.871672,0.084707,-0.065437,-0.188640,-2.990723,0.915527,-56.030273
2.382467,-0.431702,-0.131726,10.493778,-0.305682,0.312976,0.433466,-4.974365,1.831055,-56.030273
2.392533,-0.260458,0.609532,10.026151,-0.134438,1.054234,-0.034161,-2.532959,1.892090,-54.382324
2.402599,-0.555645,1.008902,10.107581,-0.429624,1.453604,0.047269,-2.227783,1.678467,-44.647217
2.412666,-0.508942,0.824485,10.080637,-0.382921,1.269187,0.020325,-1.281738,1.037598,-24.536133
2.422733,-0.552651,0.552052,10.080038,-0.426630,0.996754,0.019727,-1.068115,0.793457,-17.578125
2.432797,-1.164578,0.436492,10.095606,-1.038558,0.881194,0.035294,-0.976562,0.396729,-14.343262
2.442864,-1.624422,0.507145,10.108180,-1.498401,0.951847,0.047868,-0.671387,0.396729,-12.908936
2.452930,-1.826202,0.331710,10.072255,-1.700182,0.776412,0.011943,0.335693,0.579834,-14.709473
2.462996,-1.585503,-0.322130,10.113569,-1.459482,0.122572,0.053257,0.823975,0.518799,-16.754150
2.473064,-1.636996,-0.707728,10.063872,-1.510975,-0.263026,0.003560,0.885010,0.488281,-19.622803
2.483131,-2.099235,-0.573008,10.087224,-1.973214,-0.128306,0.026912,0.183105,0.854492,-24.291992
2.493196,-2.001638,-0.642464,10.075248,-1.875617,-0.197762,0.014937,-0.213623,1.251221,-29.113770
2.503263,-1.509461,-0.785566,10.045909,-1.383440,-0.340864,-0.014402,-1.098633,1.953125,-35.675049
2.513329,-1.165177,-1.142424,10.078242,-1.039156,-0.697722,0.017930,-0.854492,2.136230,-37.048340
2.523393,-1.371149,-0.750240,10.065070,-1.245128,-0.305538,0.004758,-3.479004,1.403809,-32.379150
2.533461,-1.465153,-0.480201,10.078242,-1.339133,-0.035499,0.017930,-2.929688,1.037598,-30.456543
2.543526,-1.280138,-0.555645,10.075847,-1.154117,-0.110943,0.015535,-2.288818,0.396729,-30.212402
2.553591,-1.012495,-0.666414,10.208172,-0.886474,-0.221712,0.147860,0.457764,-0.946045,-26.733398
2.563659,-0.864003,-0.645458,10.163265,-0.737983,-0.200756,0.102954,2.227783,-1.495361,-22.705078
2.573724,-1.268762,-0.554447,10.109377,-1.142741,-0.109745,0.049066,3.295898,-0.732422,-15.838623
2.583796,-1.454376,-0.565225,10.031539,-1.328355,-0.120523,-0.028772,2.868652,-0.061035,-15.441895
2.593863,-1.335223,-1.016087,9.914183,-1.209203,-0.571385,-0.146128,1.556396,0.518799,-18.310547
2.603928,-1.331631,-0.373623,10.063273,-1.205610,0.071079,0.002962,1.312256,0.854492,-19.042969
2.613993,-1.278940,-0.296384,10.065070,-1.152920,0.148318,0.004758,0.885010,1.159668,-16.937256
2.624058,-1.266367,-0.221539,10.064471,-1.140346,0.223163,0.004159,-0.274658,1.556396,-13.793945
2.634122,-1.269959,-0.364642,10.005793,-1.143938,0.080060,-0.054519,-0.091553,2.105713,-12.176514
2.644188,-1.732797,-0.216749,10.009385,-1.606776,0.227953,-0.050926,-0.793457,1.312256,-13.275146
2.654253,-1.259780,-0.121547,10.073452,-1.133760,0.323155,0.013140,1.464844,1.342773,-14.556885
2.664318,-1.095721,-0.152084,9.997410,-0.969701,0.292618,-0.062901,0.274658,0.915527,-12.268066
2.674382,-1.693878,-0.673599,10.132130,-1.567857,-0.228897,0.071818,-2.380371,0.518799,-13.824463
2.684447,-1.380729,-0.566422,10.207573,-1.254708,-0.121720,0.147262,-1.525879,0.061035,-16.052246
2.694511,-1.113085,-0.831072,10.384206,-0.987065,-0.386370,0.323894,-2.044678,-0.396729,-10.833740
2.704576,-1.604064,-0.195194,9.940529,-1.478044,0.249508,-0.119783,0.976562,-0.579834,-7.110596
2.714654,-1.141227,-0.404758,10.112371,-1.015206,0.039944,0.052059,0.152588,-0.335693,-1.678467
2.724720,-0.960403,-0.225731,10.180031,-0.834382,0.218971,0.119719,3.082275,1.037598,-1.251221
2.734786,-0.858615,-0.359852,10.032138,-0.732594,0.084850,-0.028174,1.892090,1.983643,1.983643
2.744850,-1.109493,-0.507145,10.382410,-0.983472,-0.062443,0.322098,-2.838135,1.342773,5.523682
2.754915,-0.814307,-0.499362,10.291399,-0.688286,-0.054660,0.231087,-2.014160,0.396729,2.899170
2.764981,-1.004112,-0.595761,10.120754,-0.878091,-0.151059,0.060442,0.305176,-1.953125,3.295898
2.775046,0.068857,-0.696352,9.987830,0.194878,-0.251650,-0.072482,0.823975,-1.831055,2.197266
2.785111,-0.814905,-0.840652,10.284214,-0.688885,-0.395950,0.223902,0.488281,0.518799,-0.701904
2.795194,-0.902922,-0.408950,10.021360,-0.776902,0.035752,-0.038951,0.244141,0.518799,1.312256
2.805259,-0.814905,-0.606539,9.705817,-0.688885,-0.161837,-0.354495,-0.671387,-0.091553,0.732422
2.815324,-0.179626,-0.497565,10.112371,-0.053606,-0.052863,0.052059,-0.732422,-0.488281,0.244141
2.825389,-0.426313,-0.535287,10.209968,-0.300293,-0.090585,0.149657,-3.265381,-1.007080,2.441406
2.835464,-0.443079,-0.580792,9.873468,-0.317058,-0.136090,-0.186844,0.091553,-0.274658,1.281738
2.845531,-0.544867,-0.612526,9.678873,-0.418846,-0.167824,-0.381439,1.525879,-0.488281,0.061035
2.855597,-0.192799,-0.499960,9.875863,-0.066778,-0.055258,-0.184449,0.579834,0.610352,1.159668
2.865662,-0.076641,-1.140628,10.040521,0.049380,-0.695926,-0.019791,0.488281,1.129150,2.349854
2.875727,-0.432900,-0.576601,10.137519,-0.306879,-0.131899,0.077207,-3.814697,0.976562,0.976562
2.885792,-0.521516,-0.276625,9.924961,-0.395495,0.168077,-0.135351,-3.936768,1.525879,-0.640869
2.895859,-0.352667,-0.489781,10.124346,-0.226646,-0.045080,0.064035,-4.425049,1.861572,-2.838135
2.905925,-0.268242,-0.099992,10.129136,-0.142221,0.344710,0.068825,0.030518,-0.244141,-6.744385
2.915999,-0.516127,-0.316143,10.096804,-0.390106,0.128559,0.036492,1.708984,-0.061035,-4.699707
2.926064,-0.677192,-0.431104,10.153685,-0.551171,0.013598,0.093374,1.190186,-0.305176,-4.577637
2.936130,-0.902324,-0.499362,9.917177,-0.776303,-0.054660,-0.143135,-0.793457,-0.701904,-4.943848
2.946195,-0.445474,-0.328118,10.083631,-0.319453,0.116584,0.023319,-1.464844,0.213623,-4.089355
2.956261,-0.188608,-0.726888,10.056088,-0.062587,-0.282186,-0.004223,1.159668,0.335693,-6.042480
2.966325,-0.725691,-0.762814,10.260264,-0.599670,-0.318112,0.199952,0.366211,0.030518,-4.180908
2.976400,-0.591570,-0.855022,9.944121,-0.465549,-0.410320,-0.116191,1.281738,0.091553,-2.746582
2.986465,-0.467029,-0.597557,10.096804,-0.341008,-0.152855,0.036492,0.793457,-0.732422,-1.953125
2.996531,-0.233514,-0.511337,10.041718,-0.107494,-0.066635,-0.018594,-0.335693,-0.549316,4.516602
3.006596,-0.217348,-0.425715,10.275831,-0.091327,0.018987,0.215520,0.091553,0.000000,5.004883
3.016662,-0.220342,-0.458047,10.029743,-0.094321,-0.013345,-0.030569,-0.396729,0.122070,3.967285
3.026726,-0.383802,-0.698148,10.212363,-0.257781,-0.253446,0.152052,-0.366211,0.213623,1.739502
3.036793,-0.090412,-0.707130,10.081835,0.035609,-0.262428,0.021523,0.122070,1.129150,1.037598
3.046860,-0.672402,-0.466430,10.045311,-0.546381,-0.021728,-0.015001,0.701904,1.495361,3.540039
3.056926,-0.490979,-0.461041,10.200987,-0.364958,-0.016339,0.140675,-0.091553,0.213623,4.852295
3.066991,-0.465831,-0.372426,10.186018,-0.339811,0.072276,0.125706,0.640869,-0.610352,5.035400
3.077057,-0.375419,-0.671204,9.912387,-0.249399,-0.226502,-0.147925,1.342773,-0.274658,6.652832
3.087122,-0.443079,-0.518522,9.950707,-0.317058,-0.073820,-0.109604,1.861572,0.610352,10.559082
3.097194,-0.472418,-0.264650,9.962084,-0.346397,0.180052,-0.098228,0.305176,0.457764,9.765625
3.107261,-0.584385,-0.207169,9.988429,-0.458364,0.237533,-0.071883,-0.518799,0.488281,7.507324
3.117327,-0.598755,-0.356259,10.026151,-0.472734,0.088443,-0.034161,-2.044678,-0.091553,7.232666
3.127394,-0.406555,-0.280217,10.013577,-0.280534,0.164485,-0.046735,-0.732422,-0.396729,6.011963
3.137459,-0.358654,-0.317939,10.180031,-0.232633,0.126763,0.119719,1.098633,1.037598,7.110596
3.147526,-0.686772,-0.269440,10.103989,-0.560751,0.175262,0.043677,0.854492,1.464844,9.460449
3.157592,-0.399968,-0.514330,10.217752,-0.273948,-0.069628,0.157440,0.030518,-0.518799,10.040283
3.167659,-0.466430,-0.240101,10.119556,-0.340409,0.204601,0.059245,0.549316,-0.976562,11.199951
3.177725,-0.310754,-0.134720,10.103989,-0.184733,0.309982,0.043677,-0.030518,-0.213623,12.359619
3.187791,-0.244292,-0.381407,10.221345,-0.118271,0.063295,0.161033,0.701904,-1.586914,13.092041
3.197857,-0.214953,-0.420326,9.999207,-0.088932,0.024376,-0.061105,1.495361,-1.586914,12.542725
3.207922,0.310155,-0.507744,10.008787,0.436176,-0.063042,-0.051525,-0.152588,-1.129150,9.704590
3.217995,-0.148491,-0.641266,10.230925,-0.022471,-0.196564,0.170613,-0.244141,-0.885010,9.338379
3.228061,-0.172441,-0.776585,10.227332,-0.046421,-0.331883,0.167020,1.708984,1.434326,8.270264
3.238128,-0.089214,-0.598156,10.038126,0.036806,-0.153454,-0.022186,2.197266,1.129150,6.958008
3.248194,-0.064067,-0.110770,9.860894,0.061954,0.333932,-0.199418,0.732422,0.549316,6.866455
3.258260,-0.362247,-0.425116,10.256671,-0.236226,0.019586,0.196359,-1.861572,-0.427246,7.629395
3.268419,-0.000599,-0.400567,10.232721,0.125422,0.044135,0.172409,-2.410889,-0.213623,7.293701
3.278487,-0.214354,-0.703537,10.077045,-0.088334,-0.258835,0.016733,-3.173828,0.640869,9.399414
3.288554,-0.380808,-0.620310,10.226733,-0.254787,-0.175608,0.166422,-2.014160,-0.091553,10.498047
3.298620,-0.298779,-0.361049,9.851913,-0.172758,0.083653,-0.208399,-0.427246,0.640869,15.991211
3.308686,0.207768,-0.602347,9.960886,0.333789,-0.157645,-0.099425,0.427246,0.793457,16.448975
3.318753,0.085622,-0.723296,10.241702,0.211643,-0.278594,0.181391,0.732422,0.183105,15.960693
3.328818,-0.487386,-0.363444,9.707613,-0.361366,0.081258,-0.352699,2.746582,0.213623,15.747070
3.338893,0.066462,-0.716710,10.415940,0.192482,-0.272008,0.355628,-0.610352,-0.366211,18.554688
3.348960,0.471220,-0.371827,10.475815,0.597241,0.072875,0.415504,-1.434326,-1.251221,21.362305
3.359027,0.276625,-0.146096,9.671688,0.402645,0.298606,-0.388624,0.183105,-0.335693,22.491455
3.369093,0.253273,0.211360,9.777068,0.379294,0.656062,-0.283243,3.936768,-2.197266,18.585205
3.379159,0.326920,0.188608,9.973460,0.452941,0.633310,-0.086852,2.990723,-2.685547,20.202637
3.389225,0.584984,0.134720,9.750723,0.711004,0.579422,-0.309588,-0.030518,-0.640869,13.000488
3.399291,0.759820,-0.332309,9.922566,0.885841,0.112393,-0.137746,-1.678467,-0.671387,7.995605
3.409357,0.471819,0.123942,9.962682,0.597840,0.568644,-0.097629,-0.793457,-0.671387,4.699707
3.419422,0.288001,0.005389,10.288405,0.414022,0.450091,0.228093,-1.312256,-2.105713,2.197266
3.429488,0.744851,-0.379611,9.974658,0.870872,0.065091,-0.085654,-0.762939,-0.335693,1.617432
3.439575,0.271835,-0.360450,9.989028,0.397855,0.084252,-0.071284,-0.335693,2.410889,-2.410889
3.449644,0.710123,-0.691562,10.175839,0.836144,-0.246860,0.115528,0.701904,2.227783,-4.302979
3.459711,0.664618,-0.371827,10.083631,0.790639,0.072875,0.023319,2.014160,1.281738,-10.253906
3.469787,0.347877,0.187410,9.732761,0.473897,0.632112,-0.327551,2.777100,0.640869,-10.742188
3.479855,0.581990,-0.526904,9.985435,0.708010,-0.082202,-0.074877,2.166748,0.366211,-8.819580
3.489922,0.723895,-0.675396,9.950109,0.849915,-0.230694,-0.110203,-0.122070,-0.244141,-15.747070
3.499989,0.347877,-1.172362,10.175240,0.473897,-0.727660,0.114929,-0.213623,0.091553,-18.096924
3.510055,0.495769,-0.664618,10.183024,0.621790,-0.219916,0.122713,0.976562,0.183105,-17.028809
3.520122,0.037123,-0.827479,10.344089,0.163143,-0.382777,0.283778,0.396729,0.823975,-18.035889
3.530187,0.273631,-0.443079,10.192604,0.399652,0.001623,0.132293,-0.640869,2.288818,-13.763428
3.540254,-0.026944,-0.743654,9.932745,0.099077,-0.298952,-0.127567,-0.427246,2.502441,-12.207031
3.550320,0.038320,-0.648452,10.083631,0.164341,-0.203750,0.023319,-1.068115,2.105713,-11.199951
3.560387,0.017963,-0.278421,9.974658,0.143983,0.166281,-0.085654,1.251221,1.007080,-7.568359
3.570453,-0.159269,-0.410746,9.944720,-0.033248,0.033956,-0.115592,-0.701904,0.823975,-2.960205
3.580521,0.655637,-0.082628,10.027947,0.781657,0.362074,-0.032365,2.166748,0.823975,-3.417969
3.590596,0.186213,0.191003,10.165660,0.312233,0.635705,0.105349,0.183105,0.335693,1.770020
3.600663,-0.246687,0.078437,10.014774,-0.120666,0.523139,-0.045538,-3.967285,0.396729,3.601074
3.610730,0.239502,-0.179626,10.002200,0.365523,0.265076,-0.058111,-4.302979,-0.549316,0.701904
3.620796,0.517324,-0.078437,10.130933,0.643345,0.366265,0.070621,-2.838135,-2.288818,-1.617432
3.630862,0.233514,-0.094603,10.106982,0.359535,0.350099,0.046671,-2.044678,-2.197266,-1.281738
3.640928,0.388592,-0.079036,9.978250,0.514613,0.365666,-0.082062,-0.396729,-2.227783,-1.922607
3.650995,0.461041,-0.325124,10.002200,0.587062,0.119578,-0.058111,0.457764,-1.953125,-1.861572
3.661060,0.261656,-0.426912,9.952504,0.387677,0.017790,-0.107808,0.488281,-1.464844,-2.349854
3.671127,0.151485,-0.607137,9.990225,0.277506,-0.162435,-0.070087,0.793457,0.640869,-1.678467
3.681192,0.092807,-0.616119,9.868079,0.218828,-0.171417,-0.192233,0.549316,1.739502,0.213623
3.691259,-0.007185,-0.507145,9.935140,0.118836,-0.062443,-0.125172,1.403809,2.044678,2.532959
3.701325,-0.202379,-0.303569,10.133328,-0.076358,0.141133,0.073016,0.915527,0.640869,3.112793
3.711399,-0.193398,-0.571811,9.989028,-0.067377,-0.127109,-0.071284,0.091553,0.061035,4.547119
3.721466,-0.494572,-0.598755,10.056088,-0.368551,-0.154053,-0.004223,0.091553,-1.983643,9.246826
3.731532,-0.310155,-0.241897,10.036329,-0.184134,0.202805,-0.023982,2.166748,-1.922607,12.176514
3.741598,0.070054,-0.561033,9.942924,0.196075,-0.116331,-0.117388,0.274658,-0.823975,12.451172
3.751665,-0.139510,-0.117356,9.952504,-0.013489,0.327346,-0.107808,-0.183105,-0.030518,13.214111
3.761729,-0.237107,-0.304167,9.961485,-0.111086,0.140535,-0.098827,-1.190186,0.091553,18.066406
3.771795,0.318538,-0.425715,10.263856,0.444558,0.018987,0.203544,-2.044678,1.373291,11.810303
3.781860,0.070054,-0.452659,10.044712,0.196075,-0.007957,-0.015600,-1.403809,1.708984,11.169434
3.791932,-0.142504,-0.274828,10.081236,-0.016483,0.169873,0.020924,-1.678467,1.770020,12.756348
3.801997,-0.069456,-0.358654,9.903406,0.056565,0.086048,-0.156906,-1.281738,1.190186,11.016846
3.812063,0.037722,-0.262255,10.142908,0.163742,0.182447,0.082596,-0.427246,0.640869,8.453369
3.822128,-0.207768,-0.204774,10.102192,-0.081747,0.239928,0.041881,0.152588,0.701904,6.988525
3.832194,-0.085622,-0.434696,10.026749,0.040399,0.010006,-0.033562,-0.152588,0.335693,5.401611
3.842260,-0.254471,-0.753832,9.979448,-0.128450,-0.309130,-0.080864,-0.488281,0.793457,5.462646
3.852328,-0.249082,-0.164658,10.044712,-0.123061,0.280044,-0.015600,0.061035,1.068115,2.258301
3.862394,-0.267045,-0.658630,9.953102,-0.141024,-0.213928,-0.107209,-0.244141,0.000000,-2.593994
3.872459,0.057480,-0.652044,10.041119,0.183501,-0.207342,-0.019192,0.488281,0.549316,-4.394531
3.882525,0.021555,-0.462239,10.371632,0.147576,-0.017537,0.311320,0.213623,-1.007080,-4.730225
3.892591,-0.313149,-0.601150,10.104587,-0.187128,-0.156448,0.044276,-1.342773,-1.800537,-6.317139
3.902656,0.013771,-0.493374,9.900412,0.139792,-0.048672,-0.159900,-0.366211,-1.129150,-8.239746
3.912722,-0.308958,-0.778980,9.857900,-0.182937,-0.334278,-0.202411,-1.525879,-0.610352,-9.307861
3.922789,-0.261656,-0.758024,10.036329,-0.135635,-0.313322,-0.023982,-1.159668,-0.122070,-8.666992
3.932854,-0.217348,-0.750240,10.193203,-0.091327,-0.305538,0.132891,-0.122070,0.610352,-8.117676
3.942919,-0.502954,-0.634081,9.892029,-0.376933,-0.189379,-0.168282,-0.152588,1.098633,-8.209229
3.952984,-0.314346,-0.743654,9.957294,-0.188326,-0.298952,-0.103018,0.610352,-0.030518,-10.772705
3.963050,-0.478405,-0.808918,10.227931,-0.352384,-0.364216,0.167619,-0.305176,-0.244141,-11.108398
3.973117,-0.678988,-1.151406,10.110575,-0.552967,-0.706704,0.050263,-0.061035,0.091553,-12.756348
3.983183,-0.556842,-0.995729,9.932146,-0.430821,-0.551027,-0.128166,1.068115,-0.305176,-11.627197
3.993248,-0.827479,-0.734672,10.003398,-0.701459,-0.289970,-0.056914,0.457764,-0.671387,-12.481689
4.003315,-0.274230,-0.935854,9.874067,-0.148209,-0.491152,-0.186245,-0.701904,-1.251221,-11.291504
4.013381,-0.856219,-0.628094,9.942924,-0.730199,-0.183392,-0.117388,-0.427246,-1.037598,-7.019043
4.023445,-0.914897,-0.573607,10.146500,-0.788877,-0.128905,0.086189,0.213623,0.213623,-6.103516
4.033511,-0.595761,-0.529299,10.047107,-0.469740,-0.084597,-0.013205,0.457764,0.885010,-6.591797
4.043578,-0.448467,-0.270038,9.848919,-0.322447,0.174664,-0.211393,0.061035,0.885010,-6.652832
4.053643,-0.947829,-0.531096,9.877061,-0.821808,-0.086394,-0.183251,-0.152588,1.434326,-3.021240
4.063711,-0.446072,-0.226928,9.958491,-0.320052,0.217774,-0.101821,0.366211,1.098633,-2.716064
4.073777,-0.507145,-0.293390,9.850715,-0.381125,0.151312,-0.209596,0.274658,0.152588,-5.737305
4.083849,-0.685574,-0.364642,9.917177,-0.559554,0.080060,-0.143135,-1.495361,-0.122070,-3.143311
4.093915,-0.767604,-0.246687,10.017169,-0.641583,0.198015,-0.043143,-2.105713,0.457764,-3.509521
4.103980,0.193997,-0.623903,10.038126,0.320017,-0.179201,-0.022186,-3.265381,0.427246,-2.655029
4.114044,-0.453257,-0.651445,10.206974,-0.327237,-0.206743,0.146663,-1.220703,0.030518,-4.089355
4.124109,-0.191602,-0.386197,10.008188,-0.065581,0.058505,-0.052124,1.068115,-1.037598,-3.265381
4.134174,-0.431104,-0.311951,9.802216,-0.305083,0.132751,-0.258096,0.885010,-0.518799,-4.180908
4.144243,-0.555046,-0.365240,9.817185,-0.429025,0.079462,-0.243127,-0.549316,-1.434326,-4.516602
4.154309,-0.405357,-0.332309,10.023157,-0.279336,0.112393,-0.037155,0.122070,-1.037598,-4.150391
4.164374,0.007784,-0.299976,9.972861,0.133805,0.144726,-0.087450,2.197266,0.122070,-0.610352
4.174440,-0.134720,-0.082029,10.109377,-0.008699,0.362673,0.049066,1.586914,0.701904,0.488281
4.184505,0.107776,-0.340692,10.200987,0.233797,0.104010,0.140675,-2.349854,0.976562,0.366211
4.194570,-0.069456,-0.026345,10.147698,0.056565,0.418357,0.087386,0.366211,0.823975,-2.014160
4.204634,-0.089214,0.019160,9.888437,0.036806,0.463862,-0.171875,-0.183105,-0.061035,-2.014160
4.214706,-0.038919,-0.363444,10.300979,0.087102,0.081258,0.240667,-1.953125,-1.617432,-7.537842
4.224771,-0.210163,-0.267045,10.000404,-0.084142,0.177657,-0.059908,-1.098633,-1.892090,-7.629395
4.234837,-0.426912,-0.350272,10.165062,-0.300892,0.094430,0.104750,-0.701904,-2.502441,-6.256104
4.244903,-0.217947,-0.464035,9.936337,-0.091926,-0.019333,-0.123974,-0.396729,-0.854492,-6.744385
4.254968,-0.347278,-0.602946,10.096205,-0.221257,-0.158244,0.035893,-2.288818,0.061035,-7.659912
4.265033,-0.226928,-0.631088,10.067465,-0.100907,-0.186386,0.007153,-0.488281,0.976562,-6.958008
4.275098,-0.402962,-0.646655,9.902807,-0.276941,-0.201953,-0.157505,-0.701904,0.488281,-6.317139
4.285163,-0.249082,-0.528102,10.062675,-0.123061,-0.083400,0.002363,-0.427246,-0.122070,-1.556396
4.295229,-0.249681,-0.622106,10.164463,-0.123660,-0.177404,0.104151,0.701904,1.037598,-0.335693
4.305295,-0.564027,-0.615520,10.182426,-0.438006,-0.170818,0.122114,-1.647949,1.342773,1.708984
4.315361,-0.340692,-0.416135,10.222542,-0.214671,0.028567,0.162230,-3.204346,1.281738,3.051758
4.325426,-0.044308,-0.548459,10.319540,0.081713,-0.103757,0.259229,-5.035400,1.861572,3.967285
4.335499,-0.684976,-0.345482,10.096804,-0.558955,0.099220,0.036492,-1.708984,1.617432,4.547119
4.345564,-0.341889,-0.189207,9.986034,-0.215868,0.255495,-0.074278,0.549316,0.305176,3.021240
4.355630,-0.340692,-0.179626,10.118359,-0.214671,0.265076,0.058047,2.410889,1.464844,3.204346
4.365696,-0.290396,-0.234113,10.078841,-0.164375,0.210589,0.018529,2.136230,0.335693,2.380371
4.375762,-0.103585,0.075443,9.936936,0.022436,0.520145,-0.123376,1.312256,0.885010,1.800537
4.385826,0.141306,-0.202379,10.010583,0.267327,0.242323,-0.049729,1.373291,0.457764,-1.647949
4.395894,0.083227,-0.078437,9.820778,0.209248,0.366265,-0.239534,4.913330,1.922607,-1.281738
4.405958,0.091609,-0.209564,10.207573,0.217630,0.235138,0.147262,0.488281,0.244141,-1.525879
4.416026,-0.123344,-0.383802,10.195598,0.002677,0.060900,0.135286,-2.075195,-0.427246,-6.561279
4.426090,0.040117,-0.468226,9.877659,0.166137,-0.023524,-0.182652,0.183105,-0.030518,-11.199951
4.436156,0.237107,-0.422721,10.253079,0.363128,0.021981,0.192767,-0.946045,0.305176,-10.253906
4.446222,-0.108375,-0.374821,9.732162,0.017646,0.069881,-0.328150,-2.593994,0.213623,-6.896973
4.456287,0.186213,-0.804727,10.339299,0.312233,-0.360025,0.278988,-0.427246,0.091553,-7.934570
4.466360,0.447869,-1.135239,10.018965,0.573889,-0.690537,-0.041346,-0.640869,0.396729,-5.249023
4.476426,-0.155676,-0.655637,10.079440,-0.029656,-0.210935,0.019128,-1.373291,1.678467,-1.190186
4.486492,-0.401765,-0.716111,9.948911,-0.275744,-0.271409,-0.111401,-2.075195,1.190186,3.417969
4.496557,0.492775,-0.677791,10.145901,0.618796,-0.233089,0.085590,0.427246,-0.396729,6.439209
4.506622,0.034129,-0.268841,10.027947,0.160150,0.175861,-0.032365,0.213623,-0.122070,5.889893
4.516688,0.009580,-0.476609,9.798025,0.135601,-0.031907,-0.262287,1.495361,-1.739502,2.899170
4.526754,0.045505,-0.578397,9.998009,0.171526,-0.133695,-0.062303,0.518799,-1.953125,5.676270
4.536819,-0.070054,-0.667013,9.953102,0.055966,-0.222311,-0.107209,-0.793457,-1.495361,6.164551
4.546885,0.256267,-0.562830,10.165660,0.382288,-0.118128,0.105349,-1.770020,-0.549316,4.577637
4.556951,0.038320,-0.752036,9.984836,0.164341,-0.307334,-0.075475,-1.464844,0.366211,2.868652
4.567016,0.158071,-1.186133,10.262060,0.284092,-0.741431,0.201748,-1.220703,1.312256,5.615234
4.577080,-0.078437,-0.686173,10.054891,0.047584,-0.241471,-0.005421,3.143311,1.922607,5.401611
4.587152,0.199385,0.305365,10.381811,0.325406,0.750067,0.321499,3.540039,1.312256,15.594482
4.597219,0.083826,-0.291594,9.917776,0.209846,0.153108,-0.142536,3.204346,0.976562,11.901855
4.607285,0.040715,-0.383802,10.072853,0.166736,0.060900,0.012542,5.065918,0.823975,-0.244141
4.617351,-0.249082,-0.207169,9.960287,-0.123061,0.237533,-0.100024,-1.892090,-1.312256,2.716064
4.627416,-0.386197,-0.342488,9.989626,-0.260176,0.102214,-0.070685,-3.234863,-0.946045,0.335693
4.637488,-0.043709,-0.367635,9.978250,0.082312,0.077066,-0.082062,-3.845215,0.518799,-0.366211
4.647556,0.125140,-0.298180,10.139315,0.251160,0.146522,0.079003,1.647949,0.274658,-2.044678
4.657623,-0.177830,0.209564,10.419532,-0.051810,0.654266,0.359221,3.417969,-0.640869,-0.579834
4.667690,-0.138312,-0.490979,10.157877,-0.012292,-0.046277,0.097565,3.631592,-0.640869,-1.190186
4.677756,-0.251477,-0.370031,9.980046,-0.125456,0.074671,-0.080265,-0.946045,-1.983643,-1.678467
4.687822,0.046104,-0.317939,9.950109,0.172125,0.126763,-0.110203,0.030518,-1.983643,-2.410889
4.697888,-0.099992,-0.626896,10.098600,0.026029,-0.182194,0.038288,-1.403809,-2.014160,-2.685547
4.707954,0.089214,-0.604742,10.121951,0.215235,-0.160040,0.061640,-1.556396,1.220703,-1.281738
4.718019,0.100591,-0.733475,10.247690,0.226612,-0.288773,0.187378,-1.831055,-0.091553,-0.030518
4.728092,-0.046703,-0.283810,10.057885,0.079318,0.160892,-0.002427,-3.509521,1.037598,-0.274658
4.738159,-0.279619,-0.525707,10.050699,-0.153598,-0.081005,-0.009612,-3.631592,0.732422,1.739502
4.748226,-0.223336,-0.620310,10.135723,-0.097315,-0.175608,0.075411,-0.579834,-1.190186,1.037598
4.758292,-0.150287,-0.517324,9.986034,-0.024267,-0.072622,-0.074278,1.190186,-2.410889,0.122070
4.768359,0.277822,0.074246,10.327324,0.403843,0.518948,0.267012,3.570557,-1.983643,2.197266
4.778424,0.032932,-0.528701,10.104587,0.158952,-0.083999,0.044276,3.173828,-0.305176,3.448486
4.788490,0.223934,-0.498164,10.241104,0.349955,-0.053462,0.180792,2.502441,1.037598,2.929688
4.798556,0.017364,0.526904,10.324330,0.143385,0.971606,0.264019,5.676270,3.143311,3.417969
4.808621,-0.379012,0.231119,9.814191,-0.252991,0.675821,-0.246120,3.051758,1.831055,9.674072
4.818687,-0.188608,-0.425116,9.815389,-0.062587,0.019586,-0.244923,-0.396729,-0.061035,3.326416
4.828754,0.240101,-0.568817,10.033336,0.366121,-0.124115,-0.026976,-0.701904,-0.946045,0.671387
4.838820,-0.061073,-0.062869,10.041119,0.064948,0.381833,-0.019192,1.464844,-0.488281,1.892090
4.848925,-0.008383,-0.102986,9.899813,0.117638,0.341716,-0.160498,-0.732422,-0.396729,2.777100
4.858992,0.044308,-0.298779,10.032138,0.170329,0.145923,-0.028174,-2.349854,-0.671387,1.312256
4.869057,0.323328,-0.116158,10.307565,0.449348,0.328544,0.247254,-2.349854,0.579834,-2.807617
4.879123,-0.164059,-0.393981,10.102791,-0.038038,0.050721,0.042479,-3.906250,0.549316,-0.915527
4.889189,0.103585,-0.578996,9.847722,0.229605,-0.134294,-0.212590,-1.464844,1.495361,-2.288818
4.899255,-0.265847,-0.523312,9.980645,-0.139826,-0.078610,-0.079667,-3.723145,1.007080,-2.288818
4.909321,-0.213755,-0.516725,9.969868,-0.087735,-0.072023,-0.090444,-3.784180,0.061035,-4.852295
4.919388,-0.177830,-0.539478,9.936337,-0.051810,-0.094776,-0.123974,-0.854492,-0.701904,-3.692627
4.929453,-0.225731,-0.655637,10.107581,-0.099710,-0.210935,0.047269,-0.976562,-0.671387,-2.319336
4.939519,-0.322130,-0.733475,9.878857,-0.196109,-0.288773,-0.181455,-1.831055,1.556396,-0.152588
4.949584,-0.202978,-0.760419,9.843530,-0.076957,-0.315717,-0.216781,1.037598,2.410889,0.122070
4.959651,-0.179626,-0.788560,10.041119,-0.053606,-0.343858,-0.019192,2.716064,1.495361,4.272461
4.969723,-0.864003,-0.462838,10.168055,-0.737983,-0.018136,0.107744,-2.014160,0.335693,5.737305
4.979790,-0.389191,-0.173040,10.409354,-0.263170,0.271662,0.349042,-1.312256,0.122070,3.753662
4.989856,-0.113165,-0.129930,10.006990,0.012856,0.314772,-0.053321,0.213623,-0.640869,2.624512
4.999921,-0.343685,-0.228724,9.972263,-0.217665,0.215978,-0.088049,-0.488281,-0.885010,3.082275
5.009988,-0.235909,-0.300575,10.003997,-0.109889,0.144127,-0.056315,-1.129150,1.037598,2.990723
5.020053,-0.338297,-0.368234,10.108180,-0.212276,0.076468,0.047868,-2.227783,1.037598,0.915527
5.030118,-0.305365,-0.677192,10.189611,-0.179344,-0.232490,0.129299,0.152588,-0.091553,0.457764
5.040184,-0.229922,-0.345482,9.988429,-0.103901,0.099220,-0.071883,0.030518,-0.457764,0.610352
5.050250,-0.154479,-0.419727,10.122550,-0.028458,0.024975,0.062238,0.213623,-0.366211,-0.335693
5.060316,0.031135,-0.784369,10.023157,0.157156,-0.339667,-0.037155,-1.159668,0.885010,-2.532959
5.070381,-0.126337,-0.514929,10.138716,-0.000317,-0.070227,0.078405,1.586914,0.305176,-3.936768
5.080446,-0.096998,-0.456251,10.156679,0.029022,-0.011549,0.096367,2.319336,-1.983643,-1.373291
5.090516,-0.395178,-0.499362,10.006990,-0.269158,-0.054660,-0.053321,2.075195,-0.762939,-1.617432
5.100589,-0.314346,-0.388592,9.543554,-0.188326,0.056110,-0.516758,-0.335693,0.366211,-3.540039
5.110655,-0.359852,-0.441282,10.109377,-0.233831,0.003420,0.049066,-0.488281,1.464844,-4.516602
5.120726,-0.315544,-0.574206,10.026749,-0.189523,-0.129504,-0.033562,-3.204346,1.007080,-5.737305
5.130792,-0.098795,-0.728685,10.160272,0.027226,-0.283983,0.099960,-0.823975,0.030518,-10.253906
5.140859,-0.226928,-0.681982,9.845925,-0.100907,-0.237280,-0.214386,0.183105,-0.061035,-9.124756
5.150924,-0.152682,-0.716710,9.853110,-0.026662,-0.272008,-0.207201,1.647949,0.885010,-9.490967
5.160996,-0.399968,-0.775388,10.119556,-0.273948,-0.330686,0.059245,1.007080,1.312256,-8.392334
5.171064,-0.211360,-0.745450,10.029144,-0.085340,-0.300748,-0.031167,-0.335693,2.075195,-6.896973
5.181130,-0.117356,-0.498763,9.586664,0.008665,-0.054061,-0.473647,3.631592,1.525879,-6.774902
5.191197,-0.398771,-0.430505,9.935140,-0.272750,0.014197,-0.125172,0.091553,2.136230,-4.150391
5.201263,-0.047900,-0.831072,9.916578,0.078120,-0.386370,-0.143733,-0.091553,0.915527,-2.929688
5.211329,0.152084,-0.717308,9.989626,0.278104,-0.272606,-0.070685,-0.061035,-0.244141,0.091553
5.221395,-0.075443,-0.399968,9.977053,0.050578,0.044734,-0.083259,-0.457764,-0.427246,5.462646
5.231461,0.257465,-0.679587,10.094409,0.383485,-0.234885,0.034097,-0.366211,-0.762939,6.713867
5.241535,0.347278,-0.308958,9.935739,0.473299,0.135744,-0.124573,0.823975,-0.427246,11.016846
5.251602,0.308359,-0.565823,9.992021,0.434379,-0.121121,-0.068290,1.800537,-0.671387,10.009766
5.261669,0.404758,-0.407153,9.962682,0.530779,0.037549,-0.097629,5.401611,0.793457,11.077881
5.271735,-0.076042,-0.094005,9.812395,0.049979,0.350697,-0.247917,1.312256,2.288818,15.350342
5.281801,0.090412,-0.140109,9.854907,0.216433,0.304593,-0.205405,-1.129150,1.007080,14.221191
5.291867,0.239502,-0.559237,10.157278,0.365523,-0.114535,0.096966,-4.791260,-0.427246,8.911133
5.301933,0.322130,-0.369432,10.125544,0.448151,0.075270,0.065232,-3.631592,0.305176,7.476807
5.312001,0.118553,-0.626298,9.982441,0.244574,-0.181596,-0.077870,-1.068115,0.030518,3.692627
5.322067,0.134121,-0.929268,9.994417,0.260142,-0.484566,-0.065895,1.525879,-1.007080,1.678467
5.332134,-0.002994,-0.843646,9.802216,0.123027,-0.398944,-0.258096,1.617432,-0.732422,1.434326
5.342201,0.265847,-0.845442,10.419532,0.391868,-0.400740,0.359221,0.274658,-0.762939,0.122070
5.352267,-0.068857,-0.747246,10.171648,0.057164,-0.302544,0.111336,-0.366211,-0.183105,-1.312256
5.362333,0.128732,-0.713117,10.124346,0.254753,-0.268415,0.064035,0.488281,0.457764,-2.990723
5.372399,-0.456251,-0.725092,9.984836,-0.330231,-0.280390,-0.075475,0.427246,0.488281,-3.570557
5.382465,-0.702339,-0.666414,9.882449,-0.576319,-0.221712,-0.177862,-2.258301,0.152588,-2.807617
5.392531,-0.284409,-0.449066,10.027947,-0.158388,-0.004364,-0.032365,2.410889,0.152588,-3.479004
5.402603,-0.650847,-0.087418,9.975855,-0.524826,0.357284,-0.084457,3.265381,0.244141,-2.624512
5.412670,-0.728086,-0.425116,9.889634,-0.602065,0.019586,-0.170677,-0.427246,0.885010,-0.366211
5.422736,-0.310155,-0.983754,10.227931,-0.184134,-0.539052,0.167619,-4.638672,0.457764,-1.068115
5.432802,-0.699346,-0.571811,9.909992,-0.573325,-0.127109,-0.150320,-1.495361,0.396729,-0.640869
5.442870,-0.680186,-0.717308,9.901011,-0.554165,-0.272606,-0.159301,0.762939,1.220703,0.122070
5.452937,-0.646655,-0.610730,10.136321,-0.520635,-0.166028,0.076010,-0.610352,0.671387,0.793457
5.463003,-0.568218,-0.500559,10.066267,-0.442198,-0.055857,0.005955,-0.183105,0.976562,1.007080
5.473070,-0.743055,-0.372426,10.020762,-0.617034,0.072276,-0.039550,0.488281,0.976562,0.274658
5.483136,-0.301772,-0.367635,10.041119,-0.175752,0.077066,-0.019192,1.495361,1.617432,0.000000
5.493202,-0.589175,-0.365839,10.094409,-0.463154,0.078863,0.034097,1.556396,1.525879,1.403809
5.503267,-1.037043,0.033530,10.123149,-0.911023,0.478232,0.062837,1.464844,0.579834,-1.495361
5.513333,-0.652643,-0.660427,9.875863,-0.526622,-0.215725,-0.184449,-0.213623,-0.091553,-2.105713
5.523399,-0.013771,-0.386197,10.011780,0.112249,0.058505,-0.048531,-2.838135,0.488281,-1.342773
5.533464,-0.811912,-0.338895,10.262659,-0.685891,0.105807,0.202347,-5.493164,-0.457764,-5.676270
5.543530,-0.365839,0.150287,10.391391,-0.239819,0.594989,0.331079,-1.342773,-1.312256,-8.819580
5.553596,-0.715512,-0.352667,9.956096,-0.589491,0.092035,-0.104216,-2.136230,-1.617432,-8.361816
5.563661,-0.086221,-0.583786,10.306967,0.039800,-0.139084,0.246655,-0.915527,-1.800537,-8.789062
5.573726,-0.178429,-0.392184,10.069860,-0.052408,0.052518,0.009548,1.281738,-1.220703,-7.019043
5.583792,-0.715512,-0.673000,10.377021,-0.589491,-0.228299,0.316709,0.427246,-1.342773,-5.371094
5.593862,-0.158670,-0.725691,10.177037,-0.032649,-0.280989,0.116725,0.152588,-0.579834,-3.875732
5.603933,-0.380209,-0.681982,10.205178,-0.254189,-0.237280,0.144866,0.061035,-0.152588,-3.295898
5.613999,-0.373623,-0.699944,10.116563,-0.247602,-0.255242,0.056251,-0.854492,-0.183105,-1.342773
5.624064,-0.132924,-0.556243,9.889036,-0.006903,-0.111541,-0.171276,-0.762939,0.122070,-0.915527
5.634130,-0.286804,-0.548459,10.095606,-0.160783,-0.103757,0.035294,0.518799,0.213623,-0.457764
5.644195,0.161664,-0.620310,10.011182,0.287685,-0.175608,-0.049130,0.976562,0.000000,0.122070
5.654295,0.157473,-0.505349,10.052496,0.283493,-0.060647,-0.007816,1.525879,0.152588,3.082275
5.664390,-0.104782,-0.481399,9.954899,0.021239,-0.036697,-0.105413,0.122070,0.122070,-1.922607
5.674469,0.223336,-0.383802,10.147099,0.349356,0.060900,0.086787,-1.129150,-0.152588,-3.173828
5.684543,-0.100591,-0.367635,10.107581,0.025430,0.077066,0.047269,1.464844,-0.579834,-2.593994
5.694614,0.235909,-0.478405,9.828561,0.361930,-0.033703,-0.231750,0.213623,-0.640869,-2.746582
5.704680,0.144899,-0.532892,9.955497,0.270919,-0.088190,-0.104814,0.823975,0.335693,-3.845215
5.714751,0.302371,-0.782573,10.068063,0.428392,-0.337871,0.007752,-0.366211,0.427246,-4.150391
5.724824,0.099992,-0.747246,10.083631,0.226013,-0.302544,0.023319,-0.274658,0.854492,-3.540039
5.734889,0.181423,-0.424517,9.941726,0.307443,0.020185,-0.118586,1.342773,1.861572,-3.417969
5.744960,0.231718,-0.225132,10.072255,0.357739,0.219570,0.011943,-0.213623,1.434326,-3.387451
5.755030,-0.064067,-0.338895,10.128538,0.061954,0.105807,0.068226,-1.892090,0.396729,-6.927490
5.765096,-0.056283,-0.056283,10.005793,0.069738,0.388419,-0.054519,-1.831055,0.091553,-7.629395
5.775166,0.052690,-0.104782,9.935739,0.178711,0.339920,-0.124573,-0.518799,-0.732422,-8.209229
5.785238,-0.343685,-0.011376,9.967473,-0.217665,0.433326,-0.092839,-0.518799,-1.983643,-8.056641
5.795304,-0.156874,0.150287,10.032138,-0.030853,0.594989,-0.028174,0.183105,-1.342773,-8.392334
5.805374,-0.164658,0.036524,9.985435,-0.038637,0.481226,-0.074877,-0.030518,0.366211,-9.643555
5.815445,-0.504750,-0.028141,10.110575,-0.378730,0.416561,0.050263,0.213623,0.305176,-9.887695
5.825511,-0.824485,-0.223934,10.383607,-0.698465,0.220768,0.323295,0.946045,0.366211,-9.735107
5.835581,-0.267045,0.140707,10.062076,-0.141024,0.585409,0.001764,0.885010,0.305176,-9.429932
5.845652,-0.498164,-0.168849,9.963281,-0.372143,0.275853,-0.097030,-0.549316,0.610352,-9.765625
5.855718,-0.237107,-0.159868,9.966275,-0.111086,0.284834,-0.094037,-0.366211,-0.122070,-11.718750
5.865788,-0.510139,-0.316143,10.131531,-0.384118,0.128559,0.071220,0.579834,0.244141,-11.138916
5.875859,-0.057480,-0.358055,10.172845,0.068540,0.086647,0.112534,-0.610352,-0.335693,-10.223389
5.885924,-0.133522,-0.581990,10.029144,-0.007502,-0.137288,-0.031167,1.007080,0.671387,-11.444092
5.895997,-0.112566,-0.729882,9.832753,0.013455,-0.285180,-0.227559,-1.586914,-0.762939,-12.817383
5.906067,0.038919,-0.644859,10.362651,0.164940,-0.200157,0.302339,-1.495361,-0.885010,-14.709473
5.916134,0.526904,-0.629291,10.146500,0.652925,-0.184589,0.086189,-1.281738,-0.762939,-15.686035
5.926205,0.107776,-0.533491,10.029144,0.233797,-0.088789,-0.031167,0.152588,0.488281,-14.892578
5.936276,0.157473,-0.492775,10.027348,0.283493,-0.048073,-0.032964,-0.396729,0.885010,-14.373779
5.946342,-0.023351,-0.531096,9.970466,0.102669,-0.086394,-0.089845,-2.746582,2.655029,-12.908936
5.956413,0.181423,-0.596959,9.953102,0.307443,-0.152257,-0.107209,-2.777100,2.899170,-13.183594
5.966483,0.355062,-0.678389,9.893227,0.481082,-0.233687,-0.167085,1.770020,2.563477,-8.361816
5.976550,0.085622,-0.817899,9.713600,0.211643,-0.373197,-0.346711,1.922607,2.014160,-6.408691
5.986620,0.004191,-0.699346,10.141710,0.130212,-0.254644,0.081398,1.556396,0.457764,-5.859375
5.996691,0.150886,-0.575403,9.984836,0.276907,-0.130701,-0.075475,-0.518799,0.427246,-1.953125
6.006759,0.002994,-0.804727,9.815988,0.129014,-0.360025,-0.244324,-1.251221,-0.518799,-2.288818
6.016832,0.279020,-0.956212,9.893227,0.405040,-0.511510,-0.167085,-1.068115,-1.434326,1.342773
6.026904,0.445474,-0.805325,10.174043,0.571494,-0.360623,0.113731,-0.183105,-2.319336,4.089355
6.036970,0.353864,-0.746049,9.901609,0.479885,-0.301347,-0.158702,1.312256,0.610352,5.889893
6.047041,0.259860,-0.659229,9.978849,0.385880,-0.214527,-0.081463,0.976562,1.434326,6.256104
6.057112,0.268841,-0.535886,10.049502,0.394862,-0.091184,-0.010810,1.312256,1.281738,8.392334
6.067224,0.203577,-0.461640,10.006990,0.329597,-0.016938,-0.053321,-0.122070,-0.610352,8.087158
6.077296,0.526904,-0.710123,10.113569,0.652925,-0.265421,0.053257,-0.640869,-0.366211,6.195068
6.087365,0.274230,-0.764610,10.190808,0.400250,-0.319908,0.130496,-0.396729,-0.549316,5.523682
6.097431,0.237706,-0.781375,10.302177,0.363726,-0.336673,0.241865,0.122070,0.579834,6.927490
6.107504,0.671803,-0.940644,10.174043,0.797824,-0.495942,0.113731,-1.281738,1.922607,8.605957
6.117574,0.172441,-0.694556,9.972263,0.298462,-0.249854,-0.088049,-1.464844,1.861572,6.744385
6.127640,0.573607,-0.553848,10.011182,0.699628,-0.109146,-0.049130,-1.434326,1.159668,6.072998
6.137712,0.505948,-0.961002,10.171049,0.631969,-0.516300,0.110737,-1.129150,0.152588,5.981445
6.147783,0.631686,-0.884361,10.006990,0.757707,-0.439659,-0.053321,0.823975,-0.152588,6.530762
6.157850,0.125739,-0.908910,9.974059,0.251759,-0.464208,-0.086253,2.014160,-1.098633,8.300781
6.167921,-0.115560,-0.745450,9.954300,0.010461,-0.300748,-0.106012,2.380371,-0.915527,8.728027
6.177992,0.431702,-0.732876,9.999805,0.557723,-0.288174,-0.060506,0.274658,-0.946045,8.819580
6.188058,0.017364,-0.643661,9.918973,0.143385,-0.198960,-0.141338,-0.244141,-0.396729,7.843018
6.198129,-0.052690,-0.756227,10.016570,0.073330,-0.311525,-0.043741,-1.464844,-0.427246,7.751465
6.208201,0.039518,-0.613724,10.045909,0.165539,-0.169022,-0.014402,-0.946045,-0.701904,8.087158
6.218266,0.121547,-0.433499,10.017768,0.247568,0.011203,-0.042544,-0.701904,-0.579834,8.483887
6.228337,0.247885,-0.712518,9.984238,0.373905,-0.267816,-0.076074,-1.892090,-0.061035,7.080078
6.238409,0.094005,-0.751437,10.236912,0.220025,-0.306735,0.176601,-1.220703,0.274658,7.141113
6.248475,-0.189805,-0.408950,10.141710,-0.063785,0.035752,0.081398,-1.831055,1.831055,7.324219
6.258547,-0.032333,-0.371228,10.174642,0.093688,0.073474,0.114330,-2.716064,1.556396,4.791260
6.268618,0.189805,-0.437091,10.292596,0.315826,0.007611,0.232285,-2.593994,0.488281,3.143311
6.278684,0.058079,-0.811912,10.146500,0.184100,-0.367210,0.086189,-1.159668,-0.183105,3.051758
6.288755,-0.260458,-0.658630,10.153087,-0.134438,-0.213928,0.092775,1.495361,-0.671387,2.777100
6.298826,0.199385,-0.796943,9.886042,0.325406,-0.352241,-0.174270,2.868652,-0.549316,4.943848
6.308893,-0.146695,-0.744851,9.794432,-0.020674,-0.300149,-0.265879,1.892090,-0.183105,6.164551
6.318964,-0.134720,-0.570015,10.018965,-0.008699,-0.125313,-0.041346,-1.342773,0.091553,4.608154
6.329035,0.111967,-0.564626,9.965676,0.237988,-0.119924,-0.094635,-0.823975,0.549316,2.746582
6.339102,0.242496,-0.444875,9.929152,0.368516,-0.000173,-0.131160,-0.488281,0.823975,1.159668
6.349173,0.348475,-0.538281,10.051897,0.474496,-0.093579,-0.008415,-0.091553,-0.030518,-4.119873
6.359244,0.548459,-0.583187,10.029144,0.674480,-0.138485,-0.031167,0.457764,-0.762939,-6.866455
6.369310,0.282612,-0.432301,10.037527,0.408633,0.012401,-0.022785,1.678467,-1.739502,-7.995605
6.379382,0.504152,-0.416135,10.159673,0.630172,0.028567,0.099361,1.373291,-1.922607,-7.171631
6.389454,0.280816,-0.462239,10.013577,0.406837,-0.017537,-0.046735,1.220703,-1.190186,-10.803223
6.399519,0.169448,-0.498763,10.147698,0.295468,-0.054061,0.087386,0.793457,-1.007080,-12.268066
6.409591,-0.004191,-0.457449,10.030342,0.121829,-0.012747,-0.029970,0.732422,-0.793457,-9.338379
6.419665,0.061672,-0.216151,9.940529,0.187692,0.228551,-0.119783,2.014160,-0.305176,-5.950928
6.429732,-0.237107,-0.737067,10.087822,-0.111086,-0.292365,0.027511,-0.701904,0.030518,-5.371094
6.439803,0.137115,-0.799338,10.114167,0.263136,-0.354636,0.053856,-0.488281,0.305176,-6.652832
6.449875,0.411345,-0.946033,10.019564,0.537365,-0.501331,-0.040748,0.671387,0.793457,-4.516602
6.459941,-0.068258,-0.433499,9.990225,0.057763,0.011203,-0.070087,-0.305176,0.183105,1.007080
6.470013,-0.396974,0.137115,10.057286,-0.270954,0.581817,-0.003026,-0.610352,-0.030518,2.288818
6.480084,-0.028141,0.043709,9.951306,0.097879,0.488411,-0.109006,-0.701904,0.122070,4.302979
6.490150,-0.078437,-0.283810,10.120155,0.047584,0.160892,0.059843,-1.190186,0.427246,3.265381
6.500222,-0.362845,-0.208367,10.054292,-0.236825,0.236335,-0.006020,-1.678467,0.640869,3.082275
6.510293,-0.289199,-0.395178,10.027348,-0.163178,0.049524,-0.032964,-0.976562,0.244141,6.072998
6.520360,-0.216749,-0.625699,10.052496,-0.090729,-0.180997,-0.007816,-0.976562,0.122070,4.333496
6.530432,-0.409548,-0.716111,10.236912,-0.283528,-0.271409,0.176601,2.044678,0.244141,5.157471
6.540503,-0.253273,-0.382006,10.140513,-0.127253,0.062696,0.080201,1.983643,-0.518799,7.598877
6.550569,-0.605940,-0.556243,10.359058,-0.479919,-0.111541,0.298747,0.671387,-1.373291,9.338379
6.560641,-0.190404,-0.357457,9.985435,-0.064383,0.087245,-0.074877,2.960205,-1.495361,9.338379
6.570713,-0.135917,-0.513133,10.129136,-0.009897,-0.068431,0.068825,2.655029,-1.556396,11.047363
6.580783,-0.370031,-0.655637,9.971664,-0.244010,-0.210935,-0.088648,2.075195,-2.014160,12.725830
6.590850,-0.102387,-0.756826,10.016570,0.023634,-0.312124,-0.043741,1.770020,-1.953125,14.648438
6.600922,-0.160466,-0.556243,10.277029,-0.034446,-0.111541,0.216717,-0.244141,-2.349854,18.371582
6.610993,0.001796,-0.685574,9.989028,0.127817,-0.240872,-0.071284,-0.213623,-1.983643,18.859863
6.621060,-0.114362,-1.004711,10.415940,0.011659,-0.560009,0.355628,1.678467,-2.899170,19.592285
6.631125,0.336500,-0.434696,10.089020,0.462521,0.010006,0.028708,0.793457,-2.593994,22.583008
6.641192,0.412542,-0.655637,9.948312,0.538563,-0.210935,-0.111999,0.213623,-2.746582,22.979736
6.651258,0.412542,-0.291594,10.015373,0.538563,0.153108,-0.044939,-0.122070,-1.892090,22.003174
6.661324,0.481998,-0.393981,9.860295,0.608018,0.050721,-0.200016,-0.183105,-1.007080,21.759033
6.671390,0.411345,-0.410147,10.063273,0.537365,0.034555,0.002962,-0.976562,0.335693,20.446777
6.681456,0.499960,-0.454455,10.072853,0.625981,-0.009753,0.012542,-0.915527,0.183105,19.226074
6.691522,0.636476,-0.342488,10.087224,0.762497,0.102214,0.026912,-0.305176,-0.244141,14.831543
6.701594,0.427511,-0.502355,10.103989,0.553532,-0.057653,0.043677,0.488281,-1.068115,13.153076
6.711661,0.370629,-0.528102,10.085427,0.496650,-0.083400,0.025116,0.244141,-1.373291,12.115479
6.721727,0.496368,-0.621508,10.052496,0.622388,-0.176806,-0.007816,0.000000,-1.129150,9.796143
6.731793,0.231718,-0.747845,10.030941,0.357739,-0.303143,-0.029371,-1.495361,-1.159668,8.300781
6.741859,0.164658,-0.702339,10.054891,0.290678,-0.257637,-0.005421,-1.068115,-1.464844,6.896973
6.751925,0.283810,-0.689167,9.983040,0.409831,-0.244465,-0.077272,-0.885010,-2.014160,6.683350
6.761991,0.286205,-0.853226,10.072255,0.412226,-0.408524,0.011943,-1.037598,-2.136230,5.187988
6.772057,0.103585,-0.813109,10.072255,0.229605,-0.368407,0.011943,-0.854492,-2.014160,4.882812
6.782123,-0.156874,-0.737666,9.975855,-0.030853,-0.292964,-0.084457,-0.701904,-1.892090,5.432129
6.792189,0.328118,-0.923280,9.986633,0.454138,-0.478578,-0.073679,-0.183105,-1.281738,7.629395
6.802255,0.270038,-0.821492,9.950109,0.396059,-0.376790,-0.110203,0.305176,-0.915527,7.934570
6.812321,-0.096998,-0.535287,9.951905,0.029022,-0.090585,-0.108407,0.305176,-1.281738,11.352539
6.822387,0.283211,-0.492775,10.099797,0.409232,-0.048073,0.039486,0.213623,-1.647949,12.847900
6.832453,0.238304,-0.543071,9.917776,0.364325,-0.098369,-0.142536,-0.549316,-1.495361,11.627197
6.842520,0.186812,-0.573607,10.077643,0.312832,-0.128905,0.017332,0.183105,-1.922607,11.260986
6.852637,0.449066,-0.544268,10.069261,0.575087,-0.099566,0.008949,-0.396729,-2.288818,11.596680
6.862735,0.370629,-0.298180,9.884246,0.496650,0.146522,-0.176066,0.366211,-1.892090,10.711670
6.872833,0.643661,-0.330513,10.092014,0.769682,0.114189,0.031702,-0.274658,-2.136230,9.338379
6.882928,0.456850,-0.298779,10.048903,0.582871,0.145923,-0.011409,-0.122070,-1.525879,6.896973
6.893024,0.524509,-0.347877,10.082433,0.650530,0.096825,0.022122,-0.305176,-1.342773,5.340576
6.903122,0.656235,-0.340093,9.966874,0.782256,0.104609,-0.093438,0.610352,-1.159668,1.739502
6.913220,0.494572,-0.390388,9.949510,0.620592,0.054314,-0.110802,0.274658,-1.708984,0.427246
6.923317,0.704136,-0.267643,10.060280,0.830156,0.177059,-0.000032,0.305176,-2.075195,-2.777100
6.933415,0.470023,-0.483195,10.151290,0.596043,-0.038493,0.090979,-0.091553,-1.770020,-2.838135
6.943510,0.577798,-0.449066,10.054292,0.703819,-0.004364,-0.006020,0.610352,-1.464844,-2.929688
6.953735,0.612526,-0.522713,10.033336,0.738547,-0.078011,-0.026976,1.220703,-1.007080,-3.082275
6.963847,0.359253,-0.513133,10.054891,0.485274,-0.068431,-0.005421,0.823975,-0.762939,-2.624512
6.973935,0.683179,-0.532293,10.057286,0.809200,-0.087591,-0.003026,1.312256,-0.091553,-2.044678
6.984022,0.564626,-0.618514,10.029743,0.690647,-0.173812,-0.030569,0.946045,0.122070,-1.739502
6.994109,0.752635,-0.620909,10.049502,0.878656,-0.176207,-0.010810,2.502441,1.037598,-1.861572
7.004195,0.404160,-0.316143,10.068063,0.530180,0.128559,0.007752,3.082275,1.281738,-0.854492
7.014282,0.422122,-0.382604,10.050101,0.548143,0.062098,-0.010211,1.831055,0.701904,-0.061035
7.024369,0.417931,-0.370629,10.065070,0.543952,0.074073,0.004758,0.610352,0.427246,-2.349854
7.034455,0.518522,-0.434097,10.099199,0.644542,0.010605,0.038887,1.342773,0.915527,-3.387451
7.044543,0.047900,-0.467029,10.044712,0.173921,-0.022327,-0.015600,0.274658,0.488281,-2.746582
7.054630,0.428708,-0.395178,10.032737,0.554729,0.049524,-0.027575,0.244141,0.671387,-3.051758
7.064717,0.478405,-0.400567,10.048304,0.604426,0.044135,-0.012007,0.366211,0.610352,-4.241943
7.074803,0.292192,-0.361049,10.089619,0.418213,0.083653,0.029307,0.274658,0.274658,-4.852295
7.084890,0.254471,-0.351469,10.036928,0.380492,0.093233,-0.023384,0.488281,0.549316,-5.249023
7.094977,0.284409,-0.356259,10.076446,0.410429,0.088443,0.016134,0.488281,0.335693,-4.913330
7.105064,0.259261,-0.344883,10.044113,0.385282,0.099819,-0.016199,0.427246,0.457764,-4.333496
7.115151,0.320334,-0.355660,10.049502,0.446355,0.089042,-0.010810,0.732422,0.610352,-4.455566
7.125238,0.275427,-0.382006,10.060280,0.401448,0.062696,-0.000032,0.640869,0.396729,-4.699707
7.135326,0.114961,-0.398771,10.087822,0.240982,0.045931,0.027511,0.610352,0.732422,-3.173828
7.145412,0.056882,-0.449665,10.055490,0.182902,-0.004963,-0.004822,0.610352,1.007080,-2.105713
7.155502,0.111368,-0.471819,10.100995,0.237389,-0.027117,0.040683,0.396729,1.739502,-1.068115
7.165596,-0.140109,-0.530497,10.066267,-0.014088,-0.085795,0.005955,0.427246,2.319336,-0.488281
7.175691,-0.238304,-0.501757,9.992021,-0.112284,-0.057055,-0.068290,0.244141,1.800537,0.000000
7.185784,-0.179028,-0.499362,10.065070,-0.053007,-0.054660,0.004758,-0.061035,0.122070,0.885010
7.195881,-0.285606,-0.458047,10.051298,-0.159585,-0.013345,-0.009014,-0.061035,0.213623,1.831055
7.205974,-0.170046,-0.496368,10.065070,-0.044026,-0.051666,0.004758,-0.427246,-0.122070,3.448486
7.216069,-0.001796,-0.465831,10.071057,0.124224,-0.021129,0.010745,-0.518799,-0.213623,4.089355
7.226161,0.177231,-0.440684,10.090816,0.303252,0.004018,0.030504,-0.701904,-0.213623,4.364014
7.236258,-0.132325,-0.371827,10.088421,-0.006304,0.072875,0.028109,-0.762939,-0.152588,4.425049
7.246350,-0.144899,-0.368833,10.101594,-0.018878,0.075869,0.041282,-0.854492,0.061035,4.669189
7.256518,0.024549,-0.370629,10.054891,0.150570,0.074073,-0.005421,-1.098633,0.274658,4.425049
7.266606,0.102387,-0.387394,10.068063,0.228408,0.057308,0.007752,-1.190186,-0.030518,3.662109
7.276694,0.137714,-0.386796,10.057885,0.263734,0.057906,-0.002427,-2.044678,-0.579834,0.427246
7.286780,0.173639,-0.372426,10.042916,0.299660,0.072276,-0.017396,-2.807617,-1.342773,-1.525879
7.296870,0.233514,-0.404160,10.038724,0.359535,0.040542,-0.021587,-4.150391,-2.899170,-3.967285
7.306957,0.237107,-0.534688,10.084230,0.363128,-0.089986,0.023918,-4.058838,-2.807617,-3.479004
7.317046,0.096400,-0.558638,10.038724,0.222420,-0.113936,-0.021587,-3.814697,-2.532959,-2.319336
7.327134,0.180824,-0.781375,10.091415,0.306845,-0.336673,0.031103,-5.279541,-3.570557,-1.312256
7.337222,0.161664,-0.772993,10.074650,0.287685,-0.328291,0.014338,-2.746582,-2.136230,-1.190186
7.347311,0.024549,-0.619113,10.076446,0.150570,-0.174411,0.016134,-0.213623,-0.030518,-0.732422
7.357422,-0.028740,-0.562830,10.053094,0.097280,-0.118128,-0.007217,-0.091553,0.061035,-0.549316
7.367511,-0.070054,-0.527503,10.036928,0.055966,-0.082801,-0.023384,-1.373291,-1.342773,-0.305176
7.377598,0.012574,-0.601749,10.094409,0.138595,-0.157047,0.034097,-0.732422,-0.885010,-0.244141
7.387687,-0.048499,-0.545466,10.064471,0.077522,-0.100764,0.004159,-0.244141,-0.335693,-0.183105
7.397776,-0.026944,-0.564027,10.073452,0.099077,-0.119325,0.013140,-0.244141,-0.335693,-0.091553
7.407865,-0.041314,-0.541873,10.080038,0.084707,-0.097171,0.019727,-0.244141,-0.305176,-0.030518
7.417954,-0.045505,-0.546064,10.070458,0.080515,-0.101362,0.010147,-0.152588,-0.183105,0.030518
7.428043,-0.043709,-0.544268,10.071057,0.082312,-0.099566,0.010745,-0.061035,-0.122070,0.000000
7.438133,-0.037123,-0.544867,10.072255,0.088898,-0.100165,0.011943,0.030518,-0.061035,0.000000
7.448222,-0.043110,-0.541274,10.074051,0.082910,-0.096572,0.013739,0.000000,-0.061035,0.030518
7.458377,-0.045505,-0.540676,10.077045,0.080515,-0.095974,0.016733,0.152588,0.030518,0.000000
7.468475,-0.050894,-0.541274,10.071656,0.075127,-0.096572,0.011344,0.183105,0.030518,0.000000
7.478573,-0.048499,-0.541873,10.066866,0.077522,-0.097171,0.006554,0.213623,0.061035,0.000000
7.488672,-0.053888,-0.536484,10.056687,0.072133,-0.091782,-0.003625,0.244141,0.091553,-0.030518
7.498769,-0.052092,-0.534688,10.057286,0.073929,-0.089986,-0.003026,0.244141,0.091553,0.000000
7.508867,-0.045505,-0.540676,10.066267,0.080515,-0.095974,0.005955,0.244141,0.122070,0.000000
7.518965,-0.049697,-0.538281,10.065668,0.076324,-0.093579,0.005357,0.244141,0.091553,-0.030518
7.529062,-0.052092,-0.535886,10.062076,0.073929,-0.091184,0.001764,0.183105,0.091553,0.000000
7.539159,-0.055684,-0.532892,10.063872,0.070336,-0.088190,0.003560,0.122070,0.061035,0.000000
7.549256,-0.054487,-0.531096,10.060878,0.071534,-0.086394,0.000567,0.122070,0.061035,0.000000
7.559427,-0.050295,-0.537083,10.063273,0.075725,-0.092381,0.002962,0.091553,0.061035,-0.030518
7.569519,-0.053888,-0.533491,10.060280,0.072133,-0.088789,-0.000032,0.091553,0.061035,0.000000
7.579609,-0.052690,-0.531096,10.059681,0.073330,-0.086394,-0.000631,0.061035,0.030518,0.030518
7.589700,-0.053888,-0.524509,10.062675,0.072133,-0.079807,0.002363,0.030518,0.061035,0.030518
7.599790,-0.054487,-0.528102,10.068662,0.071534,-0.083400,0.008350,0.030518,0.030518,0.030518
7.609881,-0.055684,-0.534688,10.066267,0.070336,-0.089986,0.005955,0.030518,0.061035,0.030518
7.619972,-0.057480,-0.535287,10.065070,0.068540,-0.090585,0.004758,0.000000,0.061035,0.030518
7.630063,-0.057480,-0.529898,10.063273,0.068540,-0.085196,0.002962,0.030518,0.030518,0.030518
7.640151,-0.055085,-0.529898,10.057286,0.070935,-0.085196,-0.003026,0.000000,0.000000,0.030518
7.650242,-0.049098,-0.534688,10.054891,0.076923,-0.089986,-0.005421,-0.030518,0.030518,0.030518
7.660356,-0.053888,-0.527503,10.053094,0.072133,-0.082801,-0.007217,-0.030518,0.000000,0.030518
7.670447,-0.055684,-0.524509,10.051298,0.070336,-0.079807,-0.009014,-0.061035,0.061035,0.061035
7.680538,-0.062869,-0.537083,10.047107,0.063151,-0.092381,-0.013205,-0.030518,0.061035,0.061035
7.690629,-0.060474,-0.538879,10.048304,0.065546,-0.094177,-0.012007,-0.030518,0.091553,0.061035
7.700719,-0.061672,-0.538879,10.060878,0.064349,-0.094177,0.000567,-0.030518,0.061035,0.030518
7.710812,-0.057480,-0.535287,10.059681,0.068540,-0.090585,-0.000631,-0.030518,0.061035,0.061035
7.720902,-0.054487,-0.535287,10.058483,0.071534,-0.090585,-0.001828,0.000000,0.061035,0.091553
7.730994,-0.053888,-0.531096,10.054292,0.072133,-0.086394,-0.006020,0.000000,0.061035,0.061035
7.741085,-0.065264,-0.532892,10.053094,0.060756,-0.088190,-0.007217,0.030518,0.091553,0.061035
7.751204,-0.065264,-0.526904,10.057885,0.060756,-0.082202,-0.002427,0.000000,0.091553,0.030518
7.761333,-0.053888,-0.530497,10.064471,0.072133,-0.085795,0.004159,0.030518,0.061035,0.061035
7.771425,-0.054487,-0.530497,10.058483,0.071534,-0.085795,-0.001828,0.000000,0.061035,0.030518
7.781516,-0.052690,-0.528701,10.057286,0.073330,-0.083999,-0.003026,0.030518,0.091553,0.030518
7.791606,-0.050894,-0.529299,10.047107,0.075127,-0.084597,-0.013205,0.030518,0.122070,0.030518
7.801696,-0.054487,-0.523911,10.052496,0.071534,-0.079209,-0.007816,0.061035,0.091553,0.061035
7.811786,-0.052092,-0.521516,10.055490,0.073929,-0.076814,-0.004822,0.061035,0.061035,0.030518
7.821877,-0.051493,-0.528102,10.047107,0.074528,-0.083400,-0.013205,0.091553,0.091553,0.030518
7.831968,-0.052690,-0.529299,10.045311,0.073330,-0.084597,-0.015001,0.152588,0.091553,0.000000
7.842058,-0.044907,-0.530497,10.047107,0.081114,-0.085795,-0.013205,0.122070,0.061035,0.000000
7.852148,-0.046703,-0.532892,10.050699,0.079318,-0.088190,-0.009612,0.213623,0.061035,0.000000
7.862263,-0.041314,-0.524509,10.050699,0.084707,-0.079807,-0.009612,0.274658,0.122070,-0.030518
7.872353,-0.043709,-0.528701,10.048304,0.082312,-0.083999,-0.012007,0.305176,0.152588,-0.030518
7.882443,-0.045505,-0.531694,10.050699,0.080515,-0.086992,-0.009612,0.396729,0.152588,-0.030518
7.892534,-0.050894,-0.528701,10.054292,0.075127,-0.083999,-0.006020,0.427246,0.183105,-0.030518
7.902624,-0.049098,-0.526904,10.055490,0.076923,-0.082202,-0.004822,0.396729,0.183105,-0.030518
7.912714,-0.055085,-0.518522,10.049502,0.070935,-0.073820,-0.010810,0.366211,0.183105,-0.030518
7.922804,-0.057480,-0.520318,10.051897,0.068540,-0.075616,-0.008415,0.305176,0.183105,-0.030518
7.932894,-0.047900,-0.524509,10.048304,0.078120,-0.079807,-0.012007,0.213623,0.152588,-0.061035
7.942985,-0.053289,-0.527503,10.052496,0.072732,-0.082801,-0.007816,0.213623,0.122070,-0.030518
7.953076,-0.052690,-0.529898,10.056687,0.073330,-0.085196,-0.003625,0.152588,0.091553,-0.030518
7.963254,-0.054487,-0.528102,10.057286,0.071534,-0.083400,-0.003026,0.122070,0.091553,0.000000
7.973352,-0.060474,-0.526306,10.048903,0.065546,-0.081604,-0.011409,0.061035,0.122070,0.000000
7.983450,-0.067659,-0.531694,10.044113,0.058361,-0.086992,-0.016199,0.061035,0.091553,0.000000
7.993546,-0.062271,-0.534089,10.048304,0.063750,-0.089387,-0.012007,0.091553,0.091553,0.000000
8.003640,-0.057480,-0.524509,10.058483,0.068540,-0.079807,-0.001828,0.122070,0.091553,0.030518
8.013738,-0.056283,-0.520917,10.061477,0.069738,-0.076215,0.001165,0.122070,0.061035,0.030518
8.023832,-0.056283,-0.526306,10.053693,0.069738,-0.081604,-0.006618,0.122070,0.122070,0.000000
8.033924,-0.052690,-0.527503,10.047706,0.073330,-0.082801,-0.012606,0.152588,0.122070,0.000000
8.044021,-0.049697,-0.523911,10.045311,0.076324,-0.079209,-0.015001,0.152588,0.091553,0.000000
8.054117,-0.047302,-0.522713,10.047706,0.078719,-0.078011,-0.012606,0.152588,0.122070,-0.030518
8.064210,-0.049098,-0.519719,10.049502,0.076923,-0.075017,-0.010810,0.274658,0.122070,0.030518
8.074306,-0.049098,-0.517324,10.045311,0.076923,-0.072622,-0.015001,0.305176,0.122070,0.030518
8.084399,-0.051493,-0.517324,10.047706,0.074528,-0.072622,-0.012606,0.335693,0.152588,0.030518
8.094492,-0.041314,-0.529299,10.054891,0.084707,-0.084597,-0.005421,0.579834,0.244141,0.030518
8.104584,-0.041314,-0.520318,10.058483,0.084707,-0.075616,-0.001828,0.732422,0.274658,0.000000
8.114678,-0.050894,-0.509540,10.062076,0.075127,-0.064838,0.001764,0.610352,0.274658,-0.030518
8.124771,-0.053289,-0.511935,10.053693,0.072732,-0.067233,-0.006618,0.518799,0.244141,-0.030518
8.134864,-0.056283,-0.519719,10.051897,0.069738,-0.075017,-0.008415,0.274658,0.213623,-0.061035
8.144957,-0.059875,-0.517324,10.057286,0.066145,-0.072622,-0.003026,0.213623,0.183105,-0.030518
8.155049,-0.057480,-0.519120,10.065070,0.068540,-0.074418,0.004758,0.183105,0.152588,-0.030518
8.165142,-0.057480,-0.518522,10.060280,0.068540,-0.073820,-0.000032,0.152588,0.152588,0.000000
8.175236,-0.061073,-0.516127,10.061477,0.064948,-0.071425,0.001165,0.152588,0.152588,0.030518
8.185329,-0.055684,-0.528701,10.053693,0.070336,-0.083999,-0.006618,0.091553,0.152588,-0.030518
8.195424,-0.055684,-0.528102,10.055490,0.070336,-0.083400,-0.004822,0.122070,0.152588,-0.030518
8.205518,-0.055684,-0.525108,10.064471,0.070336,-0.080406,0.004159,0.122070,0.091553,0.000000
8.215612,-0.046703,-0.525707,10.062675,0.079318,-0.081005,0.002363,0.091553,0.061035,0.000000
8.225706,-0.044907,-0.522114,10.059082,0.081114,-0.077412,-0.001230,0.091553,0.061035,0.000000
8.235802,-0.047900,-0.520318,10.055490,0.078120,-0.075616,-0.004822,0.061035,0.061035,0.000000
8.245898,-0.052690,-0.520318,10.059681,0.073330,-0.075616,-0.000631,0.061035,0.061035,0.000000
8.255992,-0.059875,-0.512534,10.065070,0.066145,-0.067832,0.004758,0.030518,0.061035,0.030518
8.266116,-0.056882,-0.517923,10.060280,0.069139,-0.073221,-0.000032,0.061035,0.091553,0.061035
8.276213,-0.057480,-0.514330,10.065070,0.068540,-0.069628,0.004758,0.000000,0.061035,0.030518
8.286307,-0.055085,-0.510139,10.066267,0.070935,-0.065437,0.005955,0.000000,0.061035,0.030518
8.296404,-0.056283,-0.508343,10.068662,0.069738,-0.063641,0.008350,0.000000,0.030518,0.061035
8.306498,-0.061073,-0.509540,10.069261,0.064948,-0.064838,0.008949,-0.030518,0.061035,0.061035
8.316594,-0.060474,-0.516725,10.068662,0.065546,-0.072023,0.008350,0.000000,0.091553,0.061035
8.326689,-0.058079,-0.513133,10.056088,0.067941,-0.068431,-0.004223,0.030518,0.061035,0.000000
8.336786,-0.054487,-0.513133,10.056687,0.071534,-0.068431,-0.003625,0.030518,0.061035,0.061035
8.346880,-0.057480,-0.514929,10.053094,0.068540,-0.070227,-0.007217,0.061035,0.030518,0.061035
8.356977,-0.052092,-0.508942,10.062675,0.073929,-0.064240,0.002363,0.061035,0.061035,0.061035
8.367097,-0.053888,-0.513133,10.065070,0.072133,-0.068431,0.004758,0.000000,0.061035,0.091553
8.377194,-0.058678,-0.515528,10.056088,0.067343,-0.070826,-0.004223,0.030518,0.061035,0.061035
8.387290,-0.056283,-0.519120,10.056687,0.069738,-0.074418,-0.003625,0.030518,0.091553,0.030518
8.397387,-0.058079,-0.529299,10.055490,0.067941,-0.084597,-0.004822,0.030518,0.091553,0.030518
8.407483,-0.052690,-0.523312,10.066866,0.073330,-0.078610,0.006554,0.030518,0.091553,0.061035
8.417581,-0.058678,-0.516127,10.059082,0.067343,-0.071425,-0.001230,0.122070,0.122070,0.061035
8.427679,-0.064067,-0.514929,10.060878,0.061954,-0.070227,0.000567,0.122070,0.122070,0.030518
8.437776,-0.061073,-0.511935,10.059681,0.064948,-0.067233,-0.000631,0.122070,0.122070,0.030518
8.447872,-0.064666,-0.513133,10.062675,0.061355,-0.068431,0.002363,0.122070,0.122070,0.030518
8.457969,-0.070054,-0.507145,10.068662,0.055966,-0.062443,0.008350,0.183105,0.152588,0.000000
8.468095,-0.062271,-0.510738,10.068662,0.063750,-0.066036,0.008350,0.213623,0.122070,0.000000
8.478191,-0.067659,-0.513133,10.068063,0.058361,-0.068431,0.007752,0.183105,0.122070,-0.030518
8.488285,-0.060474,-0.512534,10.057885,0.065546,-0.067832,-0.002427,0.183105,0.091553,-0.030518
8.498382,-0.064067,-0.509540,10.056687,0.061954,-0.064838,-0.003625,0.152588,0.091553,-0.030518
8.508479,-0.065264,-0.510738,10.063872,0.060756,-0.066036,0.003560,0.091553,0.091553,0.000000
8.518574,-0.067659,-0.508343,10.059082,0.058361,-0.063641,-0.001230,0.091553,0.091553,-0.030518
8.528671,-0.062869,-0.508942,10.060878,0.063151,-0.064240,0.000567,0.030518,0.061035,-0.030518
8.538768,-0.058678,-0.508942,10.066267,0.067343,-0.064240,0.005955,0.061035,0.061035,-0.030518
8.548865,-0.061672,-0.510738,10.066267,0.064349,-0.066036,0.005955,0.000000,0.061035,0.000000
8.558962,-0.059277,-0.508942,10.074051,0.066744,-0.064240,0.013739,0.000000,0.122070,0.000000
8.569085,-0.058079,-0.509540,10.071057,0.067941,-0.064838,0.010745,0.000000,0.091553,0.000000
8.579211,-0.056283,-0.514330,10.060878,0.069738,-0.069628,0.000567,0.000000,0.030518,0.000000
8.589308,-0.056882,-0.513133,10.056687,0.069139,-0.068431,-0.003625,-0.030518,0.030518,-0.030518
8.599405,-0.056283,-0.510738,10.064471,0.069738,-0.066036,0.004159,-0.091553,0.000000,0.030518
8.609502,-0.058678,-0.509540,10.063872,0.067343,-0.064838,0.003560,-0.061035,-0.030518,0.061035
8.619599,-0.055085,-0.508942,10.062675,0.070935,-0.064240,0.002363,-0.061035,-0.030518,0.061035
8.629699,-0.049098,-0.508343,10.062675,0.076923,-0.063641,0.002363,-0.030518,0.000000,0.061035
8.639797,-0.057480,-0.509540,10.054292,0.068540,-0.064838,-0.006020,0.000000,0.030518,0.030518
8.649894,-0.059875,-0.505349,10.056687,0.066145,-0.060647,-0.003625,-0.030518,0.030518,0.030518
8.659992,-0.065863,-0.507744,10.062675,0.060158,-0.063042,0.002363,0.000000,0.061035,0.030518
8.670115,-0.059875,-0.510738,10.060280,0.066145,-0.066036,-0.000032,0.000000,0.061035,-0.030518
8.680215,-0.059875,-0.514929,10.065668,0.066145,-0.070227,0.005357,0.030518,0.061035,0.000000
8.690313,-0.058678,-0.515528,10.063273,0.067343,-0.070826,0.002962,0.030518,0.091553,0.000000
8.700414,-0.058678,-0.510139,10.071656,0.067343,-0.065437,0.011344,0.030518,0.091553,0.030518
8.710512,-0.053888,-0.508942,10.071057,0.072133,-0.064240,0.010745,0.000000,0.061035,0.030518
8.720613,-0.047900,-0.508343,10.066866,0.078120,-0.063641,0.006554,0.122070,0.061035,0.030518
8.730709,-0.046104,-0.505349,10.060878,0.079917,-0.060647,0.000567,0.152588,0.061035,0.030518
8.740859,-0.048499,-0.504750,10.059681,0.077522,-0.060048,-0.000631,0.152588,0.122070,0.000000
8.750953,-0.052690,-0.502355,10.065668,0.073330,-0.057653,0.005357,0.213623,0.122070,0.000000
8.761051,-0.056882,-0.504750,10.066866,0.069139,-0.060048,0.006554,0.335693,0.183105,-0.030518
8.771283,-0.059875,-0.511935,10.066267,0.066145,-0.067233,0.005955,0.427246,0.244141,0.000000
8.781370,-0.061672,-0.516725,10.066267,0.064349,-0.072023,0.005955,0.640869,0.274658,0.000000
8.791456,-0.062869,-0.527503,10.065668,0.063151,-0.082801,0.005357,1.129150,0.396729,-0.152588
8.801540,-0.060474,-0.519719,10.071057,0.065546,-0.075017,0.010745,1.342773,0.488281,-0.152588
8.811626,-0.074246,-0.481998,10.068662,0.051775,-0.037296,0.008350,1.434326,0.549316,-0.152588
8.821710,-0.067061,-0.485590,10.067465,0.058960,-0.040888,0.007153,1.129150,0.396729,-0.122070
8.831796,-0.068258,-0.492775,10.068063,0.057763,-0.048073,0.007752,0.701904,0.274658,-0.061035
8.841880,-0.065264,-0.496967,10.059082,0.060756,-0.052265,-0.001230,0.549316,0.213623,-0.061035
8.851965,-0.065863,-0.496368,10.067465,0.060158,-0.051666,0.007153,0.457764,0.183105,-0.030518
8.862050,-0.070054,-0.498763,10.069860,0.055966,-0.054061,0.009548,0.274658,0.122070,0.000000
8.872212,-0.073048,-0.500559,10.068662,0.052973,-0.055857,0.008350,0.244141,0.122070,0.000000
8.882304,-0.068258,-0.495769,10.063273,0.057763,-0.051067,0.002962,0.152588,0.091553,0.000000
8.892394,-0.061672,-0.504750,10.059082,0.064349,-0.060048,-0.001230,0.122070,0.091553,0.000000
8.902485,-0.058079,-0.502954,10.066267,0.067941,-0.058252,0.005955,0.061035,0.091553,0.061035
8.912576,-0.050894,-0.499960,10.060878,0.075127,-0.055258,0.000567,0.061035,0.091553,0.061035
8.922669,-0.050894,-0.501158,10.062076,0.075127,-0.056456,0.001764,0.000000,0.091553,0.061035
8.932760,-0.053289,-0.501757,10.055490,0.072732,-0.057055,-0.004822,0.000000,0.091553,0.030518
8.942851,-0.050894,-0.504152,10.058483,0.075127,-0.059450,-0.001828,0.000000,0.061035,0.061035
8.952941,-0.055684,-0.498763,10.074650,0.070336,-0.054061,0.014338,0.000000,0.061035,0.061035
8.963033,-0.058079,-0.498164,10.078242,0.067941,-0.053462,0.017930,-0.030518,0.030518,0.061035
8.973148,-0.062869,-0.495769,10.071656,0.063151,-0.051067,0.011344,-0.030518,0.030518,0.030518
8.983239,-0.066462,-0.494572,10.071057,0.059559,-0.049870,0.010745,-0.030518,0.061035,0.000000
8.993328,-0.071851,-0.496368,10.065070,0.054170,-0.051666,0.004758,0.000000,0.061035,0.030518
9.003417,-0.074246,-0.495170,10.072853,0.051775,-0.050468,0.012542,0.000000,0.061035,0.000000
9.013508,-0.067659,-0.497565,10.071057,0.058361,-0.052863,0.010745,-0.030518,0.061035,0.000000
9.023599,-0.064666,-0.491578,10.065070,0.061355,-0.046876,0.004758,0.000000,0.091553,0.061035
9.033702,-0.060474,-0.490979,10.058483,0.065546,-0.046277,-0.001828,0.000000,0.091553,0.091553
9.043793,-0.070054,-0.487985,10.062076,0.055966,-0.043283,0.001764,0.030518,0.091553,0.030518
9.053882,-0.071252,-0.489781,10.066267,0.054769,-0.045080,0.005955,0.061035,0.061035,0.061035
9.063985,-0.066462,-0.490979,10.062076,0.059559,-0.046277,0.001764,0.000000,0.061035,0.000000
9.074087,-0.067061,-0.490979,10.059681,0.058960,-0.046277,-0.000631,-0.030518,0.061035,0.061035
9.084175,-0.064067,-0.492775,10.056687,0.061954,-0.048073,-0.003625,0.000000,0.061035,0.030518
9.094276,-0.064067,-0.492775,10.065070,0.061954,-0.048073,0.004758,0.000000,0.061035,0.061035
9.104378,-0.058079,-0.495769,10.061477,0.067941,-0.051067,0.001165,-0.061035,0.061035,0.061035
9.114465,-0.056882,-0.496368,10.060280,0.069139,-0.051666,-0.000032,-0.091553,0.061035,0.061035
9.124567,-0.058678,-0.495769,10.063273,0.067343,-0.051067,0.002962,-0.091553,0.061035,0.061035
9.134668,-0.056882,-0.502954,10.060878,0.069139,-0.058252,0.000567,-0.091553,0.061035,0.061035
9.144757,-0.059277,-0.506547,10.064471,0.066744,-0.061845,0.004159,-0.061035,0.061035,0.091553
9.154858,-0.063468,-0.502355,10.064471,0.062553,-0.057653,0.004159,-0.061035,0.030518,0.061035
9.164959,-0.065863,-0.501158,10.058483,0.060158,-0.056456,-0.001828,-0.061035,0.000000,0.061035
9.175071,-0.067061,-0.497565,10.054891,0.058960,-0.052863,-0.005421,-0.061035,0.000000,0.091553
9.185173,-0.073647,-0.499362,10.052496,0.052374,-0.054660,-0.007816,-0.091553,0.030518,0.091553
9.195275,-0.070653,-0.498164,10.059082,0.055368,-0.053462,-0.001230,-0.091553,0.000000,0.091553
9.205364,-0.074246,-0.501757,10.066866,0.051775,-0.057055,0.006554,-0.091553,0.030518,0.091553
9.215466,-0.077838,-0.501757,10.069261,0.048183,-0.057055,0.008949,-0.030518,0.030518,0.061035
9.225567,-0.085622,-0.502355,10.069860,0.040399,-0.057653,0.009548,0.061035,0.061035,0.030518
9.235656,-0.082628,-0.507145,10.058483,0.043393,-0.062443,-0.001828,0.061035,0.091553,0.030518
9.245757,-0.077838,-0.504152,10.060280,0.048183,-0.059450,-0.000032,0.030518,0.061035,0.000000
9.255861,-0.070653,-0.501757,10.065070,0.055368,-0.057055,0.004758,0.030518,0.091553,0.030518
9.265949,-0.073647,-0.504750,10.066267,0.052374,-0.060048,0.005955,0.030518,0.091553,0.000000
9.276077,-0.066462,-0.501757,10.063273,0.059559,-0.057055,0.002962,0.091553,0.122070,0.000000
9.286179,-0.063468,-0.498164,10.060878,0.062553,-0.053462,0.000567,0.122070,0.122070,0.030518
9.296270,-0.054487,-0.498763,10.066267,0.071534,-0.054061,0.005955,0.122070,0.122070,0.030518
9.306372,-0.061672,-0.497565,10.071656,0.064349,-0.052863,0.011344,0.122070,0.152588,0.000000
9.316475,-0.065264,-0.498164,10.071656,0.060756,-0.053462,0.011344,0.122070,0.122070,0.030518
9.326563,-0.058678,-0.496368,10.061477,0.067343,-0.051666,0.001165,0.122070,0.122070,0.000000
9.336667,-0.057480,-0.489781,10.054292,0.068540,-0.045080,-0.006020,0.122070,0.122070,0.000000
9.346768,-0.058678,-0.505349,10.066866,0.067343,-0.060647,0.006554,0.091553,0.122070,0.000000
9.356858,-0.052690,-0.503553,10.068063,0.073330,-0.058851,0.007752,0.061035,0.091553,0.000000
9.366960,-0.054487,-0.499960,10.066866,0.071534,-0.055258,0.006554,0.030518,0.061035,0.030518
9.377086,-0.061672,-0.495769,10.068662,0.064349,-0.051067,0.008350,0.030518,0.030518,0.030518
9.387201,-0.060474,-0.492775,10.063872,0.065546,-0.048073,0.003560,0.030518,0.030518,0.061035
9.397305,-0.064067,-0.494572,10.066866,0.061954,-0.049870,0.006554,0.061035,0.061035,0.091553
9.407407,-0.056882,-0.496368,10.070458,0.069139,-0.051666,0.010147,0.061035,0.030518,0.091553
9.417499,-0.069456,-0.496967,10.067465,0.056565,-0.052265,0.007153,0.030518,0.030518,0.091553
9.427603,-0.068857,-0.497565,10.065668,0.057164,-0.052863,0.005357,0.030518,0.061035,0.030518
9.437706,-0.066462,-0.493374,10.067465,0.059559,-0.048672,0.007153,0.030518,0.030518,0.030518
9.447798,-0.066462,-0.490380,10.071057,0.059559,-0.045678,0.010745,0.030518,0.030518,0.030518
9.457902,-0.060474,-0.493374,10.075248,0.065546,-0.048672,0.014937,0.030518,0.061035,0.061035
9.468006,-0.059875,-0.491578,10.072255,0.066145,-0.046876,0.011943,0.000000,0.091553,0.061035
9.478123,-0.063468,-0.492177,10.069261,0.062553,-0.047475,0.008949,0.030518,0.122070,0.061035
9.488227,-0.062271,-0.505349,10.064471,0.063750,-0.060647,0.004159,0.061035,0.091553,0.030518
9.498332,-0.060474,-0.498763,10.062675,0.065546,-0.054061,0.002363,0.061035,0.091553,0.000000
9.508423,-0.064067,-0.495769,10.069261,0.061954,-0.051067,0.008949,0.061035,0.091553,0.061035
9.518517,-0.065863,-0.493374,10.068063,0.060158,-0.048672,0.007752,0.061035,0.091553,0.030518
9.528623,-0.063468,-0.496967,10.066866,0.062553,-0.052265,0.006554,0.030518,0.061035,0.061035
9.538712,-0.071252,-0.492775,10.077643,0.054769,-0.048073,0.017332,0.030518,0.061035,0.061035
9.548803,-0.070653,-0.496967,10.082433,0.055368,-0.052265,0.022122,0.030518,0.061035,0.030518
9.558897,-0.062869,-0.495170,10.087224,0.063151,-0.050468,0.026912,0.030518,0.091553,0.000000
9.568988,-0.063468,-0.497565,10.080637,0.062553,-0.052863,0.020325,0.000000,0.061035,0.000000
9.579106,-0.062271,-0.504750,10.066866,0.063750,-0.060048,0.006554,0.000000,0.091553,0.030518
9.589196,-0.058678,-0.502954,10.064471,0.067343,-0.058252,0.004159,0.030518,0.091553,0.000000
9.599283,-0.064666,-0.501757,10.074650,0.061355,-0.057055,0.014338,-0.030518,0.061035,0.030518
9.609375,-0.059277,-0.504152,10.077045,0.066744,-0.059450,0.016733,-0.030518,0.061035,0.061035
9.619466,-0.062271,-0.501158,10.077045,0.063750,-0.056456,0.016733,0.000000,0.061035,0.061035
9.629557,-0.056283,-0.503553,10.078242,0.069738,-0.058851,0.017930,0.000000,0.091553,0.061035
9.639647,-0.058678,-0.504152,10.072853,0.067343,-0.059450,0.012542,0.030518,0.122070,0.061035
9.649738,-0.064666,-0.508343,10.077643,0.061355,-0.063641,0.017332,0.000000,0.122070,0.030518
9.659829,-0.060474,-0.504750,10.074650,0.065546,-0.060048,0.014338,0.000000,0.061035,0.061035
9.669920,-0.069456,-0.502355,10.073452,0.056565,-0.057653,0.013140,0.000000,0.061035,0.000000
9.680039,-0.066462,-0.495170,10.069261,0.059559,-0.050468,0.008949,0.000000,0.061035,0.000000
9.690129,-0.064067,-0.490979,10.068063,0.061954,-0.046277,0.007752,0.000000,0.000000,0.000000
9.700219,-0.066462,-0.487386,10.080637,0.059559,-0.042684,0.020325,0.030518,0.030518,0.000000
9.710310,-0.067061,-0.489183,10.081236,0.058960,-0.044481,0.020924,0.061035,0.030518,0.000000
9.720400,-0.067061,-0.493973,10.072255,0.058960,-0.049271,0.011943,0.061035,0.030518,0.000000
9.730490,-0.065863,-0.495769,10.070458,0.060158,-0.051067,0.010147,0.061035,0.030518,0.030518
9.740580,-0.066462,-0.495769,10.072853,0.059559,-0.051067,0.012542,0.061035,0.030518,0.000000
9.750670,-0.063468,-0.496967,10.077643,0.062553,-0.052265,0.017332,0.091553,0.061035,0.061035
9.760761,-0.065264,-0.498763,10.080637,0.060756,-0.054061,0.020325,0.061035,0.061035,0.030518
9.770852,-0.067061,-0.495769,10.072255,0.058960,-0.051067,0.011943,0.061035,0.030518,0.000000
9.780965,-0.071252,-0.492177,10.068063,0.054769,-0.047475,0.007752,0.061035,0.030518,0.030518
9.791055,-0.067659,-0.491578,10.072255,0.058361,-0.046876,0.011943,0.030518,0.061035,0.000000
9.801145,-0.059277,-0.493374,10.065070,0.066744,-0.048672,0.004758,0.000000,0.061035,0.030518
9.811234,-0.059875,-0.495170,10.062076,0.066145,-0.050468,0.001764,0.000000,0.122070,0.061035
9.821325,-0.061073,-0.488584,10.059681,0.064948,-0.043882,-0.000631,0.000000,0.061035,0.061035
9.831415,-0.062271,-0.491578,10.060280,0.063750,-0.046876,-0.000032,0.000000,0.061035,0.030518
9.841506,-0.070054,-0.489183,10.066866,0.055966,-0.044481,0.006554,-0.030518,0.030518,0.000000
9.851597,-0.068857,-0.487386,10.074051,0.057164,-0.042684,0.013739,0.000000,0.030518,0.030518
9.861687,-0.071851,-0.484393,10.071057,0.054170,-0.039691,0.010745,0.000000,0.061035,0.030518
9.871777,-0.064666,-0.486189,10.068063,0.061355,-0.041487,0.007752,-0.030518,0.030518,0.000000
9.881891,-0.055684,-0.492775,10.058483,0.070336,-0.048073,-0.001828,0.061035,0.061035,-0.030518
9.891981,-0.056283,-0.503553,10.062076,0.069738,-0.058851,0.001764,0.030518,0.061035,-0.030518
9.902071,-0.058079,-0.505349,10.070458,0.067941,-0.060647,0.010147,0.061035,0.091553,0.000000
9.912162,-0.061073,-0.509540,10.068662,0.064948,-0.064838,0.008350,0.061035,0.061035,0.030518
9.922253,-0.063468,-0.505948,10.068662,0.062553,-0.061246,0.008350,0.061035,0.091553,0.061035
9.932344,-0.068857,-0.502954,10.062076,0.057164,-0.058252,0.001764,0.122070,0.091553,0.000000
9.942436,-0.070054,-0.496967,10.066866,0.055966,-0.052265,0.006554,0.122070,0.091553,-0.030518
9.952526,-0.065264,-0.492177,10.081236,0.060756,-0.047475,0.020924,0.061035,0.061035,0.061035
9.962616,-0.057480,-0.494572,10.078841,0.068540,-0.049870,0.018529,0.000000,0.061035,0.030518
9.972708,-0.058678,-0.496368,10.078242,0.067343,-0.051666,0.017930,0.030518,0.061035,0.030518
9.982821,-0.061073,-0.496368,10.069261,0.064948,-0.051666,0.008949,0.030518,0.091553,0.030518
9.992911,-0.058678,-0.498763,10.067465,0.067343,-0.054061,0.007153,0.061035,0.030518,0.030518
10.003001,-0.065863,-0.499960,10.072255,0.060158,-0.055258,0.011943,0.061035,0.061035,0.000000
10.013092,-0.062869,-0.499362,10.069261,0.063151,-0.054660,0.008949,0.061035,0.061035,0.000000
10.023206,-0.065264,-0.500559,10.062076,0.060756,-0.055857,0.001764,0.030518,0.061035,0.030518
10.033297,-0.077239,-0.504152,10.063273,0.048781,-0.059450,0.002962,0.000000,0.091553,0.030518
10.043385,-0.072449,-0.498164,10.063273,0.053571,-0.053462,0.002962,-0.030518,0.061035,0.061035
10.053576,-0.070653,-0.493374,10.068662,0.055368,-0.048672,0.008350,-0.030518,0.091553,0.061035
10.063668,-0.069456,-0.492177,10.065070,0.056565,-0.047475,0.004758,0.030518,0.091553,0.030518
10.073755,-0.064666,-0.490380,10.061477,0.061355,-0.045678,0.001165,0.030518,0.091553,0.000000
10.083856,-0.065264,-0.489781,10.064471,0.060756,-0.045080,0.004159,0.030518,0.091553,0.030518
10.094012,-0.063468,-0.483195,10.071656,0.062553,-0.038493,0.011344,0.000000,0.091553,0.030518
10.104100,-0.069456,-0.484991,10.068063,0.056565,-0.040289,0.007752,0.000000,0.091553,0.030518
10.114202,-0.066462,-0.490979,10.060878,0.059559,-0.046277,0.000567,0.000000,0.061035,0.000000
10.124294,-0.064067,-0.492775,10.062076,0.061954,-0.048073,0.001764,0.030518,0.091553,0.030518
10.134386,-0.059875,-0.487386,10.060280,0.066145,-0.042684,-0.000032,0.030518,0.061035,0.000000
10.144488,-0.058079,-0.493374,10.072255,0.067941,-0.048672,0.011943,0.061035,0.061035,0.000000
10.154590,-0.053289,-0.498763,10.074650,0.072732,-0.054061,0.014338,0.061035,0.061035,-0.030518
10.164678,-0.056882,-0.502355,10.062076,0.069139,-0.057653,0.001764,0.061035,0.061035,0.030518
10.174780,-0.056882,-0.501757,10.058483,0.069139,-0.057055,-0.001828,0.030518,0.091553,0.030518
10.184881,-0.059875,-0.508942,10.066866,0.066145,-0.064240,0.006554,0.030518,0.091553,0.000000
10.194970,-0.074844,-0.490979,10.062076,0.051176,-0.046277,0.001764,-0.030518,0.061035,0.000000
10.205071,-0.080832,-0.483195,10.075248,0.045189,-0.038493,0.014937,-0.518799,-0.091553,-0.030518
10.215172,-0.071252,-0.484393,10.064471,0.054769,-0.039691,0.004159,-0.213623,0.030518,-0.061035
10.225260,-0.056283,-0.526306,10.063872,0.069738,-0.081604,0.003560,-0.152588,0.000000,-0.030518
10.235363,-0.057480,-0.518522,10.056687,0.068540,-0.073820,-0.003625,-0.152588,0.030518,0.000000
10.245465,-0.060474,-0.502954,10.059681,0.065546,-0.058252,-0.000631,-0.091553,0.030518,0.000000
10.255554,-0.061073,-0.484991,10.064471,0.064948,-0.040289,0.004159,-0.183105,-0.030518,0.030518
10.265656,-0.082628,-0.429307,10.068063,0.043393,0.015395,0.007752,-0.701904,-0.244141,0.061035
10.275758,-0.046104,-0.533491,10.047107,0.079917,-0.088789,-0.013205,-2.563477,-0.854492,0.000000
10.285871,-0.046703,-0.523911,10.051298,0.079318,-0.079209,-0.009014,-1.953125,-0.640869,-0.030518
10.295976,-0.050894,-0.501757,10.061477,0.075127,-0.057055,0.001165,-1.800537,-0.610352,-0.061035
10.306078,0.024549,-0.486189,10.059082,0.150570,-0.041487,-0.001230,-1.739502,-0.579834,-0.213623
10.316169,0.178429,-0.449066,10.046508,0.304450,-0.004364,-0.013804,-1.586914,-0.579834,-1.068115
10.326270,0.170645,-0.517923,10.062076,0.296666,-0.073221,0.001764,-1.800537,-0.793457,-3.906250
10.336374,-0.053888,-0.574206,10.057286,0.072133,-0.129504,-0.003026,-1.525879,-0.640869,-4.119873
10.346462,-0.198188,-0.565823,10.066866,-0.072167,-0.121121,0.006554,-1.068115,-0.427246,-2.807617
10.356567,-0.160466,-0.559836,10.062076,-0.034446,-0.115134,0.001764,-0.915527,-0.366211,-2.166748
10.366669,-0.137714,-0.550854,10.058483,-0.011693,-0.106153,-0.001828,-0.671387,-0.274658,-1.312256
10.376761,-0.098795,-0.550256,10.058483,0.027226,-0.105554,-0.001828,-0.457764,-0.183105,-1.007080
10.386888,-0.092208,-0.552651,10.050699,0.033812,-0.107949,-0.009612,-0.244141,-0.061035,-0.762939
10.396991,-0.074246,-0.542472,10.059082,0.051775,-0.097770,-0.001230,-0.061035,0.030518,-0.427246
10.407080,-0.062271,-0.535886,10.066267,0.063750,-0.091184,0.005955,-0.091553,0.030518,-0.335693
10.417184,-0.064666,-0.537083,10.065070,0.061355,-0.092381,0.004758,-0.091553,0.061035,-0.244141
10.427286,-0.062869,-0.534089,10.065070,0.063151,-0.089387,0.004758,-0.061035,0.061035,-0.213623
10.437377,-0.062271,-0.525108,10.066267,0.063750,-0.080406,0.005955,-0.152588,0.030518,-0.183105
10.447481,-0.065863,-0.504750,10.077643,0.060158,-0.060048,0.017332,-0.305176,-0.061035,-0.152588
10.457585,-0.069456,-0.508942,10.077045,0.056565,-0.064240,0.016733,-0.915527,-0.366211,-0.030518
10.467676,-0.067659,-0.522114,10.062076,0.058361,-0.077412,0.001764,-1.251221,-0.549316,0.030518
10.477781,-0.055085,-0.541873,10.058483,0.070935,-0.097171,-0.001828,-1.464844,-0.671387,0.091553
10.487911,-0.047900,-0.557441,10.063872,0.078120,-0.112739,0.003560,-1.129150,-0.579834,0.122070
10.498001,-0.044907,-0.561033,10.072255,0.081114,-0.116331,0.011943,-0.854492,-0.457764,0.122070
10.508106,-0.046703,-0.561033,10.069860,0.079318,-0.116331,0.009548,-0.427246,-0.244141,0.122070
10.518209,-0.053289,-0.555645,10.069261,0.072732,-0.110943,0.008949,-0.335693,-0.183105,0.091553
10.528300,-0.049697,-0.548459,10.067465,0.076324,-0.103757,0.007153,-0.366211,-0.122070,0.061035
10.538391,-0.041913,-0.546663,10.064471,0.084108,-0.101961,0.004159,-0.396729,-0.122070,0.061035
10.548497,-0.044308,-0.532293,10.068662,0.081713,-0.087591,0.008350,-0.579834,-0.183105,0.030518
10.558588,-0.045505,-0.537682,10.065668,0.080515,-0.092980,0.005357,-1.007080,-0.274658,0.000000
10.568679,-0.043709,-0.537083,10.068063,0.082312,-0.092381,0.007752,-1.220703,-0.335693,-0.030518
10.578784,-0.038919,-0.555046,10.064471,0.087102,-0.110344,0.004159,-1.342773,-0.366211,-0.091553
10.588913,-0.041913,-0.563428,10.065070,0.084108,-0.118726,0.004758,-1.342773,-0.305176,-0.091553
10.599004,-0.037123,-0.565823,10.066866,0.088898,-0.121121,0.006554,-1.129150,-0.274658,-0.152588
10.609098,-0.038320,-0.586780,10.062076,0.087700,-0.142078,0.001764,-1.342773,-0.274658,-0.152588
10.619204,-0.042512,-0.567620,10.059681,0.083509,-0.122918,-0.000631,-0.732422,-0.091553,-0.183105
10.629295,-0.032333,-0.616718,10.041119,0.093688,-0.172016,-0.019192,0.122070,0.122070,-0.183105
10.639387,-0.028740,-0.636476,10.033336,0.097280,-0.191774,-0.026976,1.037598,0.396729,-0.244141
10.649477,-0.197589,-0.665815,10.036329,-0.071568,-0.221113,-0.023982,5.584717,1.892090,-3.631592
10.659949,-0.270637,-0.787363,10.024354,-0.144617,-0.342661,-0.035957,7.812500,2.655029,-7.720947
10.670065,-0.279020,-0.749042,10.048903,-0.152999,-0.304340,-0.011409,5.859375,1.892090,-16.418457
10.680204,-0.152682,-0.661025,10.108180,-0.026662,-0.216323,0.047868,5.035400,1.617432,-20.629883
10.690331,-0.078437,-0.749042,10.048304,0.047584,-0.304340,-0.012007,1.708984,0.671387,-26.702881
10.700422,0.143102,-0.981359,10.042317,0.269123,-0.536657,-0.017995,1.159668,0.671387,-30.700684
10.710513,0.140109,-0.483794,10.109377,0.266129,-0.039092,0.049066,0.732422,0.640869,-34.667969
10.720603,-0.074844,0.035925,10.078841,0.051176,0.480627,0.018529,0.061035,0.427246,-35.369873
10.730694,-0.076042,-0.061073,10.077045,0.049979,0.383629,0.016733,0.061035,0.335693,-35.675049
10.740784,0.146096,-0.432301,10.063872,0.272117,0.012401,0.003560,-0.488281,0.244141,-41.870117
10.750875,0.095801,-0.272433,10.079440,0.221821,0.172269,0.019128,-0.335693,0.396729,-44.708252
10.760966,0.189805,-0.470023,10.077643,0.315826,-0.025321,0.017332,-3.051758,-0.366211,-51.696777
10.771056,0.174836,-0.659828,10.065070,0.300857,-0.215126,0.004758,-5.004883,-0.885010,-56.793213
10.781147,0.164059,-0.687969,10.064471,0.290080,-0.243267,0.004159,-6.713867,-1.129150,-60.241699
10.791314,0.070653,-0.678389,10.065070,0.196674,-0.233687,0.004758,-8.239746,-0.915527,-64.392090
10.801412,0.116757,-0.692161,10.051298,0.242778,-0.247459,-0.009014,-6.896973,-0.305176,-66.711426
10.811510,0.082628,-0.534688,10.071057,0.208649,-0.089986,0.010745,-4.211426,0.183105,-75.714111
10.821608,0.125140,-0.557441,10.057286,0.251160,-0.112739,-0.003026,-2.868652,0.640869,-77.575684
10.831707,0.115560,-0.474813,10.072853,0.241580,-0.030111,0.012542,-1.647949,0.976562,-71.441650
10.841804,0.006586,-0.540077,10.045909,0.132607,-0.095375,-0.014402,-0.213623,1.525879,-67.779541
10.851901,0.004790,-0.540676,10.074051,0.130811,-0.095974,0.013739,0.427246,1.373291,-62.957764
10.861998,-0.155078,-0.158670,10.081835,-0.029057,0.286032,0.021523,0.061035,0.885010,-59.143066
10.872095,-0.125739,-0.214953,10.057885,0.000282,0.229749,-0.002427,0.183105,0.762939,-55.053711
10.882193,-0.065264,-0.811313,10.045909,0.060756,-0.366611,-0.014402,0.579834,0.793457,-54.626465
10.892316,0.021555,-0.787363,10.033934,0.147576,-0.342661,-0.026377,0.488281,0.732422,-59.020996
10.902414,-0.088017,-0.525707,10.080038,0.038004,-0.081005,0.019727,0.640869,0.671387,-64.819336
10.912509,-0.058678,-0.641865,10.048903,0.067343,-0.197163,-0.011409,0.488281,0.610352,-64.575195
10.922607,-0.005389,-0.668210,10.039922,0.120632,-0.223508,-0.020390,0.000000,0.457764,-64.880371
10.932703,0.257465,-1.030457,10.013577,0.383485,-0.585755,-0.046735,-0.030518,0.518799,-69.519043
10.942800,0.164059,-0.778980,10.026749,0.290080,-0.334278,-0.033562,0.274658,0.854492,-72.967529
10.952895,-0.159868,-0.317939,10.054292,-0.033847,0.126763,-0.006020,0.183105,0.823975,-69.793701
10.962992,-0.146096,-0.204774,10.053693,-0.020076,0.239928,-0.006618,0.396729,0.762939,-65.826416
10.973089,0.174238,-1.004711,10.042916,0.300258,-0.560009,-0.017396,0.976562,0.976562,-66.131592
10.983224,0.222138,-0.829276,10.058483,0.348159,-0.384574,-0.001828,0.976562,1.159668,-69.335938
10.993348,0.202978,-0.859812,10.041119,0.328999,-0.415110,-0.019192,1.098633,1.281738,-70.007324
11.003445,0.344284,-1.034050,10.018367,0.470305,-0.589348,-0.041945,1.129150,1.464844,-69.946289
11.013543,0.415536,-1.046025,10.060280,0.541557,-0.601323,-0.000032,1.464844,1.647949,-71.868896
11.023640,0.236508,-0.464634,10.109377,0.362529,-0.019932,0.049066,2.563477,1.861572,-74.432373
11.033737,0.316143,-0.765807,9.979448,0.442163,-0.321106,-0.080864,2.685547,2.197266,-72.662354
11.043834,0.452060,-0.915496,9.944720,0.578081,-0.470794,-0.115592,1.892090,2.258301,-69.946289
11.053930,-0.083826,-0.178429,10.227931,0.042195,0.266273,0.167619,4.058838,2.777100,-68.359375
11.064028,-0.055684,-0.163460,10.118359,0.070336,0.281242,0.058047,0.457764,2.288818,-61.614990
11.074124,0.228126,-0.564027,10.187216,0.354146,-0.119325,0.126904,0.396729,2.044678,-62.713623
11.084220,0.173639,-0.499362,10.099199,0.299660,-0.054660,0.038887,-0.854492,2.532959,-65.521240
11.094342,0.323328,-0.408950,10.117161,0.449348,0.035752,0.056850,-0.091553,1.647949,-68.511963
11.104439,0.268242,-0.445474,10.129735,0.394263,-0.000772,0.069423,-0.640869,2.471924,-69.946289
11.114535,0.291594,-0.771795,9.960287,0.417614,-0.327093,-0.100024,-0.946045,1.953125,-72.235107
11.124631,-0.038320,-0.368833,10.057286,0.087700,0.075869,-0.003026,-0.885010,1.251221,-70.922852
11.134728,-0.344883,-0.032333,10.108779,-0.218862,0.412369,0.048467,-1.129150,2.014160,-63.964844
11.144825,0.047900,-0.242496,10.008188,0.173921,0.202206,-0.052124,-1.312256,2.227783,-61.614990
11.154922,0.128732,-0.223336,10.078242,0.254753,0.221366,0.017930,-0.701904,2.258301,-60.241699
11.165018,-0.017364,-0.387394,10.084230,0.108657,0.057308,0.023918,-0.915527,2.349854,-59.600830
11.175115,-0.019160,-0.476609,10.021360,0.106861,-0.031907,-0.038951,-2.258301,2.899170,-59.570312
11.185212,0.075443,-0.401166,10.099199,0.201464,0.043536,0.038887,-1.861572,2.349854,-61.950684
11.195333,0.202379,-0.541274,9.998608,0.328400,-0.096572,-0.061704,-2.441406,3.265381,-64.025879
11.205430,0.212558,-0.524509,9.983040,0.338579,-0.079807,-0.077272,-2.960205,3.387451,-67.108154
11.215532,0.247286,-0.383203,10.022558,0.373306,0.061499,-0.037754,-2.471924,3.112793,-67.565918
11.225630,0.241298,-0.298180,10.032737,0.367319,0.146522,-0.027575,-2.288818,3.570557,-69.824219
11.235727,0.301174,-0.384401,10.042317,0.427194,0.060301,-0.017995,-2.410889,3.875732,-71.594238
11.245821,0.378413,-0.319735,10.085427,0.504434,0.124967,0.025116,-1.586914,3.570557,-71.533203
11.255918,0.372426,-0.513732,10.192604,0.498446,-0.069030,0.132293,-1.220703,2.746582,-74.066162
11.266014,0.268841,-0.580193,10.102791,0.394862,-0.135491,0.042479,-1.129150,2.532959,-75.805664
11.276110,-0.406555,-0.453257,10.068662,-0.280534,-0.008555,0.008350,-0.671387,1.922607,-76.934814
11.286207,-0.245490,-0.544867,10.021959,-0.119469,-0.100165,-0.038352,-0.549316,1.800537,-78.186035
11.296396,-0.184417,-0.298180,10.094409,-0.058396,0.146522,0.034097,-0.671387,2.349854,-79.986572
11.306487,-0.192799,-0.092208,10.094409,-0.066778,0.352494,0.034097,-1.068115,2.624512,-79.223633
11.316577,0.151485,-0.141306,10.114167,0.277506,0.303396,0.053856,-3.143311,2.502441,-80.047607
11.326667,0.589774,-0.395178,10.087822,0.715794,0.049524,0.027511,-3.204346,2.807617,-79.864502
11.336757,0.366438,-0.370031,10.011780,0.492459,0.074671,-0.048531,-2.563477,2.685547,-78.796387
11.346852,0.016765,-0.568817,10.046508,0.142786,-0.124115,-0.013804,-1.403809,2.532959,-69.885254
11.356943,0.026345,-0.458047,10.060878,0.152366,-0.013345,0.000567,-1.922607,2.502441,-67.413330
11.367032,-0.168250,-0.282014,10.098600,-0.042229,0.162688,0.038288,-1.556396,2.807617,-66.162109
11.377122,-0.143701,-0.349673,10.116563,-0.017680,0.095029,0.056251,-3.051758,3.204346,-67.108154
11.387212,-0.024549,-0.377814,10.020762,0.101472,0.066888,-0.039550,-4.638672,3.021240,-67.413330
11.397361,0.305365,-0.578397,10.009984,0.431386,-0.133695,-0.050328,-5.004883,2.899170,-66.162109
11.407458,-0.334704,-0.381407,10.050101,-0.208683,0.063295,-0.010211,-4.669189,2.716064,-65.032959
11.417554,-0.492177,-0.458646,10.092612,-0.366156,-0.013944,0.032301,-2.380371,1.953125,-56.457520
11.427651,-0.119751,-0.406555,10.081835,0.006270,0.038147,0.021523,-4.058838,2.349854,-56.030273
11.437748,0.176633,-0.403561,10.087224,0.302653,0.041141,0.026912,-4.760742,2.410889,-57.281494
11.447844,0.174836,-0.397573,10.042916,0.300857,0.047129,-0.017396,-4.821777,2.227783,-56.976318
11.457941,-0.010179,-0.387993,10.074650,0.115842,0.056709,0.014338,-5.096436,2.288818,-54.534912
11.468038,-0.008383,-0.493973,10.045909,0.117638,-0.049271,-0.014402,-5.615234,2.014160,-51.727295
11.478134,-0.121547,-0.404160,10.003997,0.004473,0.040542,-0.056315,-5.889893,2.014160,-50.079346
11.488229,-0.334704,-0.516725,10.103989,-0.208683,-0.072023,0.043677,-6.591797,1.678467,-45.837402
11.498352,-0.186812,-0.450264,10.108180,-0.060791,-0.005562,0.047868,-7.080078,1.800537,-44.830322
11.508448,-0.129930,-0.543669,10.075847,-0.003909,-0.098967,0.015535,-8.178711,2.105713,-43.090820
11.518545,0.137115,-0.596959,9.984836,0.263136,-0.152257,-0.075475,-8.331299,2.136230,-42.694092
11.528641,0.148491,-0.560435,9.967473,0.274512,-0.115733,-0.092839,-5.035400,1.983643,-41.717529
11.538750,0.008981,-0.654439,9.998608,0.135002,-0.209737,-0.061704,-4.272461,1.739502,-40.618896
11.548849,0.027543,-0.702339,10.008188,0.153563,-0.257637,-0.052124,-2.227783,1.678467,-37.811279
11.558945,-0.079036,-0.597557,10.048304,0.046985,-0.152855,-0.012007,-1.708984,1.647949,-37.445068
11.569043,-0.073048,-0.590971,9.999207,0.052973,-0.146269,-0.061105,-1.525879,1.373291,-37.017822
11.579141,-0.373623,-0.798140,10.093810,-0.247602,-0.353438,0.033498,-0.488281,1.068115,-32.745361
11.589241,-0.314945,-0.634081,10.087822,-0.188924,-0.189379,0.027511,-1.098633,1.068115,-30.700684
11.599339,-0.289797,-0.471220,10.096804,-0.163777,-0.026518,0.036492,-2.166748,1.251221,-31.738281
11.609428,-0.226329,-0.464035,10.098001,-0.100309,-0.019333,0.037689,-3.143311,1.434326,-32.745361
11.619519,-0.211959,-0.486788,10.133926,-0.085939,-0.042086,0.073615,-5.523682,1.831055,-34.515381
11.629610,-0.134720,-0.567021,10.122550,-0.008699,-0.122319,0.062238,-6.378174,1.617432,-35.461426
11.639702,-0.114961,-0.532293,10.120754,0.011060,-0.087591,0.060442,-7.873535,2.044678,-35.736084
11.649789,0.061672,-0.358055,9.972861,0.187692,0.086647,-0.087450,-9.155273,1.953125,-35.827637
11.659879,0.011376,-0.549058,10.056687,0.137397,-0.104356,-0.003625,-7.232666,1.678467,-37.384033
11.669970,0.104183,-0.529898,10.111772,0.230204,-0.085196,0.051461,-7.354736,2.166748,-36.956787
11.680060,0.147294,-0.577200,10.062675,0.273314,-0.132498,0.002363,-7.904053,2.349854,-36.895752
11.690150,0.173639,-0.532892,10.068662,0.299660,-0.088190,0.008350,-7.629395,2.655029,-38.330078
11.700308,0.213157,-0.567021,10.066866,0.339177,-0.122319,0.006554,-7.171631,2.807617,-39.855957
11.710407,0.210163,-0.586181,10.053693,0.336184,-0.141479,-0.006618,-6.774902,3.265381,-40.527344
11.720504,0.383203,-0.657433,10.050101,0.509224,-0.212731,-0.010211,-5.645752,3.326416,-40.069580
11.730601,0.552052,-0.525108,10.015972,0.678073,-0.080406,-0.044340,-4.516602,3.601074,-40.069580
11.740698,0.547861,-0.595162,9.966275,0.673881,-0.150460,-0.094037,-0.183105,3.326416,-41.564941
11.750794,0.404160,-0.583786,10.003997,0.530180,-0.139084,-0.056315,2.044678,3.204346,-42.480469
11.760891,0.245490,-0.702339,10.095007,0.371510,-0.257637,0.034696,2.899170,3.082275,-40.496826
11.770988,0.249082,-0.588576,10.064471,0.375103,-0.143874,0.004159,2.288818,2.624512,-40.191650
11.781086,0.264650,-0.596959,10.059681,0.390670,-0.152257,-0.000631,1.861572,2.777100,-40.191650
11.791212,0.031135,-0.649649,10.074051,0.157156,-0.204947,0.013739,1.037598,2.410889,-38.604736
11.801334,-0.025148,-0.659828,10.089020,0.100873,-0.215126,0.028708,1.007080,2.258301,-37.536621
11.811432,-0.021555,-0.538879,10.093810,0.104466,-0.094177,0.033498,-0.274658,2.319336,-36.773682
11.821529,-0.130529,-0.629890,10.096804,-0.004508,-0.185188,0.036492,-1.281738,2.258301,-36.376953
11.831626,0.107177,-0.539478,10.097402,0.233198,-0.094776,0.037091,-4.943848,1.464844,-36.071777
11.841725,0.201780,-0.456850,10.059681,0.327801,-0.012148,-0.000631,-5.859375,1.373291,-37.109375
11.851822,0.023950,-0.570015,10.050101,0.149971,-0.125313,-0.010211,-6.011963,1.556396,-34.362793
11.861919,0.071851,-0.637075,10.007589,0.197871,-0.192373,-0.052723,-4.364014,1.159668,-33.843994
11.872013,0.243094,-0.507145,10.039922,0.369115,-0.062443,-0.020390,-3.601074,0.976562,-32.287598
11.882110,0.035925,-0.608934,10.018965,0.161946,-0.164232,-0.041346,-2.227783,0.946045,-28.533936
11.892208,-0.024549,-0.544268,10.013577,0.101472,-0.099566,-0.046735,-1.037598,0.854492,-27.770996
11.902331,-0.086819,-0.690963,10.036329,0.039201,-0.246261,-0.023982,-0.091553,0.274658,-24.475098
11.912429,0.201182,-0.470621,9.955497,0.327202,-0.025919,-0.104814,1.007080,-0.488281,-24.475098
11.922526,0.220342,-0.604144,9.978849,0.346362,-0.159442,-0.081463,6.225586,-0.091553,-19.989014
11.932623,0.025746,-0.556243,10.179432,0.151767,-0.111541,0.119120,3.265381,-0.061035,-18.157959
11.942720,0.132325,-0.336500,10.108180,0.258346,0.108202,0.047868,-1.556396,0.488281,-18.188477
11.952816,-0.053888,-0.336500,10.148895,0.072133,0.108202,0.088584,-6.805420,1.647949,-23.925781
11.962914,0.000000,-0.461640,9.975855,0.126021,-0.016938,-0.084457,-8.056641,1.464844,-22.857666
11.973011,0.102986,-0.643661,10.019564,0.229007,-0.198960,-0.040748,-3.356934,1.647949,-21.942139
11.983108,0.207169,-0.460443,9.981244,0.333190,-0.015741,-0.079068,-2.532959,1.403809,-22.460938
11.993205,0.275427,-0.534688,10.006990,0.401448,-0.089986,-0.053321,1.739502,1.037598,-25.238037
12.003326,0.005988,-0.868195,9.977651,0.132008,-0.423493,-0.082660,4.119873,0.854492,-24.993896
12.013422,0.055684,-0.624501,10.082433,0.181705,-0.179799,0.022122,5.432129,1.129150,-23.529053
12.023519,0.052690,-0.796943,10.083032,0.178711,-0.352241,0.022721,5.584717,0.732422,-21.453857
12.033616,0.028141,-0.723895,10.198592,0.154162,-0.279193,0.138280,4.547119,0.518799,-19.989014
12.043714,0.144899,-0.568817,10.028546,0.270919,-0.124115,-0.031766,1.220703,0.823975,-18.676758
12.053810,0.159868,-0.643063,10.078841,0.285888,-0.198361,0.018529,1.922607,1.251221,-18.890381
12.063904,-0.114961,-0.664618,10.142908,0.011060,-0.219916,0.082596,1.342773,1.098633,-19.226074
12.074003,-0.142504,-0.471819,10.199191,-0.016483,-0.027117,0.138879,-0.366211,0.885010,-19.226074
12.084100,0.042512,-0.414338,10.090217,0.168532,0.030364,0.029906,-2.075195,0.091553,-21.820068
12.094198,-0.104782,-0.619113,10.039922,0.021239,-0.174411,-0.020390,-0.701904,0.671387,-22.369385
12.104321,-0.028740,-0.570613,10.071656,0.097280,-0.125911,0.011344,0.213623,0.976562,-21.514893
12.114419,-0.082628,-0.481998,10.126143,0.043393,-0.037296,0.065831,1.922607,1.708984,-21.026611
12.124516,-0.017963,-0.480201,10.020762,0.108058,-0.035499,-0.039550,2.380371,1.464844,-21.667480
12.134613,0.026345,-0.468825,9.997410,0.152366,-0.024123,-0.062901,3.509521,1.983643,-22.308350
12.144709,0.125140,-0.547861,10.021360,0.251160,-0.103159,-0.038951,4.516602,1.495361,-22.766113
12.154807,0.093406,-0.501757,9.967473,0.219426,-0.057055,-0.092839,8.361816,1.251221,-21.606445
12.164904,0.175435,-0.486788,9.992620,0.301456,-0.042086,-0.067691,11.016846,1.129150,-21.942139
12.174999,0.308359,-0.371228,9.987830,0.434379,0.073474,-0.072482,12.969971,0.610352,-22.888184
12.185097,-0.078437,-0.562231,10.165660,0.047584,-0.117529,0.105349,16.021729,0.488281,-22.552490
12.195194,0.101190,-0.589774,10.092014,0.227210,-0.145072,0.031702,16.204834,0.640869,-21.575928
12.205315,0.197589,-0.384401,9.951306,0.323610,0.060301,-0.109006,15.045166,0.946045,-19.989014
12.215412,-0.005389,-0.522114,10.002799,0.120632,-0.077412,-0.057513,15.502930,1.312256,-18.127441
12.225509,0.046703,-0.384999,10.113569,0.172724,0.059703,0.053257,14.526367,1.281738,-15.869141
12.235605,-0.244891,-0.243693,10.014175,-0.118870,0.201009,-0.046136,13.946533,0.854492,-14.648438
12.245703,-0.232916,-0.189805,10.051298,-0.106895,0.254897,-0.009014,14.068604,0.274658,-14.953613
12.255800,-0.325124,-0.196392,10.068662,-0.199103,0.248310,0.008350,12.939453,-0.793457,-14.648438
12.265896,-0.367635,-0.251477,10.326725,-0.241615,0.193225,0.266414,10.681152,-0.976562,-13.488770
12.275994,-0.093406,-0.054487,10.089619,0.032615,0.390215,0.029307,-0.427246,-1.190186,-11.535645
12.286091,0.062271,-0.014370,10.032138,0.188291,0.430332,-0.028174,-3.112793,-0.335693,-11.505127
12.296188,0.089813,-0.049697,9.891431,0.215834,0.395005,-0.168881,2.136230,0.030518,-11.535645
12.306308,0.099992,-0.164658,10.235116,0.226013,0.280044,0.174804,1.068115,0.305176,-11.352539
12.316405,0.192799,-0.142504,10.121951,0.318820,0.302198,0.061640,-0.061035,-0.335693,-14.007568
12.326501,0.223336,-0.273032,10.202184,0.349356,0.171670,0.141873,-1.098633,-0.885010,-14.129639
12.336598,0.094005,-0.245490,10.069860,0.220025,0.199212,0.009548,-1.922607,-1.129150,-14.099121
12.346695,0.246687,-0.182021,10.011780,0.372708,0.262681,-0.048531,-2.441406,-1.251221,-15.686035
12.356792,0.232317,-0.068258,10.111174,0.358338,0.376444,0.050862,-2.716064,-1.068115,-17.456055
12.366888,0.213755,-0.234712,10.101594,0.339776,0.209990,0.041282,-5.767822,-0.885010,-18.310547
12.377132,0.159269,-0.477806,10.090816,0.285289,-0.033104,0.030504,-7.598877,-1.098633,-17.944336
12.387230,0.162263,-0.345482,10.005194,0.288283,0.099220,-0.055118,-5.889893,-0.976562,-15.960693
12.397327,-0.034728,-0.311353,10.002799,0.091293,0.133349,-0.057513,-7.263184,-0.976562,-15.869141
12.407450,-0.034728,-0.158071,10.170450,0.091293,0.286631,0.110139,-7.629395,-1.281738,-16.357422
12.417546,-0.091609,-0.137115,9.957294,0.034411,0.307587,-0.103018,-5.950928,-0.701904,-18.371582
12.427643,0.060474,-0.346080,10.105186,0.186495,0.098622,0.044874,-4.333496,-0.579834,-18.249512
12.437739,0.312550,-0.112566,9.960287,0.438571,0.332136,-0.100024,-3.845215,-0.030518,-19.927979
12.447846,0.377216,-0.308359,9.944121,0.503236,0.136343,-0.116191,-2.136230,0.762939,-19.775391
12.457942,0.471220,-0.283810,9.959689,0.597241,0.160892,-0.100623,3.326416,1.525879,-21.606445
12.468035,0.264051,-0.243094,10.096804,0.390072,0.201608,0.036492,5.981445,1.800537,-21.667480
12.478132,0.330513,-0.643063,9.956695,0.456533,-0.198361,-0.103617,5.432129,1.953125,-21.179199
12.488229,0.461640,-0.480201,10.135124,0.587661,-0.035499,0.074812,6.408691,1.312256,-21.209717
12.498326,0.477208,-0.353265,9.989626,0.603228,0.091437,-0.070685,5.981445,0.701904,-20.782471
12.508448,0.201182,-0.446671,10.004595,0.327202,-0.001969,-0.055716,7.171631,0.885010,-19.500732
