time,ax_raw,ay_raw,az_raw,ax,ay,az,gx,gy,gz
0.000811,-0.186213,-0.756826,10.029743,-0.022590,-0.003420,-0.009938,-0.030518,0.030518,-0.030518
0.010884,-0.176633,-0.755629,10.038126,-0.013009,-0.002223,-0.001555,-0.061035,0.030518,-0.030518
0.020951,-0.179626,-0.753234,10.038126,-0.016003,0.000172,-0.001555,-0.061035,0.061035,-0.030518
0.031053,-0.182021,-0.752036,10.038126,-0.018398,0.001370,-0.001555,0.000000,0.030518,-0.091553
0.041119,-0.182021,-0.764610,10.033336,-0.018398,-0.011204,-0.006345,0.030518,0.030518,-0.061035
0.051186,-0.176633,-0.767604,10.038724,-0.013009,-0.014198,-0.000957,0.030518,0.061035,-0.061035
0.061252,-0.176034,-0.761017,10.044712,-0.012411,-0.007612,0.005031,0.030518,0.061035,-0.030518
0.071318,-0.171843,-0.761616,10.041718,-0.008219,-0.008210,0.002037,0.000000,0.030518,-0.030518
0.081383,-0.162861,-0.758622,10.039922,0.000762,-0.005217,0.000241,-0.061035,0.030518,-0.061035
0.091450,-0.162861,-0.764011,10.039922,0.000762,-0.010605,0.000241,-0.030518,0.030518,-0.030518
0.101515,-0.162861,-0.761616,10.044712,0.000762,-0.008210,0.005031,-0.061035,0.030518,-0.061035
0.111580,-0.164658,-0.760419,10.047706,-0.001034,-0.007013,0.008025,-0.061035,0.061035,-0.061035
0.121648,-0.162263,-0.757425,10.053094,0.001361,-0.004019,0.013414,-0.061035,0.061035,-0.091553
0.131714,-0.158071,-0.758024,10.048903,0.005552,-0.004618,0.009222,-0.061035,0.061035,-0.061035
0.141779,-0.155676,-0.758024,10.048304,0.007947,-0.004618,0.008624,-0.061035,0.061035,-0.030518
0.151845,-0.168250,-0.765807,10.045909,-0.004627,-0.012402,0.006229,-0.061035,0.030518,0.000000
0.161911,-0.170645,-0.759820,10.041119,-0.007022,-0.006414,0.001439,-0.030518,0.030518,0.000000
0.171974,-0.171244,-0.762215,10.045311,-0.007621,-0.008809,0.005630,-0.030518,0.000000,0.000000
0.182054,-0.173639,-0.755629,10.044712,-0.010016,-0.002223,0.005031,0.000000,0.000000,0.000000
0.192118,-0.173040,-0.753832,10.041119,-0.009417,-0.000427,0.001439,0.000000,0.030518,-0.030518
0.202316,-0.162861,-0.761017,10.052496,0.000762,-0.007612,0.012815,-0.030518,0.030518,0.000000
0.212381,-0.162861,-0.755030,10.050101,0.000762,-0.001624,0.010420,-0.030518,0.000000,-0.030518
0.222446,-0.167053,-0.752635,10.043514,-0.003429,0.000771,0.003834,-0.030518,0.030518,-0.030518
0.232511,-0.162861,-0.752635,10.046508,0.000762,0.000771,0.006827,0.000000,0.000000,-0.030518
0.242575,-0.159269,-0.749641,10.042317,0.004354,0.003765,0.002636,0.000000,0.030518,-0.061035
0.252640,-0.165256,-0.752635,10.042916,-0.001633,0.000771,0.003235,0.000000,0.030518,-0.061035
0.262705,-0.161664,-0.753234,10.048903,0.001959,0.000172,0.009222,0.000000,0.061035,-0.091553
0.272770,-0.156874,-0.758622,10.042916,0.006749,-0.005217,0.003235,0.030518,0.061035,-0.122070
0.282834,-0.155676,-0.762215,10.039922,0.007947,-0.008809,0.000241,0.000000,0.091553,-0.091553
0.292899,-0.156275,-0.759221,10.034533,0.007348,-0.005815,-0.005148,0.030518,0.061035,-0.061035
0.302964,-0.161065,-0.757425,10.044712,0.002558,-0.004019,0.005031,0.000000,0.061035,-0.061035
0.313029,-0.165256,-0.753832,10.039922,-0.001633,-0.000427,0.000241,0.000000,0.061035,-0.061035
0.323094,-0.165855,-0.756826,10.041119,-0.002232,-0.003420,0.001439,-0.061035,0.030518,-0.030518
0.333159,-0.165256,-0.756227,10.040521,-0.001633,-0.002822,0.000840,-0.091553,0.061035,0.000000
0.343224,-0.167053,-0.758622,10.033336,-0.003429,-0.005217,-0.006345,-0.061035,0.030518,-0.030518
0.353288,-0.165256,-0.756227,10.034533,-0.001633,-0.002822,-0.005148,-0.061035,0.030518,-0.030518
0.363353,-0.159868,-0.752635,10.031539,0.003756,0.000771,-0.008142,-0.061035,0.030518,-0.030518
0.373417,-0.165256,-0.753832,10.028546,-0.001633,-0.000427,-0.011135,-0.030518,0.061035,-0.030518
0.383483,-0.164059,-0.759820,10.027348,-0.000436,-0.006414,-0.012333,-0.030518,0.030518,0.000000
0.393547,-0.174238,-0.756826,10.027947,-0.010614,-0.003420,-0.011734,0.000000,0.061035,0.000000
0.403612,-0.167053,-0.756826,10.038724,-0.003429,-0.003420,-0.000957,-0.030518,0.030518,0.000000
0.413676,-0.170046,-0.753234,10.041718,-0.006423,0.000172,0.002037,0.000000,0.000000,-0.030518
0.423741,-0.176034,-0.755030,10.038126,-0.012411,-0.001624,-0.001555,0.000000,0.030518,-0.030518
0.433805,-0.171843,-0.752635,10.035731,-0.008219,0.000771,-0.003950,0.000000,0.061035,0.000000
0.443869,-0.173040,-0.745450,10.042916,-0.009417,0.007956,0.003235,0.000000,0.061035,0.000000
0.453934,-0.175435,-0.751437,10.048903,-0.011812,0.001968,0.009222,0.000000,0.061035,0.000000
0.463999,-0.174836,-0.753832,10.047107,-0.011213,-0.000427,0.007426,-0.030518,0.030518,-0.030518
0.474063,-0.176034,-0.752036,10.042916,-0.012411,0.001370,0.003235,-0.030518,0.030518,-0.030518
0.484128,-0.171244,-0.747246,10.038724,-0.007621,0.006160,-0.000957,-0.061035,0.030518,-0.061035
0.494193,-0.166454,-0.747246,10.038126,-0.002831,0.006160,-0.001555,-0.030518,0.030518,-0.030518
0.504258,-0.162861,-0.753832,10.043514,0.000762,-0.000427,0.003834,-0.030518,0.030518,-0.030518
0.514322,-0.163460,-0.759221,10.042916,0.000163,-0.005815,0.003235,-0.030518,0.030518,-0.061035
0.524388,-0.165855,-0.754431,10.043514,-0.002232,-0.001025,0.003834,-0.030518,0.061035,-0.030518
0.534451,-0.158670,-0.755030,10.043514,0.004953,-0.001624,0.003834,-0.030518,0.030518,-0.030518
0.544517,-0.159269,-0.753832,10.045311,0.004354,-0.000427,0.005630,-0.030518,0.000000,-0.030518
0.554581,-0.160466,-0.758622,10.047107,0.003157,-0.005217,0.007426,0.000000,0.030518,0.000000
0.564646,-0.167053,-0.756826,10.042916,-0.003429,-0.003420,0.003235,0.030518,0.000000,0.000000
0.574710,-0.170046,-0.762215,10.033934,-0.006423,-0.008809,-0.005747,0.000000,0.000000,0.000000
0.584775,-0.170645,-0.754431,10.035132,-0.007022,-0.001025,-0.004549,-0.030518,0.000000,-0.030518
0.594840,-0.166454,-0.757425,10.035132,-0.002831,-0.004019,-0.004549,-0.030518,0.030518,-0.030518
0.604905,-0.167053,-0.756227,10.038724,-0.003429,-0.002822,-0.000957,-0.030518,0.030518,-0.030518
0.614970,-0.169448,-0.756826,10.043514,-0.005824,-0.003420,0.003834,0.000000,0.030518,-0.061035
0.625036,-0.167651,-0.752036,10.036928,-0.004028,0.001370,-0.002753,-0.030518,0.061035,-0.030518
0.635101,-0.171843,-0.759820,10.034533,-0.008219,-0.006414,-0.005148,-0.030518,0.030518,-0.030518
0.645166,-0.171244,-0.756826,10.030342,-0.007621,-0.003420,-0.009339,0.000000,0.030518,-0.030518
0.655232,-0.169448,-0.756826,10.029743,-0.005824,-0.003420,-0.009938,-0.030518,0.061035,-0.030518
0.665297,-0.168849,-0.759221,10.032737,-0.005226,-0.005815,-0.006944,-0.030518,0.061035,0.000000
0.675363,-0.171843,-0.763412,10.027348,-0.008219,-0.010007,-0.012333,-0.030518,0.030518,-0.030518
0.685429,-0.174836,-0.766406,10.027348,-0.011213,-0.013000,-0.012333,-0.030518,0.061035,-0.030518
0.695495,-0.175435,-0.761616,10.032138,-0.011812,-0.008210,-0.007543,-0.061035,0.061035,0.000000
0.705559,-0.176633,-0.759221,10.035731,-0.013009,-0.005815,-0.003950,-0.061035,0.030518,0.000000
0.715625,-0.171244,-0.753832,10.038126,-0.007621,-0.000427,-0.001555,-0.061035,0.061035,0.000000
0.725690,-0.165256,-0.751437,10.031539,-0.001633,0.001968,-0.008142,-0.030518,0.061035,-0.030518
0.735755,-0.168250,-0.751437,10.031539,-0.004627,0.001968,-0.008142,-0.030518,0.061035,-0.030518
0.745821,-0.167651,-0.742456,10.031539,-0.004028,0.010950,-0.008142,-0.061035,0.061035,0.000000
0.755887,-0.167053,-0.746049,10.039922,-0.003429,0.007357,0.000241,-0.061035,0.030518,0.000000
0.765953,-0.165855,-0.751437,10.037527,-0.002232,0.001968,-0.002154,-0.061035,0.030518,0.000000
0.776018,-0.162861,-0.753832,10.036329,0.000762,-0.000427,-0.003352,-0.061035,0.000000,0.000000
0.786083,-0.164059,-0.758024,10.036329,-0.000436,-0.004618,-0.003352,-0.061035,0.000000,-0.030518
0.796148,-0.166454,-0.756826,10.038724,-0.002831,-0.003420,-0.000957,-0.091553,-0.030518,-0.030518
0.806213,-0.163460,-0.756826,10.041718,0.000163,-0.003420,0.002037,-0.061035,0.000000,-0.030518
0.816328,-0.158071,-0.755030,10.041718,0.005552,-0.001624,0.002037,-0.061035,0.030518,-0.061035
0.826425,-0.162263,-0.750839,10.036928,0.001361,0.002567,-0.002753,0.000000,0.030518,-0.030518
0.836520,-0.169448,-0.756227,10.042916,-0.005824,-0.002822,0.003235,0.000000,0.061035,-0.091553
0.849735,-0.172441,-0.759221,10.041718,-0.008818,-0.005815,0.002037,-0.030518,0.061035,-0.030518
0.859835,-0.177231,-0.760419,10.042317,-0.013608,-0.007013,0.002636,-0.030518,0.030518,-0.061035
0.869932,-0.169448,-0.759221,10.041718,-0.005824,-0.005815,0.002037,0.000000,0.030518,-0.030518
0.880029,-0.173639,-0.756227,10.043514,-0.010016,-0.002822,0.003834,0.000000,0.030518,0.000000
0.890125,-0.170046,-0.761616,10.041119,-0.006423,-0.008210,0.001439,0.000000,0.030518,-0.030518
0.900222,-0.165855,-0.752036,10.038126,-0.002232,0.001370,-0.001555,0.030518,0.030518,-0.030518
0.910315,-0.168250,-0.752036,10.042317,-0.004627,0.001370,0.002636,0.000000,-0.030518,0.000000
0.920409,-0.176034,-0.761616,10.034533,-0.012411,-0.008210,-0.005148,0.000000,-0.030518,-0.030518
0.930499,-0.171843,-0.762215,10.035731,-0.008219,-0.008809,-0.003950,0.030518,-0.030518,-0.030518
0.940588,-0.174238,-0.755030,10.038126,-0.010614,-0.001624,-0.001555,0.030518,0.000000,0.000000
0.950679,-0.178429,-0.750839,10.045909,-0.014806,0.002567,0.006229,0.030518,0.000000,0.000000
0.960768,-0.176034,-0.749641,10.054891,-0.012411,0.003765,0.015210,0.000000,0.030518,-0.030518
0.970858,-0.168849,-0.756826,10.049502,-0.005226,-0.003420,0.009821,-0.030518,0.061035,-0.030518
0.980947,-0.166454,-0.759820,10.049502,-0.002831,-0.006414,0.009821,-0.030518,0.061035,0.000000
0.991037,-0.163460,-0.763412,10.050699,0.000163,-0.010007,0.011019,-0.030518,0.030518,-0.030518
1.001127,-0.161664,-0.757425,10.052496,0.001959,-0.004019,0.012815,-0.030518,0.030518,0.000000
1.011216,-0.165855,-0.750240,10.048903,-0.002232,0.003166,0.009222,-0.030518,0.030518,-0.030518
1.021375,-0.165256,-0.753234,10.049502,-0.001633,0.000172,0.009821,-0.030518,0.030518,-0.030518
1.031473,-0.167651,-0.757425,10.038724,-0.004028,-0.004019,-0.000957,0.000000,0.030518,-0.030518
1.041569,-0.166454,-0.757425,10.043514,-0.002831,-0.004019,0.003834,0.000000,0.030518,-0.030518
1.051666,-0.168250,-0.763412,10.047706,-0.004627,-0.010007,0.008025,-0.030518,0.061035,-0.030518
1.061763,-0.161065,-0.764011,10.042916,0.002558,-0.010605,0.003235,-0.030518,0.061035,-0.030518
1.071860,-0.166454,-0.759221,10.037527,-0.002831,-0.005815,-0.002154,-0.061035,0.061035,-0.061035
1.081953,-0.159269,-0.761017,10.035132,0.004354,-0.007612,-0.004549,-0.030518,0.091553,-0.030518
1.092049,-0.161065,-0.759820,10.032737,0.002558,-0.006414,-0.006944,-0.030518,0.091553,-0.061035
1.102174,-0.163460,-0.762814,10.039922,0.000163,-0.009408,0.000241,-0.061035,0.061035,-0.030518
1.112267,-0.166454,-0.764610,10.041119,-0.002831,-0.011204,0.001439,-0.061035,0.061035,0.000000
1.122433,-0.170645,-0.761616,10.035731,-0.007022,-0.008210,-0.003950,-0.061035,0.061035,0.030518
1.132524,-0.173639,-0.755030,10.033934,-0.010016,-0.001624,-0.005747,-0.030518,0.061035,0.000000
1.142611,-0.174836,-0.752036,10.033934,-0.011213,0.001370,-0.005747,0.000000,0.061035,-0.030518
1.152694,-0.176633,-0.755030,10.051298,-0.013009,-0.001624,0.011617,-0.030518,0.000000,-0.030518
1.162786,-0.182021,-0.753832,10.049502,-0.018398,-0.000427,0.009821,-0.030518,0.030518,-0.061035
1.172872,-0.184417,-0.757425,10.038724,-0.020793,-0.004019,-0.000957,0.000000,0.061035,-0.061035
1.182959,-0.178429,-0.756826,10.040521,-0.014806,-0.003420,0.000840,-0.030518,0.061035,-0.030518
1.193044,-0.176633,-0.759221,10.047107,-0.013009,-0.005815,0.007426,0.000000,0.061035,-0.061035
1.203134,-0.183219,-0.755629,10.053693,-0.019596,-0.002223,0.014012,0.000000,0.061035,-0.061035
1.213219,-0.174836,-0.758024,10.050699,-0.011213,-0.004618,0.011019,0.030518,0.061035,-0.061035
1.223333,-0.165256,-0.756826,10.045311,-0.001633,-0.003420,0.005630,0.000000,0.030518,-0.091553
1.233419,-0.161065,-0.750240,10.039323,0.002558,0.003166,-0.000358,0.000000,0.091553,-0.061035
1.243507,-0.162861,-0.761616,10.045311,0.000762,-0.008210,0.005630,-0.030518,0.061035,0.000000
1.253593,-0.168250,-0.757425,10.048903,-0.004627,-0.004019,0.009222,-0.030518,0.000000,-0.030518
1.263681,-0.167053,-0.767604,10.044113,-0.003429,-0.014198,0.004432,0.000000,0.030518,0.000000
1.273767,-0.167053,-0.768801,10.042916,-0.003429,-0.015395,0.003235,0.000000,0.030518,0.000000
1.283855,-0.170645,-0.764011,10.035731,-0.007022,-0.010605,-0.003950,0.000000,0.030518,0.000000
1.293941,-0.161664,-0.771795,10.035731,0.001959,-0.018389,-0.003950,0.030518,0.030518,-0.030518
1.304029,-0.161664,-0.764011,10.039922,0.001959,-0.010605,0.000241,0.000000,0.000000,-0.030518
1.314115,-0.161065,-0.761017,10.040521,0.002558,-0.007612,0.000840,0.000000,0.030518,-0.061035
1.324276,-0.165256,-0.765807,10.036329,-0.001633,-0.012402,-0.003352,0.000000,0.000000,-0.030518
1.334369,-0.170046,-0.767005,10.032737,-0.006423,-0.013599,-0.006944,0.000000,0.000000,-0.030518
1.344460,-0.171244,-0.767005,10.031539,-0.007621,-0.013599,-0.008142,-0.030518,0.000000,0.000000
1.354552,-0.171843,-0.761616,10.036329,-0.008219,-0.008210,-0.003352,0.000000,-0.030518,-0.030518
1.364645,-0.168849,-0.759221,10.035731,-0.005226,-0.005815,-0.003950,0.000000,0.000000,-0.061035
1.374737,-0.167651,-0.756227,10.033336,-0.004028,-0.002822,-0.006345,0.000000,-0.030518,-0.061035
1.384833,-0.161664,-0.761017,10.039922,0.001959,-0.007612,0.000241,0.000000,-0.030518,-0.061035
1.394925,-0.156275,-0.761616,10.041119,0.007348,-0.008210,0.001439,0.000000,-0.030518,-0.030518
1.405020,-0.158670,-0.752635,10.050699,0.004953,0.000771,0.011019,0.000000,0.030518,-0.061035
1.415113,-0.161664,-0.757425,10.050101,0.001959,-0.004019,0.010420,0.030518,0.030518,-0.091553
1.425281,-0.160466,-0.753234,10.048304,0.003157,0.000172,0.008624,0.000000,0.000000,-0.091553
1.435369,-0.158071,-0.755030,10.034533,0.005552,-0.001624,-0.005148,0.030518,0.030518,-0.091553
1.445458,-0.159868,-0.757425,10.032737,0.003756,-0.004019,-0.006944,-0.030518,0.030518,-0.091553
1.455547,-0.162861,-0.764610,10.045311,0.000762,-0.011204,0.005630,-0.091553,0.000000,-0.061035
1.465636,-0.161664,-0.761017,10.042916,0.001959,-0.007612,0.003235,-0.091553,0.000000,-0.061035
1.475724,-0.162861,-0.769400,10.039323,0.000762,-0.015994,-0.000358,-0.061035,0.030518,-0.061035
1.485812,-0.166454,-0.768203,10.036329,-0.002831,-0.014797,-0.003352,-0.091553,0.030518,-0.030518
1.495901,-0.163460,-0.768801,10.037527,0.000163,-0.015395,-0.002154,-0.061035,0.030518,-0.061035
1.505990,-0.163460,-0.769400,10.045311,0.000163,-0.015994,0.005630,-0.030518,0.030518,-0.030518
1.516078,-0.160466,-0.770598,10.040521,0.003157,-0.017192,0.000840,0.000000,0.030518,-0.030518
1.526189,-0.163460,-0.765209,10.035731,0.000163,-0.011803,-0.003950,-0.030518,0.030518,0.000000
1.536279,-0.165855,-0.762215,10.034533,-0.002232,-0.008809,-0.005148,0.000000,0.061035,0.000000
1.546367,-0.168849,-0.752635,10.041718,-0.005226,0.000771,0.002037,0.000000,0.061035,0.000000
1.556455,-0.167053,-0.749042,10.042916,-0.003429,0.004363,0.003235,0.000000,0.061035,0.030518
1.566544,-0.165256,-0.750839,10.039922,-0.001633,0.002567,0.000241,0.030518,0.030518,0.000000
1.576630,-0.163460,-0.746647,10.038126,0.000163,0.006758,-0.001555,0.030518,0.030518,0.000000
1.586718,-0.161664,-0.748444,10.039323,0.001959,0.004962,-0.000358,0.030518,0.030518,0.000000
1.596807,-0.161664,-0.749042,10.048903,0.001959,0.004363,0.009222,0.000000,0.030518,0.000000
1.606896,-0.167651,-0.749641,10.046508,-0.004028,0.003765,0.006827,0.000000,0.030518,0.000000
1.616984,-0.165256,-0.747246,10.047706,-0.001633,0.006160,0.008025,-0.061035,0.030518,0.000000
1.627145,-0.164658,-0.747246,10.044113,-0.001034,0.006160,0.004432,-0.061035,0.030518,0.000000
1.637241,-0.167651,-0.751437,10.036928,-0.004028,0.001968,-0.002753,-0.091553,0.030518,-0.061035
1.647333,-0.167053,-0.749042,10.038126,-0.003429,0.004363,-0.001555,-0.091553,0.030518,-0.030518
1.657423,-0.162861,-0.753234,10.034533,0.000762,0.000172,-0.005148,-0.061035,-0.030518,-0.030518
1.667520,-0.171843,-0.756227,10.034533,-0.008219,-0.002822,-0.005148,-0.061035,0.030518,-0.030518
1.677618,-0.171843,-0.755629,10.035132,-0.008219,-0.002223,-0.004549,-0.061035,0.061035,-0.061035
1.687719,-0.171843,-0.751437,10.032138,-0.008219,0.001968,-0.007543,-0.091553,0.061035,0.000000
1.697814,-0.168849,-0.753832,10.036329,-0.005226,-0.000427,-0.003352,-0.122070,0.091553,-0.030518
1.707913,-0.165256,-0.747845,10.039922,-0.001633,0.005561,0.000241,-0.183105,0.030518,0.030518
1.718011,-0.171843,-0.750240,10.037527,-0.008219,0.003166,-0.002154,-0.152588,0.030518,0.061035
1.728215,-0.170645,-0.750240,10.032737,-0.007022,0.003166,-0.006944,-0.183105,0.000000,0.183105
1.738306,-0.176633,-0.643661,10.038724,-0.013009,0.109744,-0.000957,-0.183105,0.000000,0.457764
1.748397,-0.194595,-0.511337,10.053693,-0.030972,0.242069,0.014012,-0.244141,-0.274658,3.875732
1.758487,-0.228126,-0.248483,10.054292,-0.064502,0.504923,0.014611,-0.640869,-0.518799,8.087158
1.768575,-0.236508,-0.232916,10.053693,-0.072885,0.520490,0.014012,-0.701904,-0.701904,12.084961
1.778665,-0.179028,-0.650847,10.002799,-0.015404,0.102559,-0.036882,0.457764,-1.037598,17.425537
1.788755,-0.174836,-0.660427,10.012379,-0.011213,0.092979,-0.027302,0.305176,-0.946045,17.944336
1.798850,-0.120350,-1.217269,10.019564,0.043274,-0.463863,-0.020117,0.518799,-0.762939,16.937256
1.808939,-0.126936,-1.172362,10.019564,0.036687,-0.418956,-0.020117,0.579834,-0.579834,13.519287
1.819031,-0.143701,-1.101110,10.033934,0.019922,-0.347704,-0.005747,0.854492,-0.488281,8.117676
1.829154,-0.147294,-1.027463,10.028546,0.016330,-0.274058,-0.011135,1.373291,-0.610352,6.011963
1.839244,-0.129331,-0.950224,9.987231,0.034292,-0.196818,-0.052449,1.403809,-0.549316,4.119873
1.849332,-0.144300,-0.930465,10.068063,0.019323,-0.177059,0.028382,-0.762939,0.274658,0.671387
1.859422,-0.156275,-0.850831,10.030342,0.007348,-0.097425,-0.009339,-0.518799,0.305176,-0.335693
1.869511,-0.160466,-0.746647,10.032138,0.003157,0.006758,-0.007543,-0.305176,0.244141,-0.640869
1.879602,-0.165256,-0.744851,10.030342,-0.001633,0.008555,-0.009339,-0.213623,0.183105,-0.488281
1.889691,-0.170046,-0.751437,10.029743,-0.006423,0.001968,-0.009938,-0.091553,0.122070,-0.366211
1.899780,-0.172441,-0.749042,10.040521,-0.008818,0.004363,0.000840,-0.030518,0.091553,-0.274658
1.909871,-0.178429,-0.754431,10.044113,-0.014806,-0.001025,0.004432,0.030518,0.061035,-0.244141
1.919961,-0.177830,-0.814905,10.028546,-0.014207,-0.061500,-0.011135,0.122070,0.030518,-0.488281
1.930131,-0.288001,-0.815504,10.026151,-0.124378,-0.062098,-0.013530,0.061035,0.091553,-1.007080
1.940228,-0.607137,-0.895737,10.011780,-0.443514,-0.142332,-0.027900,-0.396729,0.061035,-2.258301
1.950325,-0.304766,-0.870590,10.033934,-0.141143,-0.117184,-0.005747,-0.518799,0.122070,-2.929688
1.960421,-0.097597,-0.721500,10.036928,0.066026,0.031906,-0.002753,-0.366211,0.152588,-3.051758
1.970518,-0.204175,-0.693957,10.042317,-0.040552,0.059449,0.002636,-0.244141,0.122070,-2.532959
1.980614,-0.413740,-0.702339,10.035132,-0.250116,0.051066,-0.004549,-0.152588,0.000000,-1.098633
1.990710,-0.610730,-0.706531,10.015373,-0.447107,0.046875,-0.024308,-0.213623,0.000000,0.030518
2.000808,-0.508343,-0.747845,10.029144,-0.344720,0.005561,-0.010537,-0.122070,-0.061035,0.732422
2.010920,-0.396974,-0.699346,10.024354,-0.233351,0.054060,-0.015327,0.030518,-0.122070,1.281738
2.021019,-0.634081,-0.684976,10.030941,-0.470458,0.068430,-0.008740,-0.122070,-0.030518,1.007080
2.031202,-0.555645,-0.750839,10.039323,-0.392021,0.002567,-0.000358,-0.152588,0.122070,-1.647949
2.041293,-0.416733,-0.686772,10.051897,-0.253110,0.066634,0.012216,-0.152588,0.244141,-3.295898
2.051383,-0.425715,-0.760419,10.036928,-0.262091,-0.007013,-0.002753,-0.823975,0.366211,-6.072998
2.061474,-0.520917,-0.805924,10.044712,-0.357294,-0.052518,0.005031,-0.793457,0.457764,-6.622314
2.071564,-0.565225,-0.843047,10.044712,-0.401601,-0.089641,0.005031,-0.579834,0.488281,-6.530762
2.081656,-0.617915,-0.814905,10.023755,-0.454292,-0.061500,-0.015925,0.030518,0.549316,-5.249023
2.091746,-0.586780,-0.869991,10.038126,-0.423157,-0.116585,-0.001555,0.061035,0.518799,-4.730225
2.101865,-0.640069,-0.816103,10.017768,-0.476446,-0.062697,-0.021913,0.396729,0.732422,-4.577637
2.111956,-0.568218,-0.887953,10.039323,-0.404595,-0.134548,-0.000358,0.305176,0.854492,-4.791260
2.122046,-0.500559,-0.859812,10.009984,-0.336936,-0.106406,-0.029697,0.366211,0.976562,-4.974365
2.132132,-0.507744,-0.826282,10.001003,-0.344121,-0.072876,-0.038678,0.061035,1.037598,-4.974365
2.142222,-0.432301,-0.824485,10.026749,-0.268678,-0.071080,-0.012932,-0.457764,1.007080,-5.035400
2.152309,-0.457449,-0.660427,10.021360,-0.293825,0.092979,-0.018320,-0.793457,1.007080,-5.462646
2.162395,-0.480800,-0.718506,10.021360,-0.317177,0.034900,-0.018320,-0.335693,0.854492,-5.157471
2.172480,-0.358654,-0.781974,9.985435,-0.195031,-0.028568,-0.054246,-0.305176,0.885010,-4.241943
2.182563,-0.396376,-0.841251,10.039323,-0.232752,-0.087845,-0.000358,-0.457764,0.793457,-5.584717
2.192649,-0.357457,-0.874781,10.012978,-0.193833,-0.121375,-0.026703,-0.122070,0.762939,-9.582520
2.202736,-0.329914,-0.911305,9.993818,-0.166291,-0.157899,-0.045863,0.061035,0.854492,-11.871338
2.212822,-0.321531,-0.744252,9.962682,-0.157908,0.009153,-0.076998,0.335693,1.068115,-14.160156
2.222909,-0.332908,-0.693358,10.099199,-0.169284,0.060048,0.059518,0.366211,0.823975,-15.686035
2.232995,-0.464035,-0.728086,10.008787,-0.300412,0.025320,-0.030894,0.732422,0.732422,-15.258789
2.243083,-0.418530,-0.813109,10.062076,-0.254906,-0.059703,0.022395,0.976562,0.579834,-15.472412
2.253171,-0.385598,-0.701741,10.077045,-0.221975,0.051665,0.037364,1.190186,0.579834,-15.014648
2.263255,-0.542472,-0.538879,10.071656,-0.378849,0.214526,0.031975,0.427246,0.152588,-11.260986
2.273342,-0.094005,-0.871188,10.061477,0.069619,-0.117783,0.021796,0.427246,0.305176,-10.192871
2.283430,-0.578397,-0.693358,10.126143,-0.414774,0.060048,0.086462,-0.976562,-0.152588,-9.033203
2.293516,-0.358055,-0.699346,10.045909,-0.194432,0.054060,0.006229,0.305176,0.030518,-10.742188
2.303606,-0.205972,-0.634081,10.088421,-0.042348,0.119324,0.048740,0.305176,-0.030518,-11.444092
2.313692,-0.350272,-0.601150,10.032737,-0.186648,0.152256,-0.006944,-0.091553,-0.213623,-8.728027
2.323780,-0.335901,-0.732876,10.037527,-0.172278,0.020530,-0.002154,0.549316,-0.091553,-7.904053
2.333869,-0.502355,-0.816702,10.067465,-0.338732,-0.063296,0.027784,0.030518,-0.549316,-3.723145
2.343964,-0.437690,-0.796344,10.039922,-0.274067,-0.042938,0.000241,0.091553,-0.762939,-0.640869
2.354057,-0.306563,-0.802332,10.003398,-0.142939,-0.048926,-0.036283,0.793457,-0.854492,2.990723
2.364154,-0.528102,-0.835263,9.966275,-0.364479,-0.081857,-0.073406,0.305176,-0.701904,4.058838
2.374246,-0.420326,-0.977767,10.044113,-0.256703,-0.224361,0.004432,0.732422,-0.854492,4.364014
2.384341,-0.380209,-0.907114,9.983639,-0.216586,-0.153708,-0.056042,-0.518799,-1.037598,5.676270
2.394436,-0.537083,-0.859812,10.014175,-0.373460,-0.106406,-0.025505,-0.366211,-0.915527,5.157471
2.404531,-0.376018,-0.865800,10.076446,-0.212395,-0.112394,0.036765,0.122070,-0.457764,4.455566
2.414623,-0.336500,-0.852627,10.027947,-0.172877,-0.099221,-0.011734,0.671387,-0.335693,4.455566
2.424718,-0.441881,-0.814905,9.998009,-0.278258,-0.061500,-0.041672,0.000000,-0.640869,6.286621
2.434879,-0.496967,-0.814307,10.015972,-0.333343,-0.060901,-0.023709,-0.122070,-0.762939,8.331299
2.444967,-0.436492,-0.737067,10.044113,-0.272869,0.016339,0.004432,-0.061035,-0.793457,9.460449
2.455057,-0.167053,-0.748444,10.129735,-0.003429,0.004962,0.090054,-1.617432,-0.762939,8.850098
2.465146,-0.030536,-0.753832,10.099199,0.133087,-0.000427,0.059518,-1.464844,-0.396729,7.415771
2.475235,-0.268242,-0.874781,10.014175,-0.104619,-0.121375,-0.025505,-0.823975,-0.091553,5.126953
2.485322,-0.270637,-0.893342,10.086625,-0.107014,-0.139937,0.046944,-0.854492,0.061035,4.608154
2.495410,-0.216151,-0.862207,10.068063,-0.052527,-0.108801,0.028382,-0.762939,0.335693,7.263184
2.505497,0.002395,-0.898731,10.151290,0.166018,-0.145325,0.111609,-1.251221,0.274658,8.880615
2.515585,-0.038320,-0.901126,10.221943,0.125303,-0.147720,0.182262,-1.068115,0.152588,9.643555
2.525673,-0.219743,-0.887355,9.987231,-0.056120,-0.133949,-0.052449,-0.213623,-0.122070,9.338379
2.535784,-0.059277,-0.843047,10.103989,0.104347,-0.089641,0.064308,-0.518799,-0.366211,8.789062
2.545873,-0.026944,-0.780178,10.053693,0.136679,-0.026772,0.014012,0.335693,-0.305176,5.065918
2.555962,-0.092208,-0.725092,10.065070,0.071415,0.028314,0.025389,0.061035,-0.335693,3.540039
2.566052,-0.080233,-0.643063,10.059082,0.083390,0.110343,0.019401,-0.610352,-0.793457,0.457764
2.576143,-0.479603,-0.701142,9.939331,-0.315979,0.052264,-0.100350,-0.915527,-0.976562,-0.244141
2.586232,-0.386197,-0.780776,10.003398,-0.222574,-0.027371,-0.036283,-0.091553,-0.885010,-0.183105
2.596321,-0.366438,-1.102906,10.084230,-0.202815,-0.349501,0.044549,0.427246,-1.037598,0.030518
2.606410,-0.429307,-1.005309,10.096804,-0.265684,-0.251904,0.057123,1.647949,-0.732422,0.823975
2.616499,-0.325723,-0.916095,10.035731,-0.162099,-0.162689,-0.003950,1.617432,-1.220703,4.913330
2.626588,-0.168250,-0.873583,10.036928,-0.004627,-0.120178,-0.002753,1.251221,-0.885010,5.615234
2.636700,0.102986,-0.661624,10.143506,0.266609,0.091782,0.103826,1.281738,0.000000,4.425049
2.646788,-0.425116,-0.699944,10.009984,-0.261493,0.053461,-0.029697,0.701904,0.183105,3.662109
2.656876,-0.415536,-0.608335,9.944720,-0.251913,0.145071,-0.094961,-0.549316,0.854492,2.410889
2.666965,-0.087418,-0.846639,9.982441,0.076205,-0.093234,-0.057239,-1.159668,1.342773,0.946045
2.677055,-0.138911,-0.831671,10.047107,0.024712,-0.078265,0.007426,-1.434326,1.495361,-0.823975
2.687146,-0.252675,-0.846639,10.126741,-0.089051,-0.093234,0.087060,-2.471924,1.373291,-3.173828
2.697233,-0.625100,-0.606539,9.992021,-0.461477,0.146867,-0.047659,-3.631592,0.854492,-1.983643
2.707323,-0.426912,-0.990939,10.034533,-0.263289,-0.237534,-0.005148,-3.692627,-0.274658,-1.586914
2.717413,-0.463436,-1.078358,10.083631,-0.299813,-0.324952,0.043950,-1.953125,-0.793457,-2.319336
2.727502,-0.483195,-1.244213,10.102791,-0.319572,-0.490807,0.063110,1.953125,-1.312256,-1.159668
2.737663,-0.301174,-1.019081,9.948911,-0.137550,-0.265675,-0.090770,1.953125,-1.373291,1.861572
2.747793,-0.570015,-0.977767,10.016570,-0.406391,-0.224361,-0.023110,2.044678,-1.098633,2.197266
2.757890,-0.583786,-0.977168,10.062675,-0.420163,-0.223762,0.022994,0.793457,-0.427246,0.762939
2.767985,-0.398771,-0.958008,10.038724,-0.235148,-0.204602,-0.000957,1.251221,0.122070,0.549316
2.778082,-0.490380,-0.655637,10.062675,-0.326757,0.097769,0.022994,1.831055,0.640869,0.030518
2.788178,-0.358654,-0.712518,10.020762,-0.195031,0.040887,-0.018919,1.770020,0.762939,0.213623
2.798276,-0.374222,-0.671803,10.079440,-0.210599,0.081603,0.039759,-0.244141,0.885010,-3.173828
2.808372,-0.635878,-0.702339,10.038126,-0.472254,0.051066,-0.001555,-1.129150,0.823975,-4.455566
2.818469,-0.581990,-0.979563,10.174043,-0.418367,-0.226157,0.134362,0.152588,1.770020,-6.713867
2.828565,-0.480800,-0.820893,9.957892,-0.317177,-0.067487,-0.081788,0.640869,1.953125,-5.462646
2.838734,-0.546663,-0.579595,9.945917,-0.383040,0.173811,-0.093764,0.488281,1.525879,-4.241943
2.848825,-0.435295,-0.957409,9.980046,-0.271672,-0.204003,-0.059634,-0.518799,0.762939,-3.387451
2.858916,-0.230521,-0.935255,10.090816,-0.066897,-0.181849,0.051135,0.579834,0.701904,-4.394531
2.869005,-0.453257,-0.823288,10.112371,-0.289634,-0.069882,0.072690,0.152588,0.457764,-3.997803
2.879096,-0.782573,-0.613125,9.908196,-0.618949,0.140281,-0.131485,-1.129150,0.396729,-2.899170
2.889186,-0.408351,-0.841251,10.106384,-0.244728,-0.087845,0.066703,-2.838135,-0.152588,-4.669189
2.899275,-0.357457,-0.846041,10.075248,-0.193833,-0.092635,0.035568,-1.647949,0.274658,-5.157471
2.909365,-0.553848,-0.788560,10.062076,-0.390225,-0.035154,0.022395,-2.197266,-0.274658,-4.455566
2.919455,-0.201182,-0.651445,10.055490,-0.037558,0.101960,0.015809,-1.251221,0.091553,-4.058838
2.929545,-0.099393,-0.636476,10.141111,0.064230,0.116929,0.101431,-0.152588,0.183105,-5.096436
2.939656,-0.331111,-0.417931,10.091415,-0.167488,0.335475,0.051734,1.159668,-0.061035,-6.011963
2.949747,-0.507744,-0.445474,10.118958,-0.344121,0.307932,0.079277,0.183105,-0.488281,-2.716064
2.959837,-0.193398,-0.681982,10.081236,-0.029775,0.071424,0.041555,2.960205,1.617432,-6.195068
2.969927,0.176034,-0.566422,10.054292,0.339657,0.186984,0.014611,3.479004,2.441406,-7.537842
2.980016,-0.134121,-0.655038,10.035731,0.029502,0.098368,-0.003950,2.899170,2.532959,-7.446289
2.990106,-0.044308,-0.662223,9.982441,0.119315,0.091183,-0.057239,1.525879,1.983643,-8.239746
3.000196,0.076042,-0.645458,10.065070,0.239665,0.107948,0.025389,-0.823975,1.373291,-5.493164
3.010286,0.088616,-0.835862,10.163265,0.252239,-0.082456,0.123585,-2.960205,0.274658,-8.666992
3.020376,-0.212558,-0.991538,9.924961,-0.048935,-0.238132,-0.114720,-2.410889,0.000000,-9.857178
3.030465,-0.376617,-0.567620,10.245894,-0.212994,0.185786,0.206213,1.373291,-2.410889,-4.425049
3.040627,-0.508343,-0.622106,10.019564,-0.344720,0.131299,-0.020117,3.112793,-2.899170,-5.249023
3.050722,-0.159269,-0.514929,9.804012,0.004354,0.238477,-0.235668,3.479004,-2.136230,-6.469727
3.060818,-0.696352,-0.580193,9.960287,-0.532729,0.173212,-0.079393,-0.854492,-1.312256,-8.941650
3.070915,-0.675396,-0.492177,9.840536,-0.511772,0.261229,-0.199144,-1.373291,-0.427246,-9.613037
3.081012,-0.374222,-0.294587,10.079440,-0.210599,0.458818,0.039759,-3.356934,1.953125,-11.688232
3.091108,-0.605940,-0.546064,10.187814,-0.442317,0.207341,0.148133,-4.272461,2.136230,-11.688232
3.101203,-0.175435,-0.468825,10.374626,-0.011812,0.284581,0.334945,-1.098633,1.892090,-12.176514
3.111297,-0.310155,-0.783171,10.151290,-0.146532,-0.029766,0.111609,0.915527,1.220703,-8.819580
3.121394,-1.002914,-0.703537,10.005793,-0.839291,0.049869,-0.033888,-0.488281,0.793457,-9.094238
3.131490,-0.645458,-0.758024,9.972861,-0.481835,-0.004618,-0.066820,-4.119873,-0.061035,-9.063721
3.141660,-0.089214,-0.548459,9.910591,0.074409,0.204946,-0.129090,-1.525879,0.152588,-9.948730
3.151750,0.464634,-0.803529,10.108180,0.628257,-0.050123,0.068499,0.732422,-0.183105,-14.160156
3.161857,-0.070653,-0.837059,9.996213,0.092970,-0.083654,-0.043468,-1.434326,0.030518,-14.709473
3.171947,-0.048499,-0.799338,9.756711,0.115124,-0.045932,-0.282970,2.685547,1.098633,-15.167236
3.182036,-0.138911,-0.853226,9.896221,0.024712,-0.099820,-0.143460,0.183105,0.152588,-12.908936
3.192127,-0.179028,-1.025068,9.961485,-0.015404,-0.271663,-0.078196,0.000000,0.610352,-11.749268
3.202217,0.186213,-1.185535,10.005793,0.349836,-0.432129,-0.033888,1.525879,1.800537,-9.887695
3.212306,-0.124541,-0.985551,9.865684,0.039082,-0.232145,-0.173997,-0.640869,1.861572,-6.774902
3.222393,0.080832,-0.524509,9.983639,0.244455,0.228897,-0.056042,-3.234863,0.488281,-3.845215
3.232479,0.238304,-0.922083,9.932146,0.401928,-0.168677,-0.107535,-3.967285,0.427246,-4.852295
3.242566,0.274828,-0.667013,9.931547,0.438452,0.086393,-0.108134,-0.823975,0.701904,-9.552002
3.252652,0.508343,-0.627495,9.917177,0.671966,0.125911,-0.122504,-1.495361,0.610352,-10.864258
3.262737,0.358654,-0.687969,10.194999,0.522277,0.065436,0.155319,-1.129150,0.732422,-15.686035
3.272823,0.233514,-0.590372,9.990824,0.397138,0.163033,-0.048857,-0.732422,1.342773,-17.486572
3.282909,0.211959,-0.493973,9.941127,0.375582,0.259433,-0.098554,0.122070,1.129150,-18.707275
3.292996,-0.419727,-0.455054,10.091415,-0.256104,0.298352,0.051734,1.739502,1.159668,-17.852783
3.303084,-0.307161,-0.611927,9.818383,-0.143538,0.141478,-0.221298,4.241943,1.403809,-17.333984
3.313170,-0.193997,-0.793350,10.085427,-0.030373,-0.039944,0.045746,1.434326,0.396729,-17.059326
3.323259,-0.228126,-0.720901,9.968071,-0.064502,0.032505,-0.071610,1.922607,0.488281,-17.181396
3.333345,-0.285007,-0.756826,9.923763,-0.121384,-0.003420,-0.115917,1.647949,0.122070,-15.625000
3.343494,-0.252675,-0.474813,10.162667,-0.089051,0.278593,0.122986,1.037598,0.122070,-13.244629
3.353587,-0.277224,-0.622705,10.060280,-0.113600,0.130701,0.020599,0.762939,0.152588,-10.467529
3.363683,-0.768801,-0.597557,10.250085,-0.605178,0.155848,0.210404,-3.448486,0.701904,-7.873535
3.373774,-0.765807,-1.708846,9.756112,-0.602184,-0.955441,-0.283569,-4.730225,1.434326,-6.866455
3.383866,-0.356259,-1.094524,9.888437,-0.192636,-0.341118,-0.151244,0.396729,0.579834,-7.324219
3.393958,-0.718506,-1.126857,9.907597,-0.554883,-0.373451,-0.132084,-0.488281,0.671387,-6.286621
3.404050,-0.698747,-1.175955,9.947115,-0.535124,-0.422549,-0.092566,0.427246,1.007080,-3.662109
3.414145,-0.474214,-0.904120,9.900412,-0.310591,-0.150714,-0.139269,0.366211,0.488281,-3.082275
3.424238,-0.437091,-0.927471,10.027947,-0.273468,-0.174066,-0.011734,0.701904,-0.488281,-3.356934
3.434330,-0.370629,-0.933459,9.963880,-0.207006,-0.180053,-0.075801,0.244141,-0.427246,-3.753662
3.444503,-0.299976,-0.684377,9.751921,-0.136353,0.069029,-0.287760,0.793457,-0.091553,-3.967285
3.454590,-0.265248,-1.132844,10.098001,-0.101625,-0.379438,0.058320,1.312256,0.213623,-5.340576
3.464679,-0.049697,-0.921484,10.243499,0.113927,-0.168078,0.203818,2.380371,0.152588,-4.974365
3.474766,-0.313748,-0.738265,10.075248,-0.150124,0.015141,0.035568,1.098633,0.335693,-2.441406
3.484854,-0.197589,-0.811912,9.939930,-0.033966,-0.058506,-0.099751,1.495361,0.946045,-4.089355
3.494941,-0.271835,-0.625699,10.064471,-0.108211,0.127707,0.024790,-1.220703,1.098633,-4.486084
3.505030,-0.116158,-0.665217,9.987830,0.047465,0.088189,-0.051851,-2.197266,0.946045,-4.608154
3.515119,-0.098795,-0.783770,9.963281,0.064829,-0.030364,-0.076400,-2.258301,1.647949,-3.662109
3.525208,-0.072449,-0.942440,10.030941,0.091174,-0.189034,-0.008740,-0.549316,0.488281,-1.617432
3.535296,-0.044308,-0.961002,10.006990,0.119315,-0.207596,-0.032691,-0.396729,0.946045,-1.495361
3.545453,-0.019759,-0.817300,10.042317,0.143864,-0.063895,0.002636,-0.640869,1.586914,-1.586914
3.555547,-0.074246,-0.680784,10.061477,0.089378,0.072621,0.021796,0.061035,0.976562,0.030518
3.565643,0.105381,-0.881966,10.139315,0.269004,-0.128560,0.099634,0.274658,0.335693,-0.152588
3.575738,-0.162263,-0.677791,9.951905,0.001361,0.075615,-0.087776,-1.251221,0.579834,-0.610352
3.585833,0.057480,-0.656235,9.953701,0.221104,0.097170,-0.085980,-1.068115,0.335693,-0.701904
3.595928,-0.125140,-0.667013,10.105186,0.038483,0.086393,0.065505,-0.640869,-0.396729,0.885010
3.606023,-0.318538,-0.809517,10.004595,-0.154914,-0.056111,-0.035086,-0.396729,-0.823975,2.136230
3.616118,0.103585,-0.753832,10.078242,0.267208,-0.000427,0.038561,2.532959,-0.457764,4.699707
3.626211,-0.068258,-0.908910,9.923763,0.095365,-0.155504,-0.115917,2.868652,-0.457764,6.256104
3.636306,0.048499,-0.876577,9.915381,0.212122,-0.123171,-0.124300,2.441406,0.122070,6.439209
3.646471,-0.123942,-0.775986,10.032737,0.039681,-0.022581,-0.006944,-0.274658,0.396729,6.896973
3.656561,0.134720,-0.891546,10.124346,0.298343,-0.138140,0.084665,-1.617432,0.061035,4.974365
3.666650,0.143701,-0.888552,10.106982,0.307324,-0.135146,0.067302,-2.777100,-0.091553,4.058838
3.676738,0.125140,-0.978964,10.015972,0.288763,-0.225558,-0.023709,-2.105713,0.030518,3.143311
3.686826,-0.013173,-0.895737,10.004595,0.150451,-0.142332,-0.035086,-2.166748,-0.274658,5.065918
3.696914,0.023351,-0.877775,10.069860,0.186975,-0.124369,0.030179,-1.129150,-0.274658,5.096436
3.707024,-0.085023,-0.717907,10.148895,0.078600,0.035499,0.109214,-0.915527,-0.823975,5.737305
3.717114,-0.094603,-0.662223,9.988429,0.069020,0.091183,-0.051252,-0.152588,-1.220703,6.744385
3.727206,-0.185015,-0.540077,9.920171,-0.021392,0.213329,-0.119510,-1.129150,-0.518799,5.859375
3.737296,-0.025746,-0.559836,10.154284,0.137877,0.193570,0.114603,-0.457764,-0.061035,5.645752
3.747408,-0.218546,-0.595761,10.037527,-0.054922,0.157645,-0.002154,0.579834,0.366211,5.645752
3.757499,-0.192799,-0.571212,10.074650,-0.029176,0.182194,0.034969,0.823975,0.793457,5.523682
3.767588,-0.249681,-0.623304,10.102192,-0.086058,0.130102,0.062512,-0.091553,1.037598,4.821777
3.777678,-0.288001,-0.507744,10.162667,-0.124378,0.245662,0.122986,0.274658,0.915527,3.509521
3.787768,-0.440684,-0.504750,10.014175,-0.277060,0.248655,-0.025505,0.061035,0.427246,3.448486
3.797858,-0.340093,-0.598755,10.092014,-0.176470,0.154651,0.052333,0.915527,-0.152588,2.166748
3.807948,-0.279619,-0.662822,10.114167,-0.115995,0.090584,0.074487,-0.671387,-0.488281,2.349854
3.818036,-0.621508,-0.833467,10.247690,-0.457884,-0.080061,0.208009,-0.976562,-0.976562,2.441406
3.828127,-0.299377,-0.699944,10.022558,-0.135754,0.053461,-0.017123,0.274658,-0.823975,3.234863
3.838217,-0.373623,-0.832868,10.073452,-0.210000,-0.079462,0.033771,-1.403809,-0.610352,3.479004
3.848370,-0.310754,-0.808319,9.986633,-0.147131,-0.054913,-0.053048,0.518799,-0.305176,3.814697
3.858468,-0.323328,-0.947230,10.146500,-0.159704,-0.193824,0.106819,0.701904,-1.373291,3.814697
3.868565,-0.332309,-0.799338,9.973460,-0.168686,-0.045932,-0.066221,2.441406,-1.617432,3.936768
3.878661,-0.162861,-0.805924,9.988429,0.000762,-0.052518,-0.051252,3.387451,-1.678467,2.960205
3.888757,-0.643063,-0.778980,10.114766,-0.479440,-0.025574,0.075085,1.068115,-1.403809,4.089355
3.898854,-0.428110,-0.953218,10.089020,-0.264486,-0.199812,0.049339,-0.213623,-1.190186,3.326416
3.908952,-0.320334,-0.973575,9.998009,-0.156711,-0.220170,-0.041672,-0.091553,-0.946045,3.265381
3.919048,-0.601150,-0.815504,10.035731,-0.437527,-0.062098,-0.003950,-1.312256,-1.159668,6.164551
3.929143,-0.463436,-0.862207,10.080637,-0.299813,-0.108801,0.040956,-1.373291,-0.762939,7.659912
3.939240,-0.272433,-0.979563,10.223141,-0.108810,-0.226157,0.183460,1.739502,1.342773,8.911133
3.949403,-0.330513,-1.019680,10.064471,-0.166889,-0.266274,0.024790,2.227783,1.159668,8.880615
3.959491,-0.647254,-0.833467,9.960287,-0.483631,-0.080061,-0.079393,0.640869,1.037598,7.202148
3.969581,-0.565225,-0.789159,9.990225,-0.401601,-0.035753,-0.049456,1.190186,0.579834,7.598877
3.979671,-0.399370,-0.692759,9.945917,-0.235746,0.060646,-0.093764,1.281738,0.061035,8.087158
3.989761,-0.246687,-0.618514,10.008787,-0.083064,0.134892,-0.030894,-0.061035,-0.335693,7.781982
3.999851,-0.399968,-0.874182,9.974059,-0.236345,-0.120776,-0.065622,-2.136230,-0.640869,7.019043
4.009941,-0.347877,-0.655637,10.228530,-0.184253,0.097769,0.188849,-3.295898,-1.190186,5.859375
4.020031,-0.117955,-0.847837,10.377620,0.045669,-0.094431,0.337939,-2.349854,-0.427246,5.035400
4.030122,0.055085,-0.841251,10.147698,0.218709,-0.087845,0.108017,-3.540039,0.579834,4.943848
4.040211,-0.434097,-0.767005,10.024354,-0.270474,-0.013599,-0.015327,-2.929688,0.549316,3.662109
4.050324,-0.193398,-0.793949,10.061477,-0.029775,-0.040543,0.021796,-3.295898,0.274658,3.326416
4.060414,0.026944,-0.885558,10.068662,0.190567,-0.132153,0.028981,-1.312256,-0.366211,1.403809
4.070504,0.046104,-0.725691,10.001602,0.209727,0.027715,-0.038079,0.427246,-0.488281,1.770020
4.080593,-0.539478,-0.851429,9.960287,-0.375855,-0.098024,-0.079393,-0.427246,-0.152588,1.647949
4.090683,-0.349074,-0.984353,9.938732,-0.185451,-0.230947,-0.100949,-0.793457,0.335693,2.471924
4.100772,0.017963,-1.064586,10.046508,0.181586,-0.311180,0.006827,0.915527,0.854492,5.493164
4.110863,-0.240699,-0.789159,10.049502,-0.077076,-0.035753,0.009821,0.885010,0.701904,6.408691
4.120952,0.001198,-0.753832,10.095007,0.164821,-0.000427,0.055326,0.396729,0.305176,7.598877
4.131042,-0.516127,-0.730481,10.057286,-0.352503,0.022925,0.017605,2.014160,-0.427246,8.270264
4.141132,-0.322729,-0.568218,10.036329,-0.159106,0.185187,-0.003352,1.647949,-0.854492,8.911133
4.151281,-0.037123,-0.541873,10.049502,0.126500,0.211533,0.009821,-0.213623,-0.976562,10.620117
4.161378,-0.116158,-0.614921,10.160870,0.047465,0.138485,0.121189,-0.366211,-0.396729,9.490967
4.171475,-0.261656,-0.525707,9.968071,-0.098033,0.227699,-0.071610,-0.640869,-0.061035,9.094238
4.181570,-0.107177,-0.504750,10.107581,0.056446,0.248655,0.067900,0.946045,-0.091553,9.033203
4.191666,-0.002395,-0.379012,9.849518,0.161228,0.374394,-0.190163,0.518799,-0.579834,9.521484
4.201762,-0.095801,-0.932860,9.988429,0.067822,-0.179454,-0.051252,-1.129150,-0.915527,8.483887
4.211857,0.065863,-0.895737,10.101594,0.229486,-0.142332,0.061913,3.631592,-1.434326,6.072998
4.221953,-0.318538,-0.612526,10.064471,-0.154914,0.140880,0.024790,2.624512,-2.136230,11.535645
4.232049,-0.048499,-0.861010,10.150692,0.115124,-0.107604,0.111011,2.258301,-1.922607,11.322021
4.242142,-0.315544,-0.775986,9.925560,-0.151921,-0.022581,-0.114121,-0.549316,-0.091553,10.009766
4.252237,-0.057480,-1.055605,10.194401,0.106143,-0.302199,0.154720,-1.708984,0.183105,10.284424
4.262325,-0.126337,-0.902922,9.957892,0.037286,-0.149517,-0.081788,-1.159668,-0.579834,11.016846
4.272411,-0.193398,-1.060395,10.067465,-0.029775,-0.306989,0.027784,-1.892090,-0.976562,10.131836
4.282498,-0.238903,-1.274749,10.161469,-0.075280,-0.521343,0.121788,-1.983643,-1.556396,8.605957
4.292585,-0.196990,-1.187930,9.953701,-0.033367,-0.434524,-0.085980,-0.030518,-2.044678,9.338379
4.302671,0.145497,-1.034648,10.023755,0.309121,-0.281243,-0.015925,0.061035,-1.434326,10.314941
4.312761,-0.343087,-1.159189,9.932745,-0.179463,-0.405784,-0.106936,-0.488281,1.190186,10.009766
4.322850,0.186812,-1.174757,9.999805,0.350435,-0.421351,-0.039876,-0.061035,1.953125,9.338379
4.332968,-0.030536,-1.266367,10.221943,0.133087,-0.512961,0.182262,1.251221,1.373291,8.209229
4.343057,-0.237706,-0.658630,10.025552,-0.074082,0.094775,-0.014129,1.251221,1.159668,8.941650
4.353144,-0.165855,-0.740660,9.967473,-0.002232,0.012746,-0.072208,0.518799,0.793457,7.415771
4.363234,-0.091609,-0.852028,10.228530,0.072014,-0.098622,0.188849,0.061035,0.244141,2.227783
4.373321,-0.144899,-0.961600,9.995614,0.018725,-0.208195,-0.044067,0.518799,-0.152588,1.464844
4.383410,0.076641,-0.961002,9.917177,0.240264,-0.207596,-0.122504,0.640869,-0.579834,0.030518
4.393496,0.073647,-0.920885,9.956695,0.237270,-0.167479,-0.082986,0.396729,-0.457764,-1.007080
4.403585,-0.018561,-1.147214,10.003997,0.145062,-0.393809,-0.035684,7.629395,1.831055,-3.173828
4.413671,-0.232916,-0.978964,10.030941,-0.069292,-0.225558,-0.008740,0.762939,0.549316,1.464844
4.423760,-0.620310,-0.978365,10.262659,-0.456687,-0.224960,0.222978,1.342773,0.061035,5.004883
4.433846,-0.586181,-0.586780,10.042916,-0.422558,0.166626,0.003235,2.227783,0.427246,7.598877
4.443935,-0.051493,-1.286724,9.944720,0.112130,-0.533318,-0.094961,4.760742,0.732422,9.155273
4.454084,-0.499960,-0.856219,10.056088,-0.336337,-0.102814,0.016407,1.953125,1.464844,7.598877
4.464181,-0.378413,-0.655038,9.992620,-0.214790,0.098368,-0.047061,1.007080,1.373291,9.033203
4.474274,-0.839454,-0.530497,10.100396,-0.675831,0.222909,0.060715,-3.051758,1.464844,6.317139
4.484369,-0.587379,-0.825084,10.108779,-0.423755,-0.071678,0.069098,-3.692627,1.220703,4.760742
4.494463,-0.823288,-0.998124,10.091415,-0.659665,-0.244719,0.051734,-1.892090,-0.518799,5.279541
4.504559,-0.313748,-0.619113,9.960287,-0.150124,0.134293,-0.079393,-1.129150,-0.793457,7.110596
4.514652,-0.816702,-0.585582,9.919572,-0.653078,0.167824,-0.120109,-1.190186,-1.037598,10.192871
4.524746,-0.589774,-1.034050,10.060280,-0.426150,-0.280644,0.020599,-2.105713,-0.244141,12.908936
4.534840,-0.082029,-1.006507,10.151889,0.081594,-0.253101,0.112208,-1.922607,0.000000,13.488770
4.544935,-0.293390,-0.290995,10.187216,-0.129767,0.462411,0.147535,-3.723145,-0.091553,19.165039
4.555097,-0.482596,-0.507744,10.037527,-0.318973,0.245662,-0.002154,-2.838135,-2.105713,21.270752
4.565185,-0.021555,-0.392184,10.099199,0.142068,0.361221,0.059518,-2.288818,-2.716064,16.632080
4.575273,0.171843,-0.573607,9.933942,0.335466,0.179799,-0.105739,-1.312256,-2.014160,12.786865
4.585362,0.410147,-0.827479,10.090816,0.573770,-0.074073,0.051135,-0.671387,-1.983643,9.765625
4.595451,0.210762,-0.701741,10.115365,0.374385,0.051665,0.075684,1.800537,-2.136230,8.148193
4.605540,0.143102,-0.712518,9.909393,0.306726,0.040887,-0.130288,1.617432,-1.861572,10.253906
4.615628,0.199984,-0.358654,10.127939,0.363607,0.394752,0.088258,1.678467,-1.770020,13.122559
4.625718,0.022154,-0.500559,9.911190,0.185777,0.252847,-0.128491,1.037598,-1.586914,15.716553
4.635806,0.029339,-0.658032,9.901609,0.192962,0.095374,-0.138071,-0.274658,0.396729,10.162354
4.645895,0.255668,-0.859213,9.982441,0.419292,-0.105807,-0.057239,-0.610352,1.190186,7.781982
4.656005,-0.107776,-0.814307,10.070458,0.055847,-0.060901,0.030777,0.152588,1.373291,7.080078
4.666094,-0.108375,-0.872985,9.950109,0.055249,-0.119579,-0.089572,-0.793457,0.366211,5.828857
4.676196,-0.382006,-0.773591,9.874067,-0.218382,-0.020186,-0.165614,-0.122070,-0.030518,5.340576
4.686298,0.072449,-0.900527,10.018367,0.236073,-0.147122,-0.021314,0.366211,-1.464844,4.058838
4.696390,-0.153880,-0.838257,10.168055,0.009743,-0.084851,0.128375,1.556396,-1.495361,3.814697
4.706478,-0.299377,-0.887355,10.121951,-0.135754,-0.133949,0.082270,1.495361,-2.227783,4.516602
4.716567,0.182021,-0.778381,10.408755,0.345645,-0.024976,0.369074,0.701904,-2.044678,5.767822
4.726657,-0.152084,-0.728685,10.112371,0.011540,0.024721,0.072690,-0.305176,-0.488281,6.347656
4.736747,-0.206570,-0.934656,9.708212,-0.042947,-0.181251,-0.331469,-0.915527,0.305176,6.195068
4.746836,-0.153281,-0.455652,10.006990,0.010342,0.297753,-0.032691,-1.800537,0.549316,7.293701
4.757020,0.440684,-0.653840,10.326127,0.604307,0.099565,0.286446,0.701904,0.427246,10.559082
4.767105,-0.309556,-0.499362,10.338701,-0.145933,0.254044,0.299020,-1.373291,1.037598,6.744385
4.777191,-0.126337,-0.517324,10.004595,0.037286,0.236082,-0.035086,-3.173828,1.586914,2.136230
4.787276,0.232916,-0.632285,10.081236,0.396539,0.121121,0.041555,-3.112793,1.281738,1.556396
4.797359,-0.147294,-0.547262,9.932745,0.016330,0.206144,-0.106936,-2.075195,0.671387,0.885010
4.807443,-0.064666,-1.023871,10.144105,0.098958,-0.270465,0.104424,-1.251221,0.366211,0.427246
4.817528,-0.161664,-1.154998,10.012379,0.001959,-0.401592,-0.027302,-0.122070,0.427246,-0.213623
4.827612,-0.236508,-0.641266,10.048304,-0.072885,0.112139,0.008624,4.119873,-0.091553,3.204346
4.837697,-0.285007,-0.875978,10.005194,-0.121384,-0.122573,-0.034487,3.936768,-0.518799,4.058838
4.847781,-0.225731,-0.992137,9.983639,-0.062107,-0.238731,-0.056042,2.410889,0.305176,2.166748
4.857930,-0.298180,-0.741857,9.947714,-0.134557,0.011548,-0.091967,1.770020,0.457764,3.204346
4.868025,-0.048499,-1.001717,10.160870,0.115124,-0.248311,0.121189,-1.251221,-1.098633,3.265381
4.878121,-0.044907,-0.799937,10.612930,0.118717,-0.046531,0.573249,-0.610352,-1.037598,2.563477
4.888216,-0.561033,-0.555046,10.085427,-0.397410,0.198360,0.045746,2.655029,-0.762939,2.624512
4.898311,-0.001796,-1.043031,10.353071,0.161827,-0.289625,0.313390,-1.007080,-0.915527,3.448486
4.908406,-0.012574,-0.891546,10.084230,0.151049,-0.138140,0.044549,-1.739502,-1.312256,2.624512
4.918501,-0.165855,-0.786165,9.846524,-0.002232,-0.032759,-0.193157,-0.427246,-0.549316,-0.701904
4.928597,-0.290995,-0.874182,9.616003,-0.127372,-0.120776,-0.423677,-0.152588,-0.274658,-2.807617
4.938691,-0.406555,-0.711321,9.914183,-0.242931,0.042085,-0.125498,-0.030518,-0.366211,-2.410889
4.948787,-0.370031,-0.716111,9.907597,-0.206407,0.037295,-0.132084,-1.129150,-0.305176,0.183105
4.958907,-0.479004,-1.168770,9.950707,-0.315381,-0.415364,-0.088973,-1.007080,1.037598,-2.532959
4.969002,-0.389191,-0.811313,9.990824,-0.225567,-0.057907,-0.048857,-1.007080,1.190186,-1.525879
4.979097,-0.406555,-0.804128,10.015972,-0.242931,-0.050722,-0.023709,0.030518,0.854492,0.274658
4.989192,-0.407752,-0.938249,9.933344,-0.244129,-0.184843,-0.106337,0.030518,-0.457764,2.349854
4.999287,-0.463436,-0.992736,9.989028,-0.299813,-0.239330,-0.050653,-0.732422,-0.854492,2.990723
5.009381,-0.220941,-0.805325,9.915381,-0.057317,-0.051920,-0.124300,1.190186,0.152588,3.479004
5.019477,-0.264650,-0.914299,10.150692,-0.101026,-0.160893,0.111011,1.220703,-0.213623,4.486084
5.029573,-0.365240,-0.633483,10.033336,-0.201617,0.119923,-0.006345,0.671387,-0.549316,2.838135
5.039669,-0.171244,-0.725092,10.051897,-0.007621,0.028314,0.012216,-0.549316,-0.488281,1.556396
5.049764,-0.253872,-0.742456,9.926158,-0.090249,0.010950,-0.113522,-1.129150,-1.159668,-0.366211
5.059883,-0.249082,-0.776585,10.028546,-0.085459,-0.023179,-0.011135,-1.831055,-1.647949,-1.434326
5.069978,-0.396376,-0.802930,10.149494,-0.232752,-0.049525,0.109813,-1.770020,-1.647949,-1.678467
5.080073,-0.075443,-0.681982,10.227931,0.088180,0.071424,0.188250,1.220703,-0.427246,-1.007080
5.090168,-0.079036,-0.741857,10.190209,0.084588,0.011548,0.150528,-0.610352,0.091553,-0.640869
5.100264,-0.307161,-0.578397,10.222542,-0.143538,0.175009,0.182861,0.122070,0.762939,-5.310059
5.110359,-0.231119,-0.535886,9.980645,-0.067496,0.217520,-0.059036,-0.671387,0.610352,-6.042480
5.120455,-0.501757,-0.489781,9.994417,-0.338133,0.263624,-0.045264,-1.281738,0.793457,-6.958008
5.130555,0.241897,-0.894540,10.168055,0.405520,-0.141134,0.128375,0.793457,1.373291,-9.124756
5.140651,0.135917,-0.623304,10.152488,0.299541,0.130102,0.112807,1.861572,1.098633,-10.345459
5.150745,-0.122146,-0.631686,10.003997,0.041477,0.121719,-0.035684,-0.030518,0.579834,-16.418457
5.160832,-0.135319,-0.672402,9.953102,0.028305,0.081004,-0.086578,0.610352,1.007080,-18.218994
5.170918,-0.330513,-0.865800,10.131531,-0.166889,-0.112394,0.091850,-0.793457,0.885010,-16.784668
5.181008,0.114961,-0.873583,10.003398,0.278584,-0.120178,-0.036283,-1.129150,1.251221,-16.387939
5.191113,-0.040715,-0.949026,9.999207,0.122908,-0.195621,-0.040474,-1.647949,1.220703,-16.876221
5.201203,0.260458,-0.999322,9.939930,0.424082,-0.245916,-0.099751,-1.708984,0.762939,-16.296387
5.211294,0.102986,-1.018482,10.202184,0.266609,-0.265076,0.162504,-1.251221,0.823975,-15.045166
5.221383,0.314346,-0.945434,9.948911,0.477970,-0.192028,-0.090770,0.091553,0.335693,-12.939453
5.231472,0.376617,-0.886756,9.945319,0.540240,-0.133350,-0.094362,1.068115,0.122070,-14.038086
5.241561,0.410147,-0.922681,10.133328,0.573770,-0.169275,0.093647,0.640869,0.091553,-15.014648
5.251650,-0.458646,-0.805924,9.994417,-0.295023,-0.052518,-0.045264,-0.518799,-0.122070,-14.953613
5.261810,0.043709,-0.742456,10.049502,0.207332,0.010950,0.009821,-0.274658,-0.854492,-11.810303
5.271906,0.020358,-0.667612,10.034533,0.183981,0.085794,-0.005148,-0.671387,-1.037598,-10.986328
5.282002,-0.184417,-0.574206,9.980046,-0.020793,0.179200,-0.059634,0.122070,-0.427246,-10.864258
5.292098,0.072449,-0.740660,10.198592,0.236073,0.012746,0.158911,-0.762939,-0.457764,-9.216309
5.302194,0.065264,-0.584984,10.039323,0.228888,0.168422,-0.000358,1.525879,0.579834,-8.544922
5.312289,-0.434696,-0.410746,10.112970,-0.271073,0.342660,0.073289,2.197266,1.434326,-4.425049
5.322384,-0.234113,-0.776585,10.133926,-0.070490,-0.023179,0.094246,-1.190186,1.037598,-1.159668
5.332479,-0.368234,-0.777184,10.088421,-0.204611,-0.023778,0.048740,-2.410889,0.793457,-2.258301
5.342574,0.011376,-0.910107,10.158475,0.175000,-0.156702,0.118794,-0.946045,0.366211,-2.197266
5.352670,-0.386796,-0.689167,10.041718,-0.223172,0.064239,0.002037,-1.129150,0.091553,-2.105713
5.362831,-0.160466,-0.667013,10.020163,0.003157,0.086393,-0.019518,-0.061035,-0.061035,-4.730225
5.372921,-0.228724,-1.084944,9.866882,-0.065101,-0.331538,-0.172799,-0.457764,-0.274658,-3.723145
5.383010,-0.476010,-0.394579,10.044113,-0.312387,0.358826,0.004432,0.183105,-0.915527,-8.972168
5.393099,-1.075963,-0.555645,9.935140,-0.912339,0.197761,-0.104541,0.671387,-0.885010,-9.399414
5.403188,-0.673599,-0.975372,9.956695,-0.509976,-0.221966,-0.082986,-0.885010,-1.892090,-5.615234
5.413278,-0.620310,-0.949026,9.701625,-0.456687,-0.195621,-0.338056,0.549316,-1.342773,-4.150391
5.423367,-0.274828,-1.005309,9.729767,-0.111205,-0.251904,-0.309914,1.739502,-0.183105,-4.150391
5.433456,-1.008303,-0.902324,10.115365,-0.844680,-0.148918,0.075684,-2.380371,0.518799,-4.730225
5.443545,-0.474214,-0.982557,10.163265,-0.310591,-0.229151,0.123585,-1.068115,0.701904,-2.899170
5.453634,0.005988,-0.740660,10.015373,0.169611,0.012746,-0.024308,0.152588,0.488281,-2.136230
5.463783,-0.540676,-0.963397,10.057885,-0.377052,-0.209991,0.018204,-0.610352,0.396729,-4.089355
5.473879,0.149090,-0.928070,9.977651,0.312713,-0.174664,-0.062030,0.000000,-0.030518,-4.974365
5.483975,-0.549058,-0.857417,10.027947,-0.385435,-0.104011,-0.011734,-0.030518,-0.122070,-4.608154
5.494071,-0.439486,-1.133443,10.036928,-0.275863,-0.380037,-0.002753,1.068115,1.007080,-1.892090
5.504166,-0.170046,-1.007704,10.029743,-0.006423,-0.254299,-0.009938,0.335693,1.251221,-0.244141
5.514261,-0.005389,-0.987946,9.858499,0.158234,-0.234540,-0.181182,1.037598,1.647949,1.190186
5.524356,-0.076042,-0.920286,9.917177,0.087581,-0.166880,-0.122504,-2.471924,1.037598,1.495361
5.534451,-0.268242,-0.958607,9.933942,-0.104619,-0.205201,-0.105739,-4.394531,0.946045,0.000000
5.544546,-0.060474,-0.873583,10.136920,0.103149,-0.120178,0.097239,-4.364014,1.770020,1.068115
5.554642,-0.031734,-1.169368,10.065070,0.131889,-0.415963,0.025389,-1.525879,1.434326,0.823975
5.564804,-0.102387,-1.157393,10.167457,0.061236,-0.403987,0.127776,0.823975,0.732422,-1.007080
5.574893,0.245490,-1.340612,10.218950,0.409113,-0.587206,0.179269,2.105713,-0.549316,-1.495361
5.584982,0.154479,-1.160387,10.321337,0.318102,-0.406981,0.281656,0.427246,-0.549316,-0.762939
5.595071,-0.260458,-1.160387,10.163265,-0.096835,-0.406981,0.123585,1.251221,0.915527,-1.495361
5.605160,0.029339,-1.129850,10.044712,0.192962,-0.376445,0.005031,2.044678,1.281738,-2.624512
5.615249,-0.507145,-0.725691,9.930948,-0.343522,0.027715,-0.108732,1.312256,0.091553,-1.220703
5.625339,-0.465831,-0.831072,9.974059,-0.302208,-0.077666,-0.065622,0.762939,0.701904,-0.183105
5.635428,-0.146096,-1.132245,9.990824,0.017527,-0.378840,-0.048857,-0.244141,0.274658,-0.061035
5.645517,-0.353864,-1.095123,9.965078,-0.190241,-0.341717,-0.074603,0.152588,0.946045,0.640869
5.655607,-0.223336,-1.271755,10.012978,-0.059712,-0.518350,-0.026703,2.929688,1.220703,0.030518
5.665757,-0.485590,-0.255070,10.247690,-0.321967,0.498336,0.208009,2.410889,0.854492,4.699707
5.675854,-0.637674,-0.517923,9.951905,-0.474051,0.235483,-0.087776,0.366211,0.061035,8.209229
5.685955,-0.169448,-0.813109,10.081236,-0.005824,-0.059703,0.041555,-0.061035,-0.762939,5.889893
5.696051,-0.127535,-0.795745,10.129136,0.036088,-0.042339,0.089455,0.030518,-0.366211,-0.579834
5.706148,-0.486788,-0.724493,9.982441,-0.323164,0.028912,-0.057239,1.922607,0.030518,-2.807617
5.716244,-0.153281,-0.619113,10.357262,0.010342,0.134293,0.317581,-0.946045,0.122070,3.417969
5.726341,-0.616119,-0.577200,9.966874,-0.452496,0.176206,-0.072807,-3.356934,1.220703,-6.011963
5.736438,0.124541,-0.819695,9.948312,0.288164,-0.066290,-0.091368,-2.990723,1.190186,-9.216309
5.746534,0.070653,-0.771196,10.095606,0.234276,-0.017791,0.055925,0.396729,1.129150,-9.796143
5.756630,-0.333506,-0.670605,10.018965,-0.169883,0.082800,-0.020715,-0.640869,0.610352,-6.652832
5.766798,0.129930,-0.530497,10.132130,0.293553,0.222909,0.092449,1.678467,1.007080,-8.300781
5.776888,-0.375419,-0.755030,9.908795,-0.211796,-0.001624,-0.130886,-0.823975,1.861572,-4.455566
5.786977,-0.151485,-1.002316,10.147698,0.012138,-0.248910,0.108017,-2.685547,1.495361,-5.096436
5.797067,0.017963,-1.260978,10.095007,0.181586,-0.507572,0.055326,-0.549316,-0.152588,-5.676270
5.807156,-0.276026,-0.759221,10.037527,-0.112403,-0.005815,-0.002154,2.166748,0.152588,-2.716064
5.817245,-0.038919,-0.581990,10.001003,0.124704,0.171416,-0.038678,1.953125,0.213623,0.762939
5.827335,-0.370629,-1.242416,10.456057,-0.207006,-0.489011,0.416376,0.396729,-1.586914,2.319336
5.837424,-0.541873,-0.898132,10.039922,-0.378250,-0.144727,0.000241,1.159668,-2.197266,0.762939
5.847514,-0.211360,-0.537083,10.055490,-0.047737,0.216323,0.015809,-0.396729,-0.854492,4.180908
5.857604,-0.155078,-0.667013,10.184821,0.008546,0.086393,0.145140,-0.122070,-1.586914,4.455566
5.867759,-0.078437,-0.493374,10.231523,0.085186,0.260032,0.191843,-1.037598,-0.701904,4.882812
5.877856,-0.164059,-0.454455,9.854308,-0.000436,0.298951,-0.185373,-0.335693,0.152588,3.387451
5.887952,-0.549058,-0.499362,9.871073,-0.385435,0.254044,-0.168608,-1.678467,1.007080,1.770020
5.898047,-0.110171,-0.455652,9.929751,0.053452,0.297753,-0.109930,-2.777100,0.518799,2.075195
5.908144,-0.138312,-0.684377,10.151889,0.025311,0.069029,0.112208,-3.112793,0.671387,2.105713
5.918240,-0.311951,-0.732277,9.823173,-0.148328,0.021129,-0.216508,-1.464844,1.342773,-0.793457
5.928337,-0.368833,-0.464035,9.891431,-0.205210,0.289371,-0.148250,-1.770020,0.640869,0.701904
5.938433,-0.376617,-0.545466,9.965676,-0.212994,0.207940,-0.074005,0.671387,0.366211,3.234863
5.948529,0.765807,-1.126857,10.223740,0.929431,-0.373451,0.184059,2.868652,0.793457,2.532959
5.958625,-0.229922,-1.156196,10.167457,-0.066299,-0.402790,0.127776,2.166748,0.610352,-0.091553
5.968786,-0.035327,0.225132,9.641151,0.128297,0.978538,-0.398530,3.784180,0.213623,-0.610352
5.978875,0.030536,-1.109493,9.877061,0.194160,-0.356087,-0.162620,-1.464844,-0.823975,2.716064
5.988968,-0.501757,-0.586181,9.897418,-0.338133,0.167225,-0.142263,-2.807617,0.366211,-1.495361
5.999059,-0.766406,-0.800535,9.850715,-0.602783,-0.047129,-0.188966,-3.173828,0.183105,1.892090
6.009149,0.297581,-0.522713,9.702823,0.461204,0.230693,-0.336858,3.692627,0.366211,3.326416
6.019239,-1.643582,-0.817300,9.911190,-1.479959,-0.063895,-0.128491,4.394531,-1.098633,1.922607
6.029330,-1.132245,-0.180225,9.438173,-0.968622,0.573181,-0.601508,1.647949,-0.640869,4.333496
6.039420,0.006586,-0.787363,9.921967,0.170210,-0.033957,-0.117714,1.556396,-0.976562,4.821777
6.049510,-0.231119,-0.849633,10.099199,-0.067496,-0.096227,0.059518,0.793457,-1.373291,5.065918
6.059600,-0.572410,-0.878373,9.935739,-0.408786,-0.124968,-0.103942,-1.586914,-2.258301,5.920410
6.069716,0.279020,-0.985551,10.105186,0.442643,-0.232145,0.065505,-1.373291,-3.082275,6.805420
6.079807,-0.404758,-0.544867,9.972861,-0.241135,0.208539,-0.066820,-0.732422,-1.739502,5.950928
6.089896,-0.472418,-0.768203,10.125544,-0.308794,-0.014797,0.085863,-1.495361,-0.488281,7.293701
6.099986,-0.250280,-1.069376,10.001602,-0.086656,-0.315970,-0.038079,0.701904,0.274658,5.706787
6.110076,-0.071851,-1.150807,9.875863,0.091773,-0.397401,-0.163818,-0.152588,1.403809,8.209229
6.120164,-0.766406,-1.090931,10.186018,-0.602783,-0.337526,0.146337,-3.234863,0.762939,9.490967
6.130253,-0.108973,-0.880768,9.939331,0.054650,-0.127363,-0.100350,-2.197266,0.701904,7.690430
6.140343,-0.368234,-1.163979,9.836944,-0.204611,-0.410574,-0.202737,-1.708984,-0.244141,7.293701
6.150432,-0.460443,-0.858016,10.208172,-0.296819,-0.104610,0.168491,0.732422,-2.075195,4.913330
6.160522,-0.047900,-1.322650,10.251881,0.115723,-0.569244,0.212200,-0.213623,-4.150391,5.462646
6.170684,-0.074844,-1.292712,10.228530,0.088779,-0.539306,0.188849,1.678467,-1.281738,5.340576
6.180781,-0.627495,-0.965193,10.073452,-0.463872,-0.211787,0.033771,0.915527,-0.732422,5.340576
6.190877,-0.362845,-0.808319,10.020762,-0.199222,-0.054913,-0.018919,1.068115,0.518799,6.378174
6.200973,-0.107776,-0.913700,9.827364,0.055847,-0.160294,-0.212317,2.014160,1.647949,8.361816
6.211070,-0.011975,-0.802332,9.872869,0.151648,-0.048926,-0.166812,0.640869,0.793457,7.354736
6.221167,-0.137115,-0.599354,10.002799,0.026508,0.154052,-0.036882,-2.685547,-0.610352,7.995605
6.231263,0.464035,-0.359253,10.062675,0.627658,0.394153,0.022994,0.091553,-0.335693,6.317139
6.241358,0.100591,-0.749042,10.048903,0.264214,0.004363,0.009222,1.220703,-0.305176,4.211426
6.251455,0.279619,-0.808319,10.136920,0.443242,-0.054913,0.097239,1.007080,-0.122070,0.579834
6.261551,0.202978,-0.931064,10.072255,0.366601,-0.177658,0.032574,-1.403809,-0.244141,-0.122070
6.271715,-0.062271,-0.640668,9.877061,0.101353,0.112738,-0.162620,-2.014160,0.122070,1.861572
6.281803,-0.231119,-0.695753,9.771081,-0.067496,0.057653,-0.268600,-2.380371,0.030518,2.868652
6.291893,0.049697,-0.699944,9.861493,0.213320,0.053461,-0.178188,-1.739502,1.800537,-0.122070
6.301983,0.031734,-0.899929,9.583072,0.195357,-0.146523,-0.456609,-0.762939,1.953125,0.274658
6.312072,-0.670605,-0.987946,9.695039,-0.506982,-0.234540,-0.344642,-0.885010,1.953125,2.044678
6.322162,-0.802332,-0.919089,9.883048,-0.638708,-0.165683,-0.156633,-2.502441,2.075195,-0.366211
6.332252,-0.218546,-0.954415,9.838141,-0.054922,-0.201009,-0.201539,-2.655029,-0.152588,-1.403809
6.342341,-0.177231,-0.859812,10.077045,-0.013608,-0.106406,0.037364,-2.166748,-0.457764,-0.396729
6.352431,-0.361648,-0.847238,10.042317,-0.198025,-0.093832,0.002636,-1.129150,-1.007080,-0.610352
6.362520,0.117356,-0.891546,10.003997,0.280979,-0.138140,-0.035684,-1.281738,0.000000,0.640869
6.372677,-0.158670,-0.846041,10.035132,0.004953,-0.092635,-0.004549,-1.678467,0.823975,1.464844
6.382773,-0.017963,-0.899330,9.954899,0.145661,-0.145924,-0.084782,1.831055,2.197266,2.471924
6.392870,0.159868,-0.713716,9.768686,0.323491,0.039690,-0.270995,2.899170,2.166748,3.417969
6.402966,-0.433499,-0.637674,9.883048,-0.269875,0.115732,-0.156633,1.739502,1.007080,2.532959
6.413062,0.248483,-0.698148,10.037527,0.412107,0.055258,-0.002154,0.854492,1.098633,2.593994
6.423157,-0.165855,-0.260458,10.421329,-0.002232,0.492947,0.381648,-0.305176,0.061035,3.753662
6.433253,0.064067,-0.825683,10.197993,0.227690,-0.072277,0.158312,-1.403809,-0.732422,-0.671387
6.443349,0.401166,-0.688568,9.676478,0.564789,0.064838,-0.363203,0.854492,-0.305176,-3.723145
6.453445,-1.052012,-0.710123,9.726773,-0.888389,0.043282,-0.312908,-1.922607,0.091553,-3.967285
6.463542,-0.476010,-0.756227,9.918973,-0.312387,-0.002822,-0.120707,-0.671387,1.708984,-3.997803
6.473707,-0.192799,-0.929866,10.050101,-0.029176,-0.176461,0.010420,-2.014160,1.220703,-2.868652
6.483798,-0.243094,-1.123264,10.110575,-0.079471,-0.369858,0.070894,-2.716064,0.427246,-3.082275
6.493888,-0.313748,-1.017883,10.104587,-0.150124,-0.264478,0.064907,-0.549316,0.061035,-2.075195
6.503978,-0.223336,-0.959205,10.015373,-0.059712,-0.205800,-0.024308,-0.091553,-0.274658,-1.556396
6.514068,-0.180225,-1.185535,10.176438,-0.016602,-0.432129,0.136757,-0.671387,-0.701904,-1.220703
6.524158,-0.699346,-1.007704,10.038126,-0.535722,-0.254299,-0.001555,-1.068115,1.464844,1.220703
6.534248,-0.013771,-0.938848,10.073452,0.149852,-0.185442,0.033771,1.037598,1.129150,0.488281
6.544338,-0.806523,-0.732277,9.687854,-0.642900,0.021129,-0.351827,2.929688,-0.122070,1.617432
6.554427,-0.517923,-0.823288,9.767488,-0.354300,-0.069882,-0.272192,3.326416,-1.342773,0.762939
6.564517,-0.235311,-0.995131,9.981843,-0.071687,-0.241725,-0.057838,0.915527,-1.251221,0.152588
6.574671,-0.370031,-0.630489,9.950109,-0.206407,0.122917,-0.089572,0.244141,0.000000,0.549316
6.584768,-0.105980,-0.899929,9.964479,0.057644,-0.146523,-0.075202,-0.366211,0.457764,1.434326
6.594864,-0.002395,-1.021476,10.195598,0.161228,-0.268070,0.155917,-2.746582,1.190186,5.279541
6.604960,-0.019160,-0.920286,10.154284,0.144463,-0.166880,0.114603,-2.899170,0.579834,6.958008
6.615057,0.090412,-0.796943,10.069860,0.254035,-0.043537,0.030179,0.183105,0.091553,8.972168
6.625153,0.319735,-0.795745,9.928553,0.483358,-0.042339,-0.111127,0.762939,-0.701904,9.338379
6.635249,0.207768,-0.656834,9.921368,0.371391,0.096572,-0.118312,0.579834,-0.823975,7.812500
6.645344,0.478405,-0.975970,10.153087,0.642028,-0.222565,0.113406,0.610352,-0.518799,8.209229
6.655437,0.288600,-1.019680,10.051298,0.452223,-0.266274,0.011617,1.831055,-0.122070,6.469727
6.665534,0.108973,-1.057401,10.154284,0.272597,-0.303995,0.114603,0.488281,0.457764,5.767822
6.675734,0.153281,-0.910706,10.056687,0.316904,-0.157300,0.017006,0.335693,0.885010,6.744385
6.685825,0.273631,-0.921484,9.927356,0.437254,-0.168078,-0.112325,-0.152588,0.274658,3.326416
6.695912,0.160466,-1.052012,10.023755,0.324090,-0.298607,-0.015925,0.274658,-0.091553,1.983643
6.706001,0.038919,-0.811912,10.174043,0.202542,-0.058506,0.134362,0.274658,1.007080,3.601074
6.716093,-0.237107,-0.691562,9.905801,-0.073484,0.061844,-0.133880,2.593994,1.098633,2.899170
6.726183,-0.241298,-0.817899,9.959689,-0.077675,-0.064493,-0.079992,2.105713,1.129150,0.732422
6.736274,0.020956,-1.069376,9.820778,0.184580,-0.315970,-0.218903,3.234863,-0.122070,-0.579834
6.746363,-0.550256,-0.736469,9.843530,-0.386632,0.016937,-0.196151,2.960205,-0.122070,-0.793457
6.756454,-0.095801,-0.945434,10.037527,0.067822,-0.192028,-0.002154,-0.366211,-0.549316,1.770020
6.766544,-0.096998,-0.449665,10.101594,0.066625,0.303741,0.061913,1.190186,-0.366211,0.915527
6.776691,-0.158670,-0.820893,10.001602,0.004953,-0.067487,-0.038079,0.701904,-0.640869,1.892090
6.786787,-0.065264,-0.759820,10.163864,0.098359,-0.006414,0.124183,0.610352,-1.068115,3.448486
6.796884,0.799338,-1.044827,10.074051,0.962961,-0.291421,0.034370,0.274658,-1.708984,3.509521
6.806980,-0.427511,-0.781974,10.075248,-0.263888,-0.028568,0.035568,-0.518799,-1.220703,2.227783
6.817073,0.625699,-1.140628,10.144105,0.789322,-0.387222,0.104424,-1.373291,-0.762939,2.838135
6.827170,-0.052092,-0.411345,10.184222,0.111532,0.342061,0.144541,1.434326,0.823975,4.669189
6.837265,-0.035925,-0.954415,10.236313,0.127698,-0.201009,0.196633,0.457764,0.885010,5.981445
6.847361,0.208965,-0.549657,10.023157,0.372589,0.203749,-0.016524,-3.662109,-0.762939,0.579834
6.857458,0.552651,-0.769999,10.235116,0.716274,-0.016593,0.195435,-2.868652,0.122070,-2.258301
6.867557,0.310155,-0.698148,10.327923,0.473778,0.055258,0.288242,-4.119873,-0.854492,-5.310059
6.877753,0.067061,-0.876577,10.168654,0.230684,-0.123171,0.128973,-2.899170,0.183105,-7.568359
6.887844,0.431702,-1.146017,10.072255,0.595326,-0.392611,0.032574,0.274658,0.732422,-10.070801
6.897934,-0.808918,-1.026865,9.642947,-0.645295,-0.273459,-0.396733,-0.335693,0.305176,-5.798340
6.908024,-0.337099,-0.812510,10.033336,-0.173476,-0.059105,-0.006345,1.800537,0.122070,-8.331299
6.918113,-0.280816,-0.881966,10.067465,-0.117193,-0.128560,0.027784,1.159668,-0.457764,-9.979248
6.928204,-0.573607,-0.892744,9.958491,-0.409984,-0.139338,-0.081190,0.396729,-0.305176,-9.216309
6.938293,-0.089813,-1.013692,9.972263,0.073810,-0.260286,-0.067418,0.976562,0.366211,-7.690430
6.948383,-0.384999,-0.923879,10.023157,-0.221376,-0.170473,-0.016524,0.793457,1.129150,-7.293701
6.958473,-0.470621,-0.814307,10.163265,-0.306998,-0.060901,0.123585,1.220703,0.946045,-6.225586
6.968563,-0.416733,-0.799338,10.061477,-0.253110,-0.045932,0.021796,0.854492,0.274658,-0.762939
6.978720,-0.193398,-0.751437,9.745334,-0.029775,0.001968,-0.294346,2.319336,0.488281,1.525879
6.988816,0.154479,-0.567021,9.972861,0.318102,0.186385,-0.066820,3.265381,0.579834,-1.098633
6.998912,-0.408950,-0.757425,10.067465,-0.245326,-0.004019,0.027784,2.471924,0.579834,-0.915527
7.009007,-0.646655,-0.653242,10.120155,-0.483032,0.100164,0.080474,-4.425049,-0.915527,2.380371
7.019104,-0.127535,-0.628693,9.981843,0.036088,0.124713,-0.057838,-1.922607,-0.793457,0.366211
7.029199,0.219743,-0.678988,9.830956,0.383366,0.074418,-0.208724,-0.335693,-0.244141,-1.007080
7.039295,-0.539478,-0.579595,9.906998,-0.375855,0.173811,-0.132683,-0.488281,0.366211,-2.166748
7.049390,-0.171244,-0.800535,10.020762,-0.007621,-0.047129,-0.018919,-0.274658,0.549316,-4.577637
7.059486,-0.176034,-1.069376,10.032138,-0.012411,-0.315970,-0.007543,-2.746582,1.190186,-6.011963
7.069582,-0.599354,-0.847837,10.066267,-0.435730,-0.094431,0.026586,-2.075195,0.823975,-7.873535
7.079745,-0.484393,-0.898731,9.977053,-0.320769,-0.145325,-0.062628,-1.556396,0.579834,-7.965088
7.089835,-0.637075,-0.863405,9.855505,-0.473452,-0.109999,-0.184176,-0.579834,0.610352,-8.880615
7.099925,-0.079634,-0.923879,10.064471,0.083989,-0.170473,0.024790,-0.274658,0.396729,-9.613037
7.110014,-0.365839,-0.865201,10.351274,-0.202216,-0.111795,0.311594,-0.335693,0.488281,-10.894775
7.120105,-0.388592,-0.813109,10.218351,-0.224969,-0.059703,0.178670,-0.854492,0.915527,-11.657715
7.130195,-0.422122,-1.004112,10.243499,-0.258499,-0.250706,0.203818,0.671387,1.068115,-11.657715
7.140285,-0.334105,-0.951422,10.121353,-0.170482,-0.198016,0.081672,1.251221,1.007080,-12.634277
7.150374,-0.132325,-0.860411,9.914183,0.031298,-0.107005,-0.125498,-0.366211,1.800537,-10.101318
7.160463,-0.410746,-0.781974,9.944121,-0.247123,-0.028568,-0.095560,-1.647949,1.403809,-9.704590
7.170552,-0.302970,-0.904719,9.869875,-0.139347,-0.151313,-0.169805,-0.518799,0.885010,-9.429932
7.180707,0.598156,-1.113684,10.061477,0.761779,-0.360278,0.021796,2.136230,0.396729,-7.141113
7.190804,-0.028740,-1.093925,10.174043,0.134883,-0.340519,0.134362,0.732422,-0.396729,-1.861572
7.200900,0.259860,-1.274150,10.020163,0.423483,-0.520745,-0.019518,0.549316,-0.305176,-2.471924
7.211025,0.065863,-1.447191,9.998608,0.229486,-0.693785,-0.041073,0.122070,-0.213623,-0.549316
7.221121,0.050295,-1.469344,9.968670,0.213919,-0.715939,-0.071011,-1.373291,0.732422,5.096436
7.231217,0.244292,-1.225651,10.148895,0.407915,-0.472245,0.109214,-2.044678,0.427246,7.629395
7.241312,-0.031734,-0.849633,10.047706,0.131889,-0.096227,0.008025,-0.640869,-0.518799,6.896973
7.251407,-0.067061,-0.684377,10.011780,0.096563,0.069029,-0.027900,0.488281,-0.885010,6.195068
7.261503,-0.268242,-0.508942,9.864487,-0.104619,0.244464,-0.175194,0.091553,-1.068115,2.563477
7.271599,0.007185,-0.668210,10.122550,0.170808,0.085195,0.082869,-0.183105,-1.342773,-1.098633
7.281765,-0.537083,-0.740660,9.999207,-0.373460,0.012746,-0.040474,0.305176,-1.037598,-4.333496
7.291854,-0.176633,-0.614323,10.051298,-0.013009,0.139083,0.011617,1.251221,-1.190186,-4.943848
7.301944,-0.543669,-0.769400,10.008188,-0.380046,-0.015994,-0.031493,0.915527,-1.098633,-5.157471
7.312034,-0.203577,-0.814307,10.133926,-0.039953,-0.060901,0.094246,1.708984,-0.701904,-5.798340
7.322124,-0.278421,-0.526306,9.911190,-0.114798,0.227100,-0.128491,2.136230,-0.183105,-5.340576
7.332214,-0.254471,-0.634680,10.074650,-0.090848,0.118726,0.034969,-0.366211,-0.549316,-5.310059
7.342303,-0.009580,-0.589175,10.134525,0.154043,0.164231,0.094844,-0.213623,-0.152588,-5.889893
7.352392,-0.045505,-0.655637,9.896221,0.118118,0.097769,-0.143460,0.091553,0.488281,-7.598877
7.362481,-0.202978,-0.962199,10.059082,-0.039355,-0.208793,0.019401,-1.220703,0.671387,-6.347656
7.372570,-0.043110,-1.002914,9.996812,0.120513,-0.249509,-0.042869,-0.549316,0.518799,-6.530762
7.382723,-0.012574,-1.017883,9.989626,0.151049,-0.264478,-0.050054,0.305176,0.915527,-6.164551
7.392818,-0.167053,-1.054407,10.199191,-0.003429,-0.301002,0.159510,-0.762939,0.335693,-4.974365
7.402915,-0.377216,-0.777184,10.091415,-0.213592,-0.023778,0.051734,-0.762939,0.976562,-6.164551
7.414100,0.223336,-0.565225,10.196197,0.386959,0.188181,0.156516,-2.105713,0.549316,-4.577637
7.424200,-0.177231,-0.793350,10.308164,-0.013608,-0.039944,0.268483,0.976562,0.396729,-8.728027
7.434294,0.094005,-0.382604,10.139315,0.257628,0.370801,0.099634,1.739502,0.915527,-7.232666
7.444388,-0.143701,-0.578996,10.146500,0.019922,0.174410,0.106819,0.762939,0.640869,-11.444092
7.454485,0.515528,-1.265768,10.287208,0.679151,-0.512362,0.247527,2.349854,0.000000,-15.991211
7.464581,-0.250280,-1.154399,10.110575,-0.086656,-0.400994,0.070894,1.647949,-0.183105,-13.854980
7.474678,-0.490979,-1.032253,9.790840,-0.327356,-0.278848,-0.248841,0.335693,0.518799,-9.582520
7.484858,-0.095801,-0.972378,9.862092,0.067822,-0.218972,-0.177589,0.122070,0.549316,-9.826660
7.494949,-0.339494,-1.353186,10.189611,-0.175871,-0.599780,0.149930,-0.549316,-0.061035,-9.643555
7.505039,-0.570015,-1.001118,9.962682,-0.406391,-0.247712,-0.076998,1.556396,0.183105,-9.094238
7.515142,-0.682581,-1.156794,10.002799,-0.518957,-0.403389,-0.036882,0.213623,-0.396729,-3.356934
7.525232,-0.599354,-1.168770,9.923763,-0.435730,-0.415364,-0.115917,0.701904,0.122070,-1.159668
7.535321,-0.437091,-0.942440,9.827364,-0.273468,-0.189034,-0.212317,0.885010,0.183105,-1.647949
7.545410,-0.464634,-0.965792,9.998608,-0.301011,-0.212386,-0.041073,-0.793457,0.427246,-0.061035
7.555500,-0.244292,-0.781375,9.950109,-0.080669,-0.027969,-0.089572,0.000000,0.213623,-0.366211
7.565589,-0.266446,-0.732277,10.128538,-0.102823,0.021129,0.088857,0.030518,0.457764,-1.770020
7.575679,-0.365839,-0.703537,10.043514,-0.202216,0.049869,0.003834,1.098633,1.098633,-1.373291
7.585834,-0.340093,-0.860411,9.988429,-0.176470,-0.107005,-0.051252,0.305176,1.403809,-1.983643
7.595930,-0.276625,-0.864602,9.942924,-0.113002,-0.111196,-0.096757,0.244141,1.129150,-3.570557
7.606026,-0.404758,-0.648452,9.872271,-0.241135,0.104954,-0.167410,-0.549316,1.342773,-3.479004
7.616122,-0.334704,-0.859213,10.171648,-0.171081,-0.105807,0.131967,-1.647949,0.366211,-3.387451
7.626216,0.039518,-1.105302,10.149494,0.203141,-0.351896,0.109813,-1.708984,-0.183105,-4.211426
7.636313,0.009580,-0.915496,10.266251,0.173203,-0.162090,0.226570,-2.685547,-0.305176,-2.258301
7.646409,-0.095202,-0.889750,10.025552,0.068421,-0.136344,-0.014129,-0.915527,-0.823975,-3.051758
7.656506,-0.098795,-0.825683,9.925560,0.064829,-0.072277,-0.114121,0.823975,-1.434326,-5.523682
7.666602,0.035327,-1.146017,10.151889,0.198950,-0.392611,0.112208,-0.122070,-1.739502,-4.699707
7.676698,0.020956,-1.093925,10.098600,0.184580,-0.340519,0.058919,0.640869,-0.732422,-2.685547
7.686861,0.020358,-0.906515,10.089619,0.183981,-0.153109,0.049938,-1.251221,-0.549316,-1.831055
7.696952,0.024549,-0.782573,10.032138,0.188172,-0.029167,-0.007543,-1.159668,-0.335693,-2.807617
7.707042,-0.281415,-0.834664,9.989626,-0.117792,-0.081259,-0.050054,0.610352,0.701904,-0.762939
7.717134,-0.181423,-1.018482,10.218351,-0.017799,-0.265076,0.178670,0.793457,0.457764,-0.335693
7.727224,-0.258063,-0.764610,10.043514,-0.094440,-0.011204,0.003834,1.342773,0.122070,3.967285
7.737314,-0.494572,-0.643063,9.902208,-0.330948,0.110343,-0.137473,0.640869,0.091553,5.187988
7.747404,-0.271835,-0.635279,10.002799,-0.108211,0.118127,-0.036882,0.366211,0.366211,4.394531
7.757493,-0.046703,-0.502355,10.071656,0.116920,0.251050,0.031975,-0.457764,0.335693,3.479004
7.767584,-0.295186,-0.527503,10.053693,-0.131563,0.225903,0.014012,-0.427246,0.335693,5.004883
7.777673,0.038320,-0.897534,9.878857,0.201944,-0.144128,-0.160824,-0.671387,-0.213623,3.143311
7.787827,0.098795,-1.101709,10.109976,0.262418,-0.348303,0.070295,-0.610352,-0.152588,2.410889
7.797923,-0.142504,-0.988544,10.103390,0.021120,-0.235139,0.063709,-1.403809,0.274658,1.220703
7.808020,-0.219743,-0.786165,10.006392,-0.056120,-0.032759,-0.033289,-1.190186,0.274658,0.579834
7.818114,-0.114362,-0.811912,9.974658,0.049261,-0.058506,-0.065023,-1.098633,-0.183105,2.380371
7.828210,-0.370031,-0.647853,9.953102,-0.206407,0.105553,-0.086578,-0.213623,-0.061035,0.640869
7.838307,-0.035925,-0.913700,9.908196,0.127698,-0.160294,-0.131485,0.488281,0.091553,0.091553
7.848403,-0.093406,-0.914897,9.993219,0.070217,-0.161492,-0.046462,0.457764,-0.518799,2.624512
7.858496,-0.273631,-0.763412,10.118958,-0.110008,-0.010007,0.079277,0.152588,-1.281738,3.997803
7.868593,0.129331,-0.872386,10.122550,0.292954,-0.118980,0.082869,1.556396,-1.800537,3.967285
7.878689,-0.289199,-0.856818,10.051298,-0.125575,-0.103412,0.011617,-0.152588,-0.732422,4.821777
7.888857,-0.170645,-0.761017,10.225536,-0.007022,-0.007612,0.185855,-0.152588,0.274658,4.943848
7.898948,-0.299976,-0.465831,9.907597,-0.136353,0.287574,-0.132084,0.823975,0.762939,5.004883
7.909038,-0.117955,-0.720901,10.108779,0.045669,0.032505,0.069098,-0.579834,1.190186,4.913330
7.919129,-0.031135,-0.741259,9.883048,0.132488,0.012147,-0.156633,-0.396729,1.159668,3.417969
7.929219,-0.247286,-0.821492,9.954899,-0.083663,-0.068086,-0.084782,-1.739502,1.098633,3.265381
7.939308,-0.105980,-0.689766,10.071656,0.057644,0.063640,0.031975,-1.312256,1.342773,5.035400
7.949398,0.077239,-0.869991,10.061477,0.240863,-0.116585,0.021796,-3.356934,1.129150,3.051758
7.959488,-0.091609,-0.921484,9.883647,0.072014,-0.168078,-0.156034,-0.732422,2.044678,1.007080
7.969579,-0.233514,-0.929268,10.134525,-0.069891,-0.175862,0.094844,2.136230,2.136230,2.044678
7.979668,-0.077239,-1.036445,10.058483,0.086384,-0.283039,0.018802,2.471924,1.037598,2.868652
7.989816,-0.297581,-0.859213,9.929751,-0.133958,-0.105807,-0.109930,2.777100,0.915527,2.655029
7.999914,-0.073647,-0.653242,9.945319,0.089976,0.100164,-0.094362,2.258301,0.915527,2.441406
8.010010,0.095202,-0.936453,9.905801,0.258825,-0.183047,-0.133880,0.946045,0.701904,2.227783
8.020107,-0.109572,-0.851429,10.021959,0.054051,-0.098024,-0.017722,-0.335693,0.274658,1.068115
8.030202,-0.359253,-0.795745,10.038126,-0.195630,-0.042339,-0.001555,-2.258301,-1.190186,-0.854492
8.040299,0.000000,-0.807122,10.065070,0.163623,-0.053716,0.025389,-1.281738,-1.373291,-1.068115
8.050395,-0.157473,-0.884960,9.988429,0.006151,-0.131554,-0.051252,-1.861572,-1.800537,-2.441406
8.060491,-0.401765,-0.920286,10.032737,-0.238141,-0.166880,-0.006944,-1.037598,-1.922607,-2.593994
8.070586,-0.032333,-1.057401,10.215956,0.131290,-0.303995,0.176275,0.335693,-1.403809,-0.762939
8.080683,0.313149,-0.856818,10.090816,0.476772,-0.103412,0.051135,-0.640869,0.244141,-1.129150
8.090845,-0.432900,-0.754431,10.099797,-0.269277,-0.001025,0.060116,-0.427246,1.800537,-0.579834
8.100935,-0.171244,-1.096919,9.963281,-0.007621,-0.343513,-0.076400,-0.274658,2.166748,-1.342773
8.111025,-0.196392,-0.867596,9.948312,-0.032768,-0.114190,-0.091368,1.678467,2.258301,-0.793457
8.121115,-0.371228,-0.975372,10.121353,-0.207605,-0.221966,0.081672,-0.091553,0.366211,0.000000
8.131205,-0.561033,-0.588576,9.966874,-0.397410,0.164830,-0.072807,-1.129150,-0.152588,0.823975
8.141295,-0.333506,-0.791554,10.044113,-0.169883,-0.038148,0.004432,-1.403809,-0.793457,1.983643
8.151385,-0.552651,-0.779579,10.210567,-0.389028,-0.026173,0.170886,-1.129150,-0.640869,0.701904
8.161475,0.037123,-0.682581,10.054891,0.200746,0.070825,0.015210,-1.129150,0.244141,1.068115
8.171565,-0.690963,-0.689167,9.873468,-0.527340,0.064239,-0.166213,-1.007080,2.075195,-0.854492
8.181654,-0.129930,-0.681982,10.295590,0.033693,0.071424,0.255909,-0.091553,2.258301,-0.335693
8.191799,-0.482596,-0.903521,10.035731,-0.318973,-0.150115,-0.003950,-0.610352,0.823975,1.586914
8.201896,-0.517923,-0.925675,9.964479,-0.354300,-0.172269,-0.075202,0.091553,0.427246,1.098633
8.211993,-0.372426,-0.928070,10.063273,-0.208802,-0.174664,0.023592,-0.640869,-0.701904,5.157471
8.222089,-0.647853,-0.697549,10.093810,-0.484230,0.055856,0.054129,0.579834,-0.549316,6.256104
8.232183,-0.148491,-0.829874,10.003997,0.015132,-0.076468,-0.035684,2.319336,-1.251221,4.852295
8.242279,-0.309556,-0.731080,9.960287,-0.145933,0.022326,-0.079393,4.241943,-0.244141,0.823975
8.252374,-0.454455,-0.729283,9.855505,-0.290832,0.024122,-0.184176,3.784180,-0.152588,-0.091553
8.262470,-0.397573,-0.836461,9.841135,-0.233950,-0.083055,-0.198546,1.647949,0.061035,0.885010
8.272567,-0.534089,-0.735870,9.890233,-0.370466,0.017536,-0.149448,0.579834,-0.061035,1.678467
8.282663,-0.091011,-0.840652,10.136920,0.072613,-0.087246,0.097239,-4.028320,-1.068115,-0.671387
8.292824,-0.711321,-0.718506,10.170450,-0.547698,0.034900,0.130770,-3.540039,-1.312256,-1.953125
8.302914,-0.130529,-0.854423,10.059681,0.033095,-0.101017,0.020000,-2.929688,-1.770020,-0.671387
8.313004,0.025148,-0.652643,10.050699,0.188771,0.100763,0.011019,-1.312256,-1.159668,-0.030518
8.323093,-0.217348,-0.647853,9.962682,-0.053725,0.105553,-0.076998,-1.312256,-0.457764,-2.624512
8.333183,-0.094603,-0.840053,10.045311,0.069020,-0.086647,0.005630,-0.396729,0.305176,-2.227783
8.343272,0.080233,-0.835263,10.112371,0.243856,-0.081857,0.072690,-1.281738,0.457764,-0.122070
8.353362,-0.171244,-0.784968,10.051897,-0.007621,-0.031562,0.012216,-2.746582,0.701904,-2.899170
8.363451,0.317340,-0.924478,10.081835,0.480963,-0.171072,0.042154,-0.640869,0.366211,-4.669189
8.373541,-0.215552,-0.871188,10.132130,-0.051929,-0.117783,0.092449,1.159668,0.854492,-4.425049
8.383631,-0.151485,-0.878373,10.041119,0.012138,-0.124968,0.001439,2.532959,-0.274658,-1.403809
8.393776,0.082029,-0.995729,10.109976,0.245653,-0.242324,0.070295,2.532959,-0.396729,-0.244141
8.403875,-0.138312,-0.978964,9.978250,0.025311,-0.225558,-0.061431,1.586914,-0.610352,1.556396
8.413971,-0.250878,-0.874781,10.093810,-0.087255,-0.121375,0.054129,-0.671387,0.061035,2.197266
8.424067,0.223934,-0.929866,10.056687,0.387558,-0.176461,0.017006,-1.892090,0.457764,1.617432
8.434164,0.159269,-1.037642,10.072255,0.322892,-0.284236,0.032574,-2.838135,0.762939,0.030518
8.444260,0.136516,-1.050216,10.202184,0.300139,-0.296810,0.162504,-0.274658,0.915527,-0.732422
8.454356,-0.211959,-0.988544,10.144704,-0.048336,-0.235139,0.105023,-0.152588,0.091553,0.091553
8.464453,-0.038320,-1.022075,10.114766,0.125303,-0.268669,0.075085,0.885010,-0.640869,1.525879
8.474550,0.009580,-1.080753,10.103390,0.173203,-0.327347,0.063709,0.885010,-1.434326,1.434326
8.484646,-0.080233,-1.059796,9.966874,0.083390,-0.306390,-0.072807,1.190186,-1.190186,0.305176
8.494809,-0.110770,-0.931064,9.976454,0.052854,-0.177658,-0.063227,1.342773,-1.190186,1.251221
8.504898,-0.231718,-1.056204,10.146500,-0.068095,-0.302798,0.106819,1.373291,-1.129150,1.647949
8.514988,-0.461041,-0.920286,10.045909,-0.297418,-0.166880,0.006229,0.671387,-1.434326,2.685547
8.525078,-0.053289,-0.975372,9.904005,0.110334,-0.221966,-0.135676,1.251221,-0.732422,1.708984
8.535167,-0.415536,-0.984353,10.115964,-0.251913,-0.230947,0.076283,0.640869,0.030518,0.610352
8.545257,-0.061672,-0.969384,9.971664,0.101951,-0.215978,-0.068017,0.610352,0.457764,1.922607
8.555348,-0.085622,-0.907712,9.899813,0.078001,-0.154307,-0.139868,1.525879,0.732422,3.417969
8.565437,-0.305365,-0.852627,10.162667,-0.141742,-0.099221,0.122986,1.953125,-0.152588,2.319336
8.575528,0.254471,-0.950224,10.273436,0.418094,-0.196818,0.233755,0.000000,-0.579834,3.509521
8.585618,0.019759,-0.775388,10.059681,0.183382,-0.021982,0.020000,-1.434326,0.091553,0.762939
8.595769,-0.131127,-0.925675,10.089020,0.032496,-0.172269,0.049339,-2.593994,0.152588,0.030518
8.605865,-0.180225,-1.237028,10.251881,-0.016602,-0.483622,0.212200,-4.058838,0.427246,0.885010
8.615961,0.036524,-1.085543,9.972263,0.200147,-0.332137,-0.067418,-2.197266,0.579834,3.173828
8.626057,-0.155676,-1.174158,10.020762,0.007947,-0.420753,-0.018919,-1.770020,0.396729,2.563477
8.636154,-0.288600,-1.244213,10.159074,-0.124977,-0.490807,0.119393,1.159668,0.091553,4.150391
8.646250,-0.180824,-1.240620,9.925560,-0.017201,-0.487214,-0.114121,3.906250,0.244141,6.256104
8.656347,-0.162263,-1.029260,10.183024,0.001361,-0.275854,0.143343,1.434326,-0.976562,11.077881
8.666444,-0.118553,-1.013093,10.068662,0.045070,-0.259687,0.028981,1.556396,-1.312256,11.230469
8.676540,-0.299976,-0.927471,9.930948,-0.136353,-0.174066,-0.108732,2.655029,-1.312256,11.535645
8.686636,0.179028,-0.897534,10.108180,0.342651,-0.144128,0.068499,3.082275,-1.464844,11.077881
8.696798,0.532293,-0.908910,10.049502,0.695916,-0.155504,0.009821,2.502441,-1.373291,10.406494
8.706890,0.322130,-0.774789,9.914183,0.485753,-0.021383,-0.125498,1.098633,-1.129150,8.789062
8.716980,0.340093,-0.604144,10.219548,0.503716,0.149262,0.179867,1.770020,-0.915527,8.087158
8.727069,0.453257,-0.865201,10.075847,0.616881,-0.111795,0.036166,-1.129150,-1.251221,5.889893
8.737159,0.022154,-0.410746,10.024354,0.185777,0.342660,-0.015327,-1.800537,-1.617432,7.690430
8.747249,-0.219144,-0.743055,10.041718,-0.055521,0.010351,0.002037,1.190186,-2.075195,9.613037
8.757338,0.573607,-0.686173,9.987830,0.737230,0.067233,-0.051851,-0.122070,-2.685547,11.108398
8.767427,0.226928,-0.783770,9.996213,0.390551,-0.030364,-0.043468,-0.366211,-2.655029,9.582520
8.777518,0.372426,-0.749042,10.005793,0.536049,0.004363,-0.033888,-0.213623,-1.922607,6.317139
8.787607,0.376617,-0.735870,10.008188,0.540240,0.017536,-0.031493,-1.068115,-1.525879,6.500244
8.797762,0.258063,-0.902922,10.211166,0.421687,-0.149517,0.171485,-3.295898,-1.129150,8.178711
8.807858,0.256866,-0.742456,10.162667,0.420489,0.010950,0.122986,-1.739502,-0.427246,6.378174
8.817955,0.422721,-0.846041,10.109976,0.586344,-0.092635,0.070295,-1.190186,-0.122070,5.798340
8.828051,0.255668,-1.034050,10.177635,0.419292,-0.280644,0.137955,0.701904,0.213623,6.896973
8.838148,0.371228,-1.063987,10.125544,0.534851,-0.310582,0.085863,0.244141,-0.122070,7.965088
8.848245,0.045505,-0.744851,9.927955,0.209129,0.008555,-0.111726,0.335693,0.091553,6.378174
8.858341,-0.049098,-0.716111,10.093211,0.114525,0.037295,0.053530,0.762939,0.030518,6.866455
8.868437,-0.064067,-0.704136,9.883048,0.099556,0.049270,-0.156633,3.936768,-0.793457,7.629395
8.878533,0.060474,-0.789758,9.912387,0.224097,-0.036352,-0.127294,3.387451,-1.434326,9.124756
8.888629,0.461041,-0.878972,10.133926,0.624665,-0.125566,0.094246,1.068115,-1.861572,5.706787
8.898794,0.055684,-0.702339,10.036928,0.219307,0.051066,-0.002753,2.716064,-1.770020,4.638672
8.908884,0.030536,-0.749042,10.032737,0.194160,0.004363,-0.006944,2.502441,-1.251221,4.882812
8.918974,0.168250,-0.656834,9.968071,0.331873,0.096572,-0.071610,4.669189,-0.396729,4.974365
8.929064,0.207169,-0.678988,10.017768,0.370792,0.074418,-0.021913,2.288818,-1.007080,5.249023
8.939154,0.253273,-0.750240,9.999207,0.416897,0.003166,-0.040474,1.586914,-0.701904,3.143311
8.949243,0.264051,-0.772993,9.996213,0.427674,-0.019587,-0.043468,1.403809,-0.518799,2.349854
8.959332,0.227527,-0.814307,10.011182,0.391150,-0.060901,-0.028499,0.762939,-0.305176,1.403809
8.969421,0.277224,-0.938848,10.109976,0.440847,-0.185442,0.070295,-0.610352,-0.854492,0.885010
8.979510,0.383802,-0.705333,10.077643,0.547425,0.048073,0.037963,0.244141,-1.556396,0.305176
8.989599,0.364642,-0.837658,10.077045,0.528265,-0.084252,0.037364,-0.946045,-1.831055,0.244141
8.999753,0.081431,-0.704136,9.880054,0.245054,0.049270,-0.159627,-0.427246,-1.892090,-3.112793
9.009850,-0.136516,-0.780776,10.062076,0.027107,-0.027371,0.022395,1.373291,-2.807617,-5.126953
9.019946,-0.141905,-0.647254,10.018367,0.021718,0.106152,-0.021314,1.007080,-3.204346,-1.678467
9.030041,0.814307,-0.795745,10.122550,0.977930,-0.042339,0.082869,1.190186,-2.258301,1.739502
9.040136,0.419128,-0.598156,10.020762,0.582752,0.155250,-0.018919,0.610352,-1.922607,-1.586914
9.050232,0.253872,-0.626298,10.061477,0.417495,0.127108,0.021796,-0.488281,-1.953125,-5.065918
9.060325,0.209564,-0.822689,10.072853,0.373187,-0.069283,0.033173,-0.549316,-2.075195,-4.486084
9.070421,0.256267,-0.690963,10.012379,0.419890,0.062443,-0.027302,-1.007080,-2.105713,-4.028320
9.080516,0.490380,-0.827479,10.028546,0.654003,-0.074073,-0.011135,-0.701904,-1.617432,-6.378174
9.090611,0.081431,-0.871188,10.166858,0.245054,-0.117783,0.127177,-1.098633,-1.525879,-6.774902
9.100732,-0.104183,-0.774190,9.954300,0.059440,-0.020784,-0.085381,-0.244141,-1.861572,-3.631592
9.110827,0.264650,-0.732277,10.005194,0.428273,0.021129,-0.034487,-0.610352,-1.861572,-0.854492
9.120922,0.290995,-0.875978,9.959689,0.454618,-0.122573,-0.079992,-0.183105,-1.586914,-2.746582
9.131018,0.089813,-0.719703,10.049502,0.253436,0.033702,0.009821,0.610352,-1.556396,-3.967285
9.141113,-0.041314,-0.643063,9.987830,0.122309,0.110343,-0.051851,0.701904,-0.671387,-0.091553
9.151209,0.659229,-0.884960,10.027348,0.822852,-0.131554,-0.012333,-0.457764,-0.244141,-0.274658
9.161304,0.264650,-0.835862,9.997410,0.428273,-0.082456,-0.042271,1.892090,-0.122070,-1.495361
9.171399,0.186812,-0.631088,9.953102,0.350435,0.122318,-0.086578,1.434326,-0.305176,-0.457764
9.181494,0.380808,-0.740061,10.041718,0.544431,0.013345,0.002037,0.823975,-0.274658,0.213623
9.191590,0.246687,-0.750839,10.002799,0.410310,0.002567,-0.036882,0.793457,0.122070,-1.647949
9.201709,0.288600,-0.869991,10.036329,0.452223,-0.116585,-0.003352,0.366211,0.183105,-2.563477
9.211806,0.246088,-0.833467,9.992021,0.409712,-0.080061,-0.047659,-0.335693,0.213623,-3.692627
9.221900,0.056882,-0.817300,10.011182,0.220505,-0.063895,-0.028499,-0.488281,0.274658,-3.417969
9.231995,0.205373,-0.807122,10.033336,0.368996,-0.053716,-0.006345,-0.549316,0.244141,-3.448486
9.242090,0.080832,-0.818498,10.042916,0.244455,-0.065092,0.003235,0.335693,0.427246,-3.845215
9.252185,0.129331,-0.814307,9.987231,0.292954,-0.060901,-0.052449,0.061035,0.488281,-3.997803
9.262281,0.219743,-0.876577,10.083032,0.383366,-0.123171,0.043351,-0.427246,0.366211,-4.638672
9.272376,-0.076042,-0.881966,10.083032,0.087581,-0.128560,0.043351,-0.762939,0.122070,-5.645752
9.282471,-0.168250,-0.781974,10.017169,-0.004627,-0.028568,-0.022512,-0.854492,0.091553,-6.225586
9.292566,0.029938,-0.852627,9.996812,0.193561,-0.099221,-0.042869,-0.793457,0.152588,-6.164551
9.302684,0.040715,-0.913700,10.051298,0.204339,-0.160294,0.011617,-0.854492,0.122070,-6.225586
9.312780,-0.123942,-0.955613,9.993219,0.039681,-0.202207,-0.046462,-1.129150,0.213623,-6.561279
9.322876,-0.019759,-1.043031,10.068063,0.143864,-0.289625,0.028382,-1.129150,0.152588,-6.256104
9.332971,-0.127535,-0.899330,10.102192,0.036088,-0.145924,0.062512,-0.183105,0.091553,-4.547119
9.343066,-0.196990,-0.784968,10.036329,-0.033367,-0.031562,-0.003352,-0.335693,0.030518,-3.906250
9.353161,-0.123942,-0.743654,10.072255,0.039681,0.009752,0.032574,-0.885010,-0.122070,-2.563477
9.363256,-0.053888,-0.735870,9.996812,0.109735,0.017536,-0.042869,-0.946045,0.122070,-3.112793
9.373351,0.141905,-0.808319,10.075248,0.305528,-0.054913,0.035568,-1.068115,-0.122070,-3.448486
9.383445,0.064666,-0.826880,10.068662,0.228289,-0.073475,0.028981,-1.647949,-0.488281,-3.936768
9.393541,0.030536,-0.845442,10.029743,0.194160,-0.092036,-0.009938,-1.434326,-0.518799,-3.997803
9.403660,0.073048,-0.873583,10.044113,0.236671,-0.120178,0.004432,-0.885010,-0.701904,-3.143311
9.413755,0.065863,-0.872985,10.001003,0.229486,-0.119579,-0.038678,-1.068115,-0.823975,-2.563477
9.423850,0.065264,-0.851429,9.966275,0.228888,-0.098024,-0.073406,-1.708984,-1.037598,-1.953125
9.433946,0.141905,-0.977168,10.038126,0.305528,-0.223762,-0.001555,-1.464844,-0.854492,-0.976562
9.444043,0.135319,-0.919089,10.118359,0.298942,-0.165683,0.078678,-0.671387,-0.762939,1.251221
9.454139,0.096400,-0.760419,10.047107,0.260023,-0.007013,0.007426,-0.274658,-0.610352,1.983643
9.464234,-0.009580,-0.766406,10.027348,0.154043,-0.013000,-0.012333,-0.244141,-0.366211,2.441406
9.474329,0.307161,-0.766406,10.076446,0.470784,-0.013000,0.036765,0.030518,-0.366211,3.021240
9.484425,0.122146,-0.745450,10.070458,0.285769,0.007956,0.030777,0.366211,-0.427246,2.563477
9.494520,0.003593,-0.814307,10.047107,0.167216,-0.060901,0.007426,0.762939,-0.488281,2.532959
9.504686,0.088616,-0.823887,10.030342,0.252239,-0.070481,-0.009339,0.793457,-0.427246,3.295898
9.514776,0.095801,-0.805325,10.024354,0.259424,-0.051920,-0.015327,0.549316,-0.335693,3.967285
9.524864,-0.019759,-0.792153,10.011182,0.143864,-0.038747,-0.028499,0.366211,-0.305176,4.150391
9.534953,0.111967,-0.781974,10.010583,0.275590,-0.028568,-0.029098,-0.030518,-0.244141,4.547119
9.545042,0.261656,-0.796344,10.042317,0.425279,-0.042938,0.002636,-0.213623,-0.091553,3.448486
9.555131,0.111368,-0.799937,10.039323,0.274992,-0.046531,-0.000358,-0.122070,-0.061035,2.502441
9.565220,-0.021555,-0.813109,10.033336,0.142068,-0.059703,-0.006345,-0.061035,-0.061035,1.342773
9.575309,0.002994,-0.819097,10.027947,0.166617,-0.065691,-0.011734,-0.030518,-0.061035,1.190186
9.585398,0.014969,-0.816103,10.030342,0.178592,-0.062697,-0.009339,-0.152588,-0.030518,0.885010
9.595486,0.032932,-0.808319,10.029743,0.196555,-0.054913,-0.009938,-0.213623,0.030518,0.579834
9.605630,0.032333,-0.816103,10.030941,0.195956,-0.062697,-0.008740,-0.244141,0.061035,0.213623
9.615726,-0.035327,-0.829874,10.044712,0.128297,-0.076468,0.005031,-0.244141,0.091553,-0.274658
9.625822,-0.029938,-0.838257,10.047107,0.133685,-0.084851,0.007426,-0.244141,0.122070,-0.427246
9.635917,-0.022154,-0.848436,10.038724,0.141469,-0.095030,-0.000957,-0.274658,0.091553,-0.640869
9.646013,-0.029938,-0.848436,10.040521,0.133685,-0.095030,0.000840,-0.213623,0.091553,-0.762939
9.656109,-0.032932,-0.848436,10.036928,0.130692,-0.095030,-0.002753,-0.152588,0.122070,-0.854492
9.666205,-0.061672,-0.850831,10.040521,0.101951,-0.097425,0.000840,-0.061035,0.091553,-0.854492
9.676301,-0.051493,-0.864602,10.045909,0.112130,-0.111196,0.006229,-0.030518,0.091553,-0.732422
9.686401,-0.033530,-0.864003,10.044712,0.130093,-0.110598,0.005031,-0.030518,0.061035,-0.640869
9.696498,-0.034129,-0.854423,10.043514,0.129494,-0.101017,0.003834,0.000000,0.061035,-0.549316
9.706665,-0.059875,-0.855621,10.043514,0.103748,-0.102215,0.003834,0.030518,0.061035,-0.366211
9.716755,-0.084424,-0.847837,10.044712,0.079199,-0.094431,0.005031,0.061035,0.030518,-0.274658
9.726845,-0.114961,-0.832269,10.039323,0.048662,-0.078864,-0.000358,0.061035,0.000000,-0.030518
9.736935,-0.122146,-0.841251,10.035132,0.041477,-0.087845,-0.004549,0.091553,-0.030518,0.030518
9.747024,-0.116757,-0.845442,10.034533,0.046866,-0.092036,-0.005148,0.061035,-0.091553,0.244141
9.757113,-0.198787,-0.837658,10.039323,-0.035163,-0.084252,-0.000358,0.061035,-0.152588,0.427246
9.767201,-0.034728,-0.838257,10.055490,0.128895,-0.084851,0.015809,-0.152588,-0.061035,0.091553
9.777291,-0.103585,-0.796344,10.042317,0.060039,-0.042938,0.002636,-0.152588,0.091553,-2.838135
9.787382,-0.141905,-0.695753,10.042317,0.021718,0.057653,0.002636,-0.274658,0.061035,-5.157471
9.797471,-0.112566,-0.715512,10.039922,0.051057,0.037894,0.000241,-0.579834,0.030518,-9.216309
9.807626,-0.071252,-0.814307,10.041119,0.092371,-0.060901,0.001439,-0.549316,0.213623,-10.345459
9.817723,-0.046703,-0.839454,10.035731,0.116920,-0.086049,-0.003950,-0.518799,0.335693,-9.704590
9.827819,0.040715,-0.931663,10.033336,0.204339,-0.178257,-0.006345,-0.549316,0.244141,-8.453369
9.837915,0.020358,-0.950823,10.034533,0.183981,-0.197417,-0.005148,-0.427246,0.183105,-6.805420
9.848011,-0.021555,-0.903521,10.032737,0.142068,-0.150115,-0.006944,-0.274658,0.122070,-4.058838
9.858107,-0.029339,-0.893342,10.030941,0.134284,-0.139937,-0.008740,-0.213623,0.091553,-3.143311
9.868201,-0.048499,-0.874182,10.039323,0.115124,-0.120776,-0.000358,-0.122070,0.091553,-1.892090
9.878294,-0.053888,-0.862207,10.042916,0.109735,-0.108801,0.003235,-0.091553,0.061035,-1.495361
9.888391,-0.063468,-0.856818,10.039922,0.100155,-0.103412,0.000241,-0.091553,0.030518,-0.885010
9.898487,-0.065863,-0.843047,10.036928,0.097760,-0.089641,-0.002753,-0.091553,0.000000,-0.732422
9.908656,-0.065863,-0.846041,10.036928,0.097760,-0.092635,-0.002753,-0.091553,0.030518,-0.457764
9.918745,-0.059277,-0.847238,10.053094,0.104347,-0.093832,0.013414,-0.061035,0.030518,-0.335693
9.928835,-0.062869,-0.845442,10.050699,0.100754,-0.092036,0.011019,-0.061035,0.061035,-0.274658
9.938925,-0.078437,-0.839454,10.048304,0.085186,-0.086049,0.008624,-0.061035,0.061035,-0.152588
9.949015,-0.074246,-0.842448,10.040521,0.089378,-0.089042,0.000840,-0.061035,0.061035,-0.091553
9.959153,-0.071252,-0.841251,10.038724,0.092371,-0.087845,-0.000957,-0.061035,0.061035,-0.091553
9.969243,-0.078437,-0.848436,10.041119,0.085186,-0.095030,0.001439,-0.061035,0.030518,-0.061035
9.979332,-0.079634,-0.849633,10.045311,0.083989,-0.096227,0.005630,-0.061035,0.030518,-0.122070
9.989422,-0.081431,-0.850831,10.046508,0.082193,-0.097425,0.006827,-0.061035,0.030518,-0.061035
9.999511,-0.076641,-0.851429,10.046508,0.086983,-0.098024,0.006827,-0.030518,0.061035,-0.061035
10.009657,-0.074844,-0.850232,10.038126,0.088779,-0.096826,-0.001555,0.030518,0.030518,-0.030518
10.019753,-0.082628,-0.847238,10.045311,0.080995,-0.093832,0.005630,0.000000,0.030518,-0.030518
10.029849,-0.077838,-0.846639,10.050699,0.085785,-0.093234,0.011019,0.000000,0.061035,0.000000
10.039945,-0.073647,-0.847238,10.046508,0.089976,-0.093832,0.006827,-0.030518,0.061035,-0.030518
10.050041,-0.073647,-0.847238,10.044712,0.089976,-0.093832,0.005031,-0.030518,0.061035,-0.061035
10.060136,-0.068857,-0.840652,10.044712,0.094766,-0.087246,0.005031,0.000000,0.061035,-0.061035
10.070230,-0.073647,-0.847238,10.047706,0.089976,-0.093832,0.008025,0.000000,0.091553,-0.061035
10.080326,-0.085023,-0.845442,10.046508,0.078600,-0.092036,0.006827,0.000000,0.061035,-0.030518
10.090423,-0.084424,-0.847837,10.044113,0.079199,-0.094431,0.004432,0.000000,0.061035,-0.030518
10.100519,-0.085023,-0.850232,10.033934,0.078600,-0.096826,-0.005747,0.030518,0.091553,-0.030518
10.110680,-0.078437,-0.849633,10.033336,0.085186,-0.096227,-0.006345,0.000000,0.061035,-0.061035
10.120769,-0.082628,-0.849034,10.041718,0.080995,-0.095629,0.002037,-0.030518,0.030518,-0.061035
10.130859,-0.075443,-0.855621,10.038724,0.088180,-0.102215,-0.000957,0.000000,0.030518,-0.030518
10.140949,-0.079036,-0.856219,10.036329,0.084588,-0.102814,-0.003352,-0.030518,0.030518,-0.030518
10.151128,-0.073048,-0.851429,10.032138,0.090575,-0.098024,-0.007543,-0.061035,0.030518,0.000000
10.161214,-0.075443,-0.852627,10.036329,0.088180,-0.099221,-0.003352,-0.061035,0.000000,-0.030518
10.171303,-0.082628,-0.855022,10.043514,0.080995,-0.101616,0.003834,-0.030518,0.030518,-0.061035
10.181392,-0.078437,-0.850831,10.039323,0.085186,-0.097425,-0.000358,0.000000,0.000000,0.000000
10.191482,-0.075443,-0.844244,10.033934,0.088180,-0.090839,-0.005747,-0.030518,0.000000,0.030518
10.201571,-0.077838,-0.841251,10.032737,0.085785,-0.087845,-0.006944,-0.030518,0.030518,0.030518
10.211692,-0.072449,-0.847238,10.035132,0.091174,-0.093832,-0.004549,0.000000,0.000000,0.000000
10.221781,-0.062869,-0.844244,10.033336,0.100754,-0.090839,-0.006345,0.000000,0.000000,0.030518
10.231871,-0.076641,-0.843646,10.034533,0.086983,-0.090240,-0.005148,0.030518,0.000000,0.000000
10.241961,-0.076641,-0.845442,10.028546,0.086983,-0.092036,-0.011135,0.030518,0.000000,0.000000
10.252049,-0.072449,-0.853226,10.024354,0.091174,-0.099820,-0.015327,0.030518,0.000000,-0.061035
10.262136,-0.078437,-0.852028,10.026151,0.085186,-0.098622,-0.013530,-0.030518,0.000000,-0.061035
10.272226,-0.076641,-0.852028,10.033336,0.086983,-0.098622,-0.006345,0.000000,0.000000,-0.091553
10.282314,-0.080832,-0.849034,10.035132,0.082791,-0.095629,-0.004549,0.000000,0.061035,-0.030518
10.292402,-0.081431,-0.850232,10.027947,0.082193,-0.096826,-0.011734,0.000000,0.061035,0.000000
10.302494,-0.076641,-0.853226,10.029743,0.086983,-0.099820,-0.009938,0.000000,0.030518,-0.030518
10.312664,-0.078437,-0.855022,10.033336,0.085186,-0.101616,-0.006345,-0.030518,-0.030518,-0.030518
10.322760,-0.073647,-0.847238,10.038724,0.089976,-0.093832,-0.000957,-0.030518,0.000000,-0.061035
10.332855,-0.082628,-0.846041,10.035132,0.080995,-0.092635,-0.004549,-0.030518,0.000000,-0.030518
10.342951,-0.077239,-0.839454,10.039323,0.086384,-0.086049,-0.000358,-0.030518,0.000000,-0.030518
10.353047,-0.078437,-0.840053,10.033336,0.085186,-0.086647,-0.006345,-0.061035,0.000000,-0.030518
10.363143,-0.088616,-0.846041,10.039323,0.075008,-0.092635,-0.000358,-0.061035,0.030518,-0.030518
10.373239,-0.090412,-0.842448,10.040521,0.073211,-0.089042,0.000840,-0.061035,0.030518,-0.030518
10.383335,-0.084424,-0.847837,10.036928,0.079199,-0.094431,-0.002753,-0.030518,0.000000,-0.030518
10.393430,-0.085622,-0.843646,10.035731,0.078001,-0.090240,-0.003950,-0.030518,0.030518,-0.061035
10.403527,-0.077838,-0.843646,10.027348,0.085785,-0.090240,-0.012333,0.000000,0.000000,-0.030518
10.413689,-0.072449,-0.843646,10.031539,0.091174,-0.090240,-0.008142,-0.030518,0.000000,-0.030518
10.423779,-0.080832,-0.846639,10.028546,0.082791,-0.093234,-0.011135,-0.030518,0.000000,0.000000
10.433870,-0.077239,-0.843646,10.021959,0.086384,-0.090240,-0.017722,-0.030518,0.030518,0.000000
10.443959,-0.071252,-0.843646,10.020762,0.092371,-0.090240,-0.018919,-0.030518,0.000000,0.000000
10.454048,-0.067061,-0.847837,10.023755,0.096563,-0.094431,-0.015925,0.000000,0.000000,0.000000
10.464139,-0.071252,-0.849633,10.028546,0.092371,-0.096227,-0.011135,0.030518,0.000000,-0.030518
10.474228,-0.074844,-0.847238,10.036329,0.088779,-0.093832,-0.003352,-0.030518,0.030518,-0.061035
10.484316,-0.081431,-0.850232,10.032737,0.082193,-0.096826,-0.006944,0.000000,0.030518,-0.091553
10.494405,-0.080233,-0.841849,10.033336,0.083390,-0.088444,-0.006345,0.000000,0.000000,-0.061035
10.504490,-0.083826,-0.853226,10.032138,0.079798,-0.099820,-0.007543,0.030518,0.000000,-0.030518
10.514647,-0.083826,-0.846639,10.032737,0.079798,-0.093234,-0.006944,0.000000,0.030518,0.000000
10.524744,-0.076042,-0.844244,10.041119,0.087581,-0.090839,0.001439,-0.030518,0.030518,0.030518
10.534840,-0.074246,-0.840053,10.042317,0.089378,-0.086647,0.002636,-0.030518,0.000000,0.030518
10.544937,-0.075443,-0.838856,10.041718,0.088180,-0.085450,0.002037,0.000000,0.000000,0.000000
10.555033,-0.076042,-0.840053,10.035731,0.087581,-0.086647,-0.003950,0.000000,0.000000,0.000000
10.565129,-0.080233,-0.846639,10.039323,0.083390,-0.093234,-0.000358,0.000000,0.030518,0.000000
10.575226,-0.081431,-0.853824,10.042916,0.082193,-0.100419,0.003235,0.000000,0.061035,0.000000
10.585322,-0.083826,-0.858016,10.033934,0.079798,-0.104610,-0.005747,-0.030518,0.061035,-0.030518
10.595418,-0.081431,-0.855022,10.029743,0.082193,-0.101616,-0.009938,0.000000,0.030518,-0.030518
10.605513,-0.081431,-0.852627,10.024953,0.082193,-0.099221,-0.014728,-0.030518,0.030518,-0.030518
10.615633,-0.080832,-0.854423,10.035731,0.082791,-0.101017,-0.003950,0.000000,0.000000,-0.061035
10.625727,-0.087418,-0.848436,10.044712,0.076205,-0.095030,0.005031,0.030518,0.030518,-0.030518
10.635821,-0.087418,-0.846041,10.042317,0.076205,-0.092635,0.002636,0.030518,0.030518,-0.030518
10.645915,-0.084424,-0.847238,10.036329,0.079199,-0.093832,-0.003352,0.000000,0.061035,-0.030518
10.656011,-0.083826,-0.848436,10.039323,0.079798,-0.095030,-0.000358,0.000000,0.030518,-0.061035
10.666107,-0.079036,-0.846639,10.042916,0.084588,-0.093234,0.003235,0.030518,0.061035,-0.061035
10.676203,-0.078437,-0.842448,10.044712,0.085186,-0.089042,0.005031,-0.030518,0.061035,-0.030518
10.686299,-0.073647,-0.844244,10.035731,0.089976,-0.090839,-0.003950,-0.030518,0.061035,-0.061035
10.696393,-0.071252,-0.844244,10.031539,0.092371,-0.090839,-0.008142,-0.030518,0.061035,-0.030518
10.706513,-0.079634,-0.847238,10.033336,0.083989,-0.093832,-0.006345,0.000000,0.061035,0.000000
10.716629,-0.081431,-0.843047,10.040521,0.082193,-0.089641,0.000840,0.000000,0.061035,0.000000
10.726749,-0.074844,-0.841849,10.038724,0.088779,-0.088444,-0.000957,-0.030518,0.030518,-0.030518
10.736856,-0.079634,-0.840652,10.038724,0.083989,-0.087246,-0.000957,-0.030518,0.061035,-0.030518
10.746961,-0.075443,-0.841849,10.037527,0.088180,-0.088444,-0.002154,0.000000,0.030518,-0.030518
10.757095,-0.076641,-0.845442,10.032138,0.086983,-0.092036,-0.007543,-0.030518,0.000000,-0.030518
10.767204,-0.074844,-0.837658,10.037527,0.088779,-0.084252,-0.002154,-0.061035,0.030518,-0.061035
10.777314,-0.071252,-0.842448,10.044113,0.092371,-0.089042,0.004432,-0.030518,0.000000,-0.030518
10.787414,-0.070653,-0.844244,10.045909,0.092970,-0.090839,0.006229,-0.061035,0.000000,0.000000
10.797883,-0.071252,-0.841849,10.036329,0.092371,-0.088444,-0.003352,-0.030518,0.000000,-0.030518
10.807992,-0.071252,-0.841849,10.028546,0.092371,-0.088444,-0.011135,-0.030518,0.000000,-0.030518
10.818213,-0.074844,-0.847238,10.037527,0.088779,-0.093832,-0.002154,0.000000,0.030518,-0.030518
10.828312,-0.077239,-0.840053,10.044712,0.086384,-0.086647,0.005031,0.030518,0.000000,0.000000
10.838408,-0.077838,-0.846041,10.044712,0.085785,-0.092635,0.005031,0.000000,0.000000,-0.030518
10.848486,-0.072449,-0.846639,10.033934,0.091174,-0.093234,-0.005747,-0.030518,0.000000,-0.061035
10.858567,-0.073647,-0.844244,10.038126,0.089976,-0.090839,-0.001555,-0.030518,0.030518,-0.030518
10.868635,-0.083227,-0.856818,10.044113,0.080396,-0.103412,0.004432,0.030518,0.030518,-0.030518
10.878707,-0.081431,-0.855022,10.039323,0.082193,-0.101616,-0.000358,0.030518,-0.030518,-0.030518
10.888774,-0.073048,-0.844843,10.037527,0.090575,-0.091437,-0.002154,-0.030518,0.000000,-0.030518
10.898839,-0.070653,-0.847238,10.032138,0.092970,-0.093832,-0.007543,-0.030518,0.030518,0.000000
10.908906,-0.068258,-0.847837,10.035132,0.095365,-0.094431,-0.004549,-0.030518,0.000000,0.000000
10.918976,-0.072449,-0.844244,10.036928,0.091174,-0.090839,-0.002753,0.000000,0.000000,0.000000
10.929043,-0.075443,-0.843646,10.043514,0.088180,-0.090240,0.003834,-0.061035,0.030518,0.000000
10.939108,-0.067061,-0.852627,10.039323,0.096563,-0.099221,-0.000358,-0.061035,0.000000,0.000000
10.949174,-0.071252,-0.848436,10.034533,0.092371,-0.095030,-0.005148,-0.030518,0.030518,0.030518
10.959241,-0.068258,-0.851429,10.030941,0.095365,-0.098024,-0.008740,-0.030518,0.000000,0.000000
10.969307,-0.069456,-0.850232,10.036928,0.094168,-0.096826,-0.002753,-0.030518,0.030518,0.030518
10.979382,-0.065264,-0.852028,10.034533,0.098359,-0.098622,-0.005148,-0.030518,0.030518,0.000000
10.989450,-0.070054,-0.850831,10.029743,0.093569,-0.097425,-0.009938,0.000000,0.030518,0.000000
10.999525,-0.070054,-0.852028,10.029144,0.093569,-0.098622,-0.010537,0.000000,0.030518,0.000000
11.009591,-0.077838,-0.855022,10.032737,0.085785,-0.101616,-0.006944,-0.030518,0.000000,-0.030518
11.019657,-0.082029,-0.849034,10.041119,0.081594,-0.095629,0.001439,-0.030518,0.000000,-0.030518
11.029722,-0.086221,-0.849633,10.042916,0.077403,-0.096227,0.003235,-0.030518,0.030518,-0.030518
11.039793,-0.082628,-0.852028,10.045909,0.080995,-0.098622,0.006229,0.000000,0.061035,-0.030518
11.049860,-0.082029,-0.849034,10.038126,0.081594,-0.095629,-0.001555,0.000000,0.000000,-0.030518
11.059927,-0.077838,-0.843646,10.043514,0.085785,-0.090240,0.003834,0.000000,0.000000,0.000000
11.069993,-0.075443,-0.841849,10.044113,0.088180,-0.088444,0.004432,0.000000,0.000000,0.000000
11.080060,-0.080233,-0.840652,10.042916,0.083390,-0.087246,0.003235,0.000000,0.030518,0.000000
11.090126,-0.080832,-0.840053,10.038724,0.082791,-0.086647,-0.000957,0.000000,0.030518,0.000000
11.100194,-0.083227,-0.841251,10.032138,0.080396,-0.087845,-0.007543,0.000000,0.061035,-0.030518
11.110259,-0.082628,-0.843646,10.030342,0.080995,-0.090240,-0.009339,0.000000,0.030518,0.030518
11.120325,-0.085622,-0.846639,10.036329,0.078001,-0.093234,-0.003352,0.030518,0.030518,-0.030518
11.130391,-0.086819,-0.846041,10.039922,0.076804,-0.092635,0.000241,0.030518,0.000000,-0.030518
11.140457,-0.085023,-0.849034,10.038126,0.078600,-0.095629,-0.001555,0.000000,0.000000,-0.030518
11.150525,-0.092807,-0.856818,10.031539,0.070816,-0.103412,-0.008142,-0.030518,0.030518,-0.030518
11.160599,-0.095801,-0.857417,10.031539,0.067822,-0.104011,-0.008142,-0.030518,0.030518,0.000000
11.170666,-0.094603,-0.852627,10.039922,0.069020,-0.099221,0.000241,-0.030518,0.061035,-0.030518
11.180732,-0.090412,-0.855621,10.041718,0.073211,-0.102215,0.002037,-0.030518,0.030518,-0.030518
11.190798,-0.089214,-0.859213,10.044712,0.074409,-0.105807,0.005031,-0.061035,0.030518,-0.061035
11.200863,-0.079634,-0.858615,10.041718,0.083989,-0.105209,0.002037,-0.061035,0.000000,-0.030518
11.210929,-0.075443,-0.856219,10.041119,0.088180,-0.102814,0.001439,-0.061035,0.000000,0.000000
11.220996,-0.067659,-0.850232,10.043514,0.095964,-0.096826,0.003834,-0.061035,0.000000,-0.061035
11.231062,-0.065264,-0.850232,10.042317,0.098359,-0.096826,0.002636,-0.030518,0.030518,-0.030518
11.241127,-0.071252,-0.855621,10.037527,0.092371,-0.102215,-0.002154,-0.030518,0.030518,-0.030518
11.251194,-0.076641,-0.852028,10.034533,0.086983,-0.098622,-0.005148,0.000000,0.061035,0.000000
11.261260,-0.070653,-0.847837,10.032737,0.092970,-0.094431,-0.006944,0.000000,0.061035,-0.061035
11.271326,-0.073647,-0.844843,10.036928,0.089976,-0.091437,-0.002753,0.030518,0.000000,-0.030518
11.281393,-0.077239,-0.840652,10.038126,0.086384,-0.087246,-0.001555,0.030518,0.030518,-0.030518
11.291460,-0.068258,-0.834066,10.034533,0.095365,-0.080660,-0.005148,0.030518,0.061035,-0.030518
11.301526,-0.073647,-0.832269,10.037527,0.089976,-0.078864,-0.002154,0.030518,0.000000,-0.030518
11.311592,-0.074844,-0.837658,10.046508,0.088779,-0.084252,0.006827,0.000000,0.000000,0.030518
11.321657,-0.071252,-0.839454,10.042317,0.092371,-0.086049,0.002636,0.030518,0.000000,0.000000
11.331723,-0.070653,-0.846639,10.045909,0.092970,-0.093234,0.006229,-0.030518,0.000000,0.000000
11.341789,-0.062271,-0.838856,10.037527,0.101353,-0.085450,-0.002154,-0.030518,0.000000,-0.030518
11.351857,-0.069456,-0.841251,10.036329,0.094168,-0.087845,-0.003352,-0.061035,0.000000,-0.030518
11.361923,-0.068857,-0.844244,10.044113,0.094766,-0.090839,0.004432,0.000000,0.061035,-0.030518
11.371989,-0.065264,-0.846041,10.043514,0.098359,-0.092635,0.003834,0.000000,0.061035,-0.030518
11.382055,-0.067659,-0.852028,10.038126,0.095964,-0.098622,-0.001555,-0.061035,0.030518,-0.030518
11.392120,-0.067061,-0.849034,10.038724,0.096563,-0.095629,-0.000957,-0.030518,0.061035,-0.030518
11.402186,-0.067061,-0.841849,10.039922,0.096563,-0.088444,0.000241,-0.061035,0.061035,-0.030518
11.412251,-0.068857,-0.835862,10.049502,0.094766,-0.082456,0.009821,-0.061035,0.030518,-0.030518
11.422315,-0.073048,-0.840053,10.048903,0.090575,-0.086647,0.009222,-0.030518,0.061035,-0.030518
11.432384,-0.076641,-0.840652,10.040521,0.086983,-0.087246,0.000840,-0.061035,0.061035,-0.030518
11.442449,-0.080233,-0.846639,10.041119,0.083390,-0.093234,0.001439,-0.030518,0.061035,-0.061035
11.452514,-0.083826,-0.851429,10.034533,0.079798,-0.098024,-0.005148,0.000000,0.061035,-0.030518
11.462585,-0.081431,-0.856219,10.039323,0.082193,-0.102814,-0.000358,-0.030518,0.030518,-0.030518
11.472652,-0.081431,-0.855621,10.042317,0.082193,-0.102215,0.002636,-0.030518,0.061035,-0.030518
11.482723,-0.083227,-0.857417,10.038724,0.080396,-0.104011,-0.000957,-0.061035,0.091553,-0.030518
11.492789,-0.085622,-0.856219,10.036928,0.078001,-0.102814,-0.002753,-0.061035,0.061035,-0.030518
11.502854,-0.079036,-0.856818,10.032737,0.084588,-0.103412,-0.006944,-0.030518,0.061035,0.030518
11.512919,-0.074246,-0.855621,10.037527,0.089378,-0.102215,-0.002154,-0.030518,0.091553,0.030518
11.522989,-0.082628,-0.854423,10.041119,0.080995,-0.101017,0.001439,-0.061035,0.061035,0.030518
11.533053,-0.083227,-0.853226,10.039323,0.080396,-0.099820,-0.000358,-0.061035,0.091553,0.000000
11.543120,-0.087418,-0.859812,10.033934,0.076205,-0.106406,-0.005747,-0.030518,0.091553,-0.030518
11.553185,-0.082029,-0.859213,10.031539,0.081594,-0.105807,-0.008142,0.000000,0.030518,-0.061035
11.563251,-0.079634,-0.859213,10.043514,0.083989,-0.105807,0.003834,0.000000,0.030518,-0.061035
11.573317,-0.078437,-0.856219,10.041718,0.085186,-0.102814,0.002037,0.030518,0.000000,-0.061035
11.583383,-0.082029,-0.858016,10.039922,0.081594,-0.104610,0.000241,0.000000,-0.030518,-0.091553
11.593448,-0.079036,-0.848436,10.035731,0.084588,-0.095030,-0.003950,0.000000,0.030518,-0.061035
11.603546,-0.076641,-0.853824,10.035132,0.086983,-0.100419,-0.004549,0.030518,0.061035,-0.061035
11.613611,-0.078437,-0.848436,10.036928,0.085186,-0.095030,-0.002753,0.000000,0.061035,-0.061035
11.623677,-0.076641,-0.853226,10.034533,0.086983,-0.099820,-0.005148,0.030518,0.061035,-0.061035
11.633742,-0.080832,-0.850232,10.037527,0.082791,-0.096826,-0.002154,0.030518,0.030518,-0.091553
11.643808,-0.073647,-0.853226,10.024953,0.089976,-0.099820,-0.014728,0.030518,0.030518,-0.061035
11.653873,-0.070653,-0.855022,10.024953,0.092970,-0.101616,-0.014728,0.030518,0.000000,-0.061035
11.663945,-0.068258,-0.849633,10.039323,0.095365,-0.096227,-0.000358,-0.061035,0.000000,-0.030518
11.674010,-0.076042,-0.852627,10.047107,0.087581,-0.099221,0.007426,-0.152588,0.000000,-0.091553
11.684076,-0.059277,-0.852627,10.045311,0.104347,-0.099221,0.005630,-0.030518,0.122070,-0.579834
11.694141,0.544867,-0.558040,10.059082,0.708490,0.195366,0.019401,0.061035,0.305176,-3.509521
11.704207,0.665815,-0.583187,10.024953,0.829439,0.170219,-0.014728,0.091553,0.457764,-7.202148
11.714272,0.278421,-0.822090,10.088421,0.442044,-0.068685,0.048740,-0.122070,0.457764,-12.481689
11.724345,0.186213,-0.853824,10.020762,0.349836,-0.100419,-0.018919,-0.061035,0.457764,-14.160156
11.734411,-0.207768,-0.808319,10.038724,-0.044145,-0.054913,-0.000957,-0.518799,0.488281,-14.739990
11.744477,-0.437091,-0.941243,10.032138,-0.273468,-0.187837,-0.007543,-0.854492,0.244141,-13.488770
11.754542,-0.550854,-0.972977,10.027947,-0.387231,-0.219571,-0.011734,-0.854492,0.061035,-10.284424
11.764608,-0.434097,-1.005309,10.037527,-0.270474,-0.251904,-0.002154,-0.671387,0.000000,-8.178711
11.774673,-0.349074,-0.966390,10.041718,-0.185451,-0.212985,0.002037,-0.457764,0.030518,-6.347656
11.784747,-0.246687,-0.918490,10.040521,-0.083064,-0.165084,0.000840,-0.305176,0.030518,-3.845215
11.794813,-0.202978,-0.901126,10.032138,-0.039355,-0.147720,-0.007543,-0.274658,0.030518,-2.990723
11.804882,-0.144300,-0.881367,10.044712,0.019323,-0.127961,0.005031,-0.183105,0.030518,-1.770020
11.814948,-0.132325,-0.871787,10.048304,0.031298,-0.118381,0.008624,-0.152588,0.000000,-1.373291
11.825013,-0.116158,-0.870590,10.042916,0.047465,-0.117184,0.003235,-0.183105,0.030518,-0.854492
11.835079,-0.102387,-0.865201,10.035132,0.061236,-0.111795,-0.004549,-0.152588,0.030518,-0.671387
11.845153,-0.094005,-0.859213,10.036928,0.069619,-0.105807,-0.002753,-0.122070,0.061035,-0.579834
11.855221,-0.091011,-0.850232,10.032737,0.072613,-0.096826,-0.006944,-0.091553,0.061035,-0.335693
11.865286,-0.079634,-0.855621,10.039922,0.083989,-0.102215,0.000241,-0.091553,0.030518,-0.274658
11.875352,-0.067061,-0.855621,10.038724,0.096563,-0.102215,-0.000957,-0.091553,0.000000,-0.183105
11.885418,-0.068857,-0.850831,10.041119,0.094766,-0.097425,0.001439,-0.091553,0.030518,-0.122070
11.895484,-0.068258,-0.856818,10.042317,0.095365,-0.103412,0.002636,-0.061035,0.030518,-0.091553
11.905555,-0.065264,-0.851429,10.044712,0.098359,-0.098024,0.005031,-0.030518,0.030518,-0.061035
11.915622,-0.064067,-0.856818,10.043514,0.099556,-0.103412,0.003834,-0.030518,0.030518,-0.061035
11.925688,-0.067659,-0.855022,10.048304,0.095964,-0.101616,0.008624,-0.030518,0.030518,-0.030518
11.935753,-0.069456,-0.855022,10.041718,0.094168,-0.101616,0.002037,0.000000,0.061035,-0.030518
11.945819,-0.070653,-0.856219,10.033934,0.092970,-0.102814,-0.005747,-0.152588,0.030518,-0.061035
11.955889,-0.071851,-0.861608,10.039323,0.091773,-0.108202,-0.000358,-0.183105,0.030518,-0.061035
11.965961,-0.068258,-0.860411,10.048903,0.095365,-0.107005,0.009222,-0.030518,0.061035,0.030518
11.976027,-0.071252,-0.854423,10.040521,0.092371,-0.101017,0.000840,0.030518,0.091553,0.030518
11.986094,-0.076641,-0.853226,10.041718,0.086983,-0.099820,0.002037,0.030518,0.152588,0.030518
11.996161,-0.170046,-0.857417,10.033336,-0.006423,-0.104011,-0.006345,0.152588,0.183105,0.030518
12.006227,-0.441282,-0.747845,10.041718,-0.277659,0.005561,0.002037,0.518799,0.335693,-0.854492
12.016293,-0.529898,-0.707728,10.084828,-0.366275,0.045678,0.045148,1.373291,0.793457,-5.493164
12.026365,-0.606539,-0.813109,10.022558,-0.442915,-0.059703,-0.017123,1.342773,0.671387,-9.002686
12.036431,-0.202978,-0.830473,10.042916,-0.039355,-0.077067,0.003235,0.518799,0.701904,-13.549805
12.046497,0.081431,-0.924478,10.039922,0.245054,-0.171072,0.000241,0.274658,0.610352,-12.756348
12.056563,0.228724,-0.946033,10.048304,0.392348,-0.192627,0.008624,0.061035,0.335693,-9.155273
12.066629,0.257465,-0.887953,10.051897,0.421088,-0.134548,0.012216,-0.030518,0.213623,-7.446289
12.076695,0.195793,-0.865800,10.053693,0.359416,-0.112394,0.014012,-0.091553,0.122070,-6.134033
12.086760,0.090412,-0.785566,10.056088,0.254035,-0.032161,0.016407,-0.183105,0.030518,-5.432129
12.096834,0.047302,-0.752635,10.055490,0.210925,0.000771,0.015809,-0.213623,0.061035,-6.256104
12.106900,-0.016166,-0.695154,10.048903,0.147457,0.058251,0.009222,-0.305176,0.274658,-9.338379
12.116966,-0.046703,-0.707130,10.052496,0.116920,0.046276,0.012815,-0.396729,0.305176,-11.749268
12.127038,-0.105381,-0.708926,10.041718,0.058242,0.044480,0.002037,-0.335693,0.488281,-17.791748
12.137104,-0.141306,-0.698747,10.048903,0.022317,0.054659,0.009222,-0.152588,0.579834,-21.759033
12.147169,-0.105980,-0.680186,10.054891,0.057644,0.073220,0.015210,-0.244141,0.762939,-24.688721
12.157241,-0.079634,-0.701741,10.052496,0.083989,0.051665,0.012815,-1.373291,0.762939,-31.951904
12.167306,-0.011376,-0.690364,10.048903,0.152247,0.063041,0.009222,-1.892090,0.793457,-35.156250
12.177372,0.073647,-0.653840,10.038724,0.237270,0.099565,-0.000957,-3.021240,0.793457,-38.299561
12.187438,0.050894,-0.673000,10.036928,0.214517,0.080405,-0.002753,-3.448486,0.823975,-39.398193
12.197504,0.030536,-0.718506,10.033336,0.194160,0.034900,-0.006345,-3.723145,1.007080,-41.900635
12.207570,0.013173,-0.766406,10.047706,0.176796,-0.013000,0.008025,-3.631592,1.159668,-43.212891
12.217643,0.011376,-0.772993,10.048304,0.175000,-0.019587,0.008624,-3.143311,1.312256,-44.982910
12.227716,-0.028740,-0.763412,10.058483,0.134883,-0.010007,0.018802,-1.922607,1.678467,-49.438477
12.237782,-0.119751,-0.905916,10.072255,0.043872,-0.152510,0.032574,-1.403809,1.770020,-52.825928
12.247848,0.094005,-1.693878,9.821975,0.257628,-0.940472,-0.217706,-3.417969,1.800537,-66.070557
12.257914,0.042512,-1.613046,10.149494,0.206135,-0.859640,0.109813,-2.807617,2.349854,-73.852539
12.267980,0.080832,-1.287922,10.015373,0.244455,-0.534516,-0.024308,2.258301,3.265381,-80.810547
12.278051,0.114362,-0.999921,10.001602,0.277985,-0.246515,-0.038079,4.333496,3.814697,-82.946777
12.288117,0.053289,-0.638871,9.985435,0.216912,0.114534,-0.054246,6.927490,4.730225,-84.320068
12.298183,0.015568,-0.605940,9.987231,0.179191,0.147466,-0.052449,4.486084,3.601074,-83.496094
12.308249,-0.014370,-0.720302,10.001003,0.149253,0.033104,-0.038678,2.471924,3.295898,-83.618164
12.318315,-0.123942,-0.635878,10.033336,0.039681,0.117528,-0.006345,1.434326,3.173828,-77.148438
12.328380,-0.043110,-0.738864,10.032138,0.120513,0.014542,-0.007543,0.671387,2.868652,-71.044922
12.338446,0.023351,-0.877775,10.027947,0.186975,-0.124369,-0.011734,-0.061035,2.410889,-60.028076
12.348518,0.010778,-0.940644,10.028546,0.174401,-0.187238,-0.011135,-0.213623,2.288818,-55.389404
12.358585,-0.006586,-0.926274,10.033336,0.157037,-0.172868,-0.006345,-0.427246,2.105713,-51.391602
12.368652,-0.125140,-0.881367,10.053693,0.038483,-0.127961,0.014012,-0.762939,2.075195,-47.698975
12.378717,-0.204774,-0.947230,10.040521,-0.041151,-0.193824,0.000840,-0.701904,1.983643,-46.997070
12.388783,-0.397573,-1.052012,10.086625,-0.233950,-0.298607,0.046944,-0.732422,1.922607,-52.062988
12.398849,-0.341889,-0.856219,10.076446,-0.178266,-0.102814,0.036765,-0.061035,1.861572,-55.267334
12.408921,-0.090412,-1.220861,9.958491,0.073211,-0.467455,-0.081190,-1.037598,1.922607,-63.354492
12.418986,0.227527,-1.352587,9.945917,0.391150,-0.599181,-0.093764,-1.129150,2.136230,-66.741943
12.429052,0.210163,-1.208287,10.005194,0.373786,-0.454882,-0.034487,-1.434326,2.258301,-67.291260
12.439118,0.310155,-0.991538,10.042317,0.473778,-0.238132,0.002636,-1.800537,1.983643,-61.340332
12.449184,0.191602,-0.620909,10.062076,0.355225,0.132497,0.022395,-1.647949,1.800537,-55.999756
12.459250,0.149689,-1.170566,10.032737,0.313312,-0.417160,-0.006944,-1.312256,1.342773,-45.166016
12.469323,0.174238,-1.523232,10.030342,0.337861,-0.769827,-0.009339,-1.373291,1.464844,-47.485352
