Time (s),Accel X (m/s^2)
0.0057256221771240234,0.1426256913447374
0.11167597770690918,0.14222116974801335
0.21764063835144043,0.14230367845239672
0.32358217239379883,0.14260784598929477
0.42964792251586914,0.14240954641969722
0.5355994701385498,0.14248259087939866
0.6415302753448486,0.14209679560835362
0.7475028038024902,0.1425098286494485
0.8535237312316895,0.14229018688954947
0.9594740867614746,0.1425270065505688
1.065537452697754,0.1423967302588249
1.1700489521026611,0.14218598914234865
1.2759313583374023,0.14265382042396382
1.3818778991699219,0.14237857975973708
1.4878439903259277,0.14241857225687318
1.593796730041504,0.142420500013762
1.6997647285461426,0.14244773156185825
1.8057329654693604,0.14253895729951946
1.9116957187652588,0.142576339398416
2.0176169872283936,0.14231871615023328
2.1236937046051025,0.14237509361961587
2.228203058242798,0.1424794079823576
2.3340651988983154,0.14244146434446417
2.4399607181549072,0.14249625640293395
2.545862913131714,0.14264310744625774
2.6517860889434814,0.1425394323914027
2.7577781677246094,0.1424578990114369
2.8637335300445557,0.1425199822759473
2.9696462154388428,0.14245705335575745
3.0756359100341797,0.14265347558364957
3.1815378665924072,0.1426325992643908
3.287410020828247,0.1426899808048489
3.393260955810547,0.14266308629145957
3.4991543292999268,0.14252372423426335
3.6050796508789062,0.1425881932499598
3.7110884189605713,0.1423062452900775
3.8169968128204346,0.14230462223667292
3.922894239425659,0.14243304674951338
4.028810501098633,0.14262610165029496
4.134713649749756,0.1424165413543308
4.240595102310181,0.14248758216064597
4.346528053283691,0.1424330600943468
4.45242714881897,0.14154891913402287
4.558286190032959,0.14951695185857625
4.664168834686279,0.15902213294628398
4.7701051235198975,0.13018343536935095
4.876007556915283,-0.036328839887512565
4.9818642139434814,-0.3102552902927398
5.087770700454712,-0.11653312743705069
5.193639278411865,-0.24465494588950776
5.299534559249878,-0.30497802743125924
5.405418634414673,-0.2759197794399828
5.511339902877808,-0.25150104910031246
5.617222785949707,-0.26365892210802855
5.723156213760376,-0.2632380908626182
5.829116106033325,-0.2605309647994236
5.935356378555298,-0.3018937321790123
6.04128885269165,-0.31316654783524456
6.14719557762146,-0.27569825605632836
6.2530858516693115,-0.2334027409376569
6.358979940414429,-0.07257106926066026
6.464901685714722,0.05338501626638692
6.570862293243408,0.182963010049785
6.676800727844238,0.1558353155407437
6.782735586166382,0.14190732367125225
6.888706922531128,0.13783279440159357
6.9946043491363525,0.14233740701472078
7.100604772567749,0.140872133260137
7.206031322479248,0.1427510448540794
7.311355829238892,0.1426848339818569
7.41729211807251,0.14269644191447292
7.523199796676636,0.14748560257639165
7.629056930541992,0.151627050608475
7.735079050064087,0.20486352997939905
7.840997695922852,0.07156145272512937
7.946842432022095,-0.46543716942598135
8.05269455909729,-0.5235136137378626
8.158547163009644,-0.2502157362432875
8.264420509338379,-0.2093148530372151
8.370311260223389,-0.23082121885351548
8.476224660873413,-0.3948615529797852
8.582091093063354,-0.18677460040680494
8.687997579574585,-0.23160429521027126
8.793885946273804,-0.16555524429515778
8.899781465530396,-0.19743733641971417
9.005730628967285,-0.35123422366034873
9.11164665222168,-0.5345540198346246
9.217530012130737,-0.277484949994931
9.323421716690063,0.1428007633705226
9.429311275482178,0.16312070216710128
9.535203456878662,0.160958784660588
9.641029596328735,0.14101901431139677
9.746715545654297,0.14002791842521556
9.849786043167114,0.14225936349343257
9.952513217926025,0.14248869474715237
10.05518627166748,0.14237114151147745
10.157798051834106,0.14244634937189896
10.260391235351562,0.14255032277157603
10.362977504730225,0.14250922011102246
10.46558690071106,0.14261304096319324
10.568651676177979,0.14234824226341933
10.671709537506104,0.14252919377099343
10.77552056312561,0.1428013577488845
10.878521203994751,0.14236134798874522
10.981135368347168,0.14260951081787576
11.083781957626343,0.1428020956032424
11.18637228012085,0.14264231688872914
11.28898549079895,0.14424317112963603
11.391583442687988,0.1424703480051221
11.494224786758423,0.1422753474774388
11.596838235855103,0.14240733305891679
11.699466943740845,0.14263828094278178
11.802074670791626,0.14280617908684234
11.904686689376831,0.14258162271525077
12.007343292236328,0.1426372444183793
12.10998272895813,0.14277607332715658
12.212565183639526,0.142716681097954
12.315182447433472,0.14264928134771285
12.417823076248169,0.1427757248232785
12.52048397064209,0.14300032409492106
12.623088598251343,0.14302223802201328
12.725723505020142,0.14266957504217492
12.828330755233765,0.14314584126983157
12.930916786193848,0.14280097736214117
13.0335533618927,0.14265844602434802
13.136319875717163,0.14248274057367633
13.239038228988647,0.14266650133263603
13.341697216033936,0.14239136394414006
13.44435167312622,0.14267181347933788
13.547008037567139,0.14267100016839973
13.649670839309692,0.14261805037748693
13.75234317779541,0.14275904116894994
13.855005979537964,0.14255544879795976
13.95768117904663,0.1425364763644225
14.060338735580444,0.14261142425665846
14.162976026535034,0.14263251803563037
14.265618562698364,0.1426755884637991
14.368292808532715,0.14282516308392798
14.470988512039185,0.14258274979601837
14.573659896850586,0.1426257928740507
14.676330327987671,0.1428129779458273
14.781763076782227,0.14264439135030096
14.887812852859497,0.1428496917006247
14.993823051452637,0.14235692388975524
15.099842309951782,0.14247043380915547
15.205835819244385,0.14241984709015923
15.31184720993042,0.14244491718458888
15.417867660522461,0.1428161268294387
15.523880004882812,0.14248004085072252
15.629889488220215,0.14263404046766526
15.735324621200562,0.14307193883827862
15.841326713562012,0.1426109525790621
15.947308540344238,0.14293544160481916
16.053319692611694,0.14269445158578759
16.15929937362671,0.14267791042554226
16.265236139297485,0.1426371244529694
16.37117862701416,0.1421549555353676
16.477128982543945,0.1424821661544848
16.583152770996094,0.14267877499667064
16.68915820121765,0.14229463625234168
16.795133113861084,0.14252454327791583
16.901084423065186,0.14275523158128475
17.00710129737854,0.14236762309951717
17.111623525619507,0.14259414953317004
17.217514276504517,0.1424807125132776
17.323441743850708,0.1426660020917895
17.429490566253662,0.14240733305891679
17.535436391830444,0.14271502777759418
17.641348123550415,0.14264918914772398
17.747384071350098,0.14240412911722333
17.85333752632141,0.14224838985430954
17.959285259246826,0.14220071438084167
18.065186977386475,0.14253458050887596
18.17116117477417,0.1425753627763251
18.277052640914917,0.1424484545560197
18.382957458496094,0.14258823368691959
18.488893270492554,0.14264493242547846
18.594873428344727,0.14248173013449236
18.700840950012207,0.1425169761216356
18.806764602661133,0.14234492110576918
18.912750244140625,0.14291837312873107
19.01867914199829,0.14245833181156442
19.12458896636963,0.14277166718934073
19.230584144592285,0.14270786477220726
19.336517572402954,0.1423938501628529
19.442432641983032,0.14236322277337132
19.548316955566406,0.14245057479226392
19.654207706451416,0.14280729270060946
19.759555101394653,0.14251090722543971
19.865520477294922,0.14335741736609667
19.971452474594116,0.14270311908095062
20.077368021011353,0.14256571098824317
20.183289766311646,0.1427369120717677
20.28918433189392,0.14301013140095398
20.395098447799683,0.14232289981160362
20.50107169151306,0.14295176023356634
20.606974601745605,0.1425813073645274
20.71292734146118,0.1424884915156957
20.818882942199707,0.14264534065192666
20.924813985824585,0.14286666815250396
21.03074049949646,0.1429076653309817
21.136834859848022,0.14262943464538805
21.243046522140503,0.14260578666978885
21.346040725708008,0.1426156266212988
21.44889736175537,0.14265910595506529
21.55179190635681,0.1426358119933929
21.65446186065674,0.14270296293376117
21.7571804523468,0.1427443458963847
21.859882831573486,0.14254626490056463
21.962514877319336,0.1425456515786202
22.065166473388672,0.14245297505649793
22.167790174484253,0.14238948669870632
22.270427942276,0.14249625640293395
22.37303352355957,0.14248155684849553
22.475667715072632,0.14227126169458632
22.578271865844727,0.14201693290855746
22.680878400802612,0.14295127439420655
22.783508777618408,0.14222799638156158
22.8861346244812,0.14284837394679212
22.988797187805176,0.14245297505649793
23.09180736541748,0.1423439564292401
23.19450306892395,0.14272697752644745
23.297162771224976,0.14252698050739276
23.39981245994568,0.14269787364600886
23.5024516582489,0.14261606865857956
23.605090141296387,0.14268393326275924
23.7077534198761,0.14250324622997956
23.810373306274414,0.14296743399469647
23.912982940673828,0.14255904092599525
24.01560950279236,0.14268927384278682
24.11841630935669,0.14257162547782598
24.22113347053528,0.14259223556079514
24.323811531066895,0.1425323989605572
24.426434993743896,0.14256506425823068
24.52906107902527,0.1424276738821546
24.631664037704468,0.1425480356693096
24.734304189682007,0.14230904259002064
24.8369722366333,0.14280205895794498
24.93969702720642,0.14269715562092478
25.04239821434021,0.14271028969976476
25.145338773727417,0.1428868464503305
25.248074054718018,0.14259288134352222
25.350788354873657,0.14273965216093742
25.453489303588867,0.1424514321708878
25.556161642074585,0.14252530543965986
25.658835887908936,0.1426897109202581
25.761521816253662,0.14272754422321415
25.86415958404541,0.14259599465746908
25.966837406158447,0.14276573630579373
26.069518327713013,0.14276428032064842
26.172239542007446,0.14235501423835917
26.278310775756836,0.14255793215082313
26.384096384048462,0.14241466576634879
26.48890209197998,0.14239076431624165
26.591918468475342,0.14241075614069146
26.694627285003662,0.14215865910833816
26.797309398651123,0.14282740263958613
26.89995527267456,0.1426703690717844
27.0026273727417,0.14282405756927846
27.10530114173889,0.142699935301332
27.207921028137207,0.14232514176964636
27.31056261062622,0.14405179489722675
27.413229942321777,0.14234173511008197
27.515882968902588,0.1436283116401892
27.61855173110962,0.1426975937602949
27.72122287750244,0.142507112430465
27.823834896087646,0.14252557355806428
27.926471710205078,0.14266150544030481
28.029147386550903,0.14225204336627822
28.131993770599365,0.14255498038238032
28.23472309112549,0.142643993995989
28.339192152023315,0.14216443158995068
28.44192361831665,0.1425280335258289
28.544609546661377,0.14225581003097493
28.647399425506592,0.1425700051070669
28.75006628036499,0.14255026088805817
28.85272479057312,0.14255490511245544
28.955345153808594,0.14249798261986646
29.05799388885498,0.14241813654204993
29.16063904762268,0.14265276956439385
29.263282299041748,0.14248304140772433
29.366086959838867,0.14278357866646466
29.468799591064453,0.14265273085889
29.571465253829956,0.14250817569114752
29.674122095108032,0.14243149334824765
29.77683162689209,0.1423394398912242
29.879525899887085,0.1426305334244915
29.98225450515747,0.14257499805426876
30.08499312400818,0.1425318347044285
30.18775177001953,0.14243005522621566
30.290508031845093,0.14244332953738592
30.393397092819214,0.14258555512370058
30.496126890182495,0.14264774213179485
30.59878396987915,0.14212790364559263
30.701547384262085,0.14257000207451384
30.804290056228638,0.1428691055198941
30.907053470611572,0.14292729455401632
31.009837865829468,0.1429180636979641
31.112650394439697,0.14263610916491962
31.215324878692627,0.14247131779957117
31.318097352981567,0.14226198423910041
31.42084527015686,0.14277118421073928
31.523624181747437,0.1425519114678694
31.628862380981445,0.14255490511245544
31.733008861541748,0.14240284065896575
31.83831286430359,0.14253078278094672
31.944238901138306,0.14281101361991855
32.05049681663513,0.14221748499828393
32.15688705444336,0.14289185587288797
32.26222491264343,0.142743992302565
32.36813235282898,0.14264128430241504
32.47409749031067,0.14261644832788664
32.580005168914795,0.14122029466298064
32.68592119216919,0.14236603613343696
32.7918164730072,0.14221755906318806
32.89774179458618,0.14199527890088295
33.00362157821655,0.14250156767228095
33.10952639579773,0.14228519758586478
33.21549153327942,0.14222392786001412
33.321495056152344,0.14239969471492814
33.427393674850464,0.14239824783643396
33.53329110145569,0.1424107388955361
33.63931632041931,0.14273283067492182
33.74525737762451,0.14236750581231794
33.851158618927,0.14271806769049836
33.95702075958252,0.14259500510051018
34.06290316581726,0.14247613902161022
34.16686201095581,0.1427581054252151
34.27135729789734,0.14310263897995049
34.37731409072876,0.14236696366499596
34.48330855369568,0.14270097422264608
34.589189529418945,0.1424038695749879
34.695136308670044,0.14247707421312733
34.801031827926636,0.14261599333593133
34.90695667266846,0.1427075518836156
35.012810945510864,0.14293280505857697
35.11885190010071,0.14278521575307218
35.224859952926636,0.1428475992379761
35.329371213912964,0.14281229759464897
35.43525695800781,0.14249716647504124
35.54116463661194,0.14259396290794416
35.64705014228821,0.14256553557109658
35.752999782562256,0.1426330321464816
35.858901500701904,0.14279858945859966
35.9648015499115,0.14287561938310941
36.070672035217285,0.14272697752644745
36.17651438713074,0.14257052812700352
36.28242778778076,0.14275328599542286
36.38838720321655,0.14263356643363678
36.49433374404907,0.1426191022390517
36.60022044181824,0.14286139917142487
36.70612549781799,0.14264142061679022
36.812066316604614,0.14260166849124814
36.9179961681366,0.14286763933352634
37.023887634277344,0.14262084608014913
37.12983727455139,0.1426358119933929
37.23512887954712,0.1428655093078549
37.34097671508789,0.14240538160875704
37.44690990447998,0.14261109132389707
37.552794218063354,0.14267785586653586
37.65866279602051,0.14258424507602963
37.76404309272766,0.14255899394519014
37.869932651519775,0.14256360040095553
37.97579026222229,0.14256326479599907
38.081634521484375,0.1424116268675269
38.18745946884155,0.14253895729951946
38.293296098709106,0.14252372423426335
38.399139165878296,0.14252674934837276
38.505038261413574,0.14268288052280906
38.61102223396301,0.14251852239766186
38.71699023246765,0.14241322519102448
38.82286310195923,0.1424964152645733
38.92880630493164,0.14257052812700352
39.03478002548218,0.14266059236474113
39.14070153236389,0.14270721858472235
39.24656009674072,0.14268222079786502
39.35245442390442,0.14262476889169381
39.458409547805786,0.14261142425665846
39.56431174278259,0.1425321148660287
39.67018938064575,0.14263559370399456
39.77615284919739,0.1424133820622353
39.88206386566162,0.1426115805302609
39.9879424571991,0.14247975152835535
40.09390068054199,0.14264380885469788
40.199795722961426,0.14299252302247645
40.30569553375244,0.14249958834295898
40.411558389663696,0.14258946551381232
40.51753258705139,0.14293406845261297
40.62343716621399,0.14257640858028672
40.72939586639404,0.14265537876603732
40.835399866104126,0.142709380285152
40.94135761260986,0.1426755884637991
41.047263383865356,0.14277917604207407
41.153125047683716,0.1427186294191938
41.25903797149658,0.14273476479566724
41.36491131782532,0.14260951081787576
41.470847368240356,0.14263654198892375
41.57684373855591,0.14273462989610564
41.68275570869446,0.14275937529118318
41.788694620132446,0.14265642958264316
41.89466118812561,0.14282687239803893
42.000579595565796,0.14241406242936802
42.10651779174805,0.14299977686096765
42.21238565444946,0.14257653912707519
42.31828570365906,0.14270876828556395
42.42425489425659,0.14277456800470564
42.53027105331421,0.14282748894439123
42.63617706298828,0.14268117254379073
42.74219608306885,0.1432704229711841
42.84808111190796,0.14264638504886737
42.95395755767822,0.14238764518531055
43.05990958213806,0.1427710423321605
43.16503715515137,0.1423545968265959
43.267884731292725,0.1429363964516047
43.37057375907898,0.14274085658919114
43.47323822975159,0.1426107627060798
43.57588768005371,0.14291211633631337
43.67865753173828,0.14260122238363315
43.78142428398132,0.1429870808565851
43.88416385650635,0.14277533318913593
43.98693513870239,0.1430098982103816
44.08968639373779,0.14297776605709286
44.192420959472656,0.1426975344645256
44.29519820213318,0.14273864092525326
44.39796328544617,0.14263446591269416
44.5007221698761,0.14238306069116502
44.60348153114319,0.14286558979431077
44.70625305175781,0.14250922011102246
44.80901885032654,0.14248304859106337
44.91176390647888,0.14278870648648337
45.01449465751648,0.14276241222040603
45.11727476119995,0.14260925678242967
45.22002410888672,0.1425561273257254
45.32279586791992,0.14247037243307906
45.425535678863525,0.14258994827189134
45.52832746505737,0.14263854689210834
45.631054162979126,0.14248758216064597
45.733848094940186,0.14279123470796443
45.83662271499634,0.14252755070017736
45.939377307891846,0.14286952061451713
46.04210114479065,0.14287497949157973
46.144880294799805,0.1427148882892733
46.2476224899292,0.1426117813018746
46.35039258003235,0.14275616799473423
46.453145265579224,0.14257627193594552
46.55593252182007,0.14283178382225686
46.65865993499756,0.14265798636824142
46.76146364212036,0.14238083417493924
46.86418151855469,0.14262186010129949
46.966946840286255,0.14238337814577628
47.06969857215881,0.14275546218437246
47.17249274253845,0.1425923712622262
47.27522134780884,0.14276199966853306
47.37798857688904,0.14256314977963494
47.48075795173645,0.14284559937892763
47.58349323272705,0.14265247833002315
47.68625521659851,0.142682990999926
47.789066553115845,0.1426735980424058
47.891785860061646,0.1427001381050152
47.994510650634766,0.1425364763644225
48.097283124923706,0.14271148549471563
48.2000789642334,0.1424051325504166
48.30591678619385,0.1426156266212988
48.41188716888428,0.14259463971789768
48.51781892776489,0.1424533724200357
48.62378168106079,0.14255026088805817
48.72977614402771,0.1425549046092332
48.835689544677734,0.142563267139122
48.94164562225342,0.14267181347933788
49.0475549697876,0.14256183843198195
49.15348935127258,0.1429589219896216
49.25935912132263,0.1424323580762386
49.36524963378906,0.1424125886274198
49.47112059593201,0.14282231732020104
49.57697153091431,0.14246278909987264
49.68287014961243,0.1423519648792075
49.78880524635315,0.1425045424466946
49.89470362663269,0.14252984243914169
50.00055146217346,0.14251868987803187
50.10644888877869,0.14238957327149726
50.21242547035217,0.14283288359944737
50.31832695007324,0.14241653605054075
50.424184799194336,0.1425923712622262
50.530107498168945,0.14271785956680216
50.636054277420044,0.14251470048146292
50.74095296859741,0.14262747430136222
50.8468451499939,0.14272252691348186
50.95276999473572,0.14254835033797797
51.058640480041504,0.142693838355226
51.16452479362488,0.14289579481957787
51.27038621902466,0.14273263507116574
51.376300573349,0.1425868543520417
51.48231887817383,0.14258644865903045
51.588219165802,0.1426468560314835
51.694180488586426,0.142480990630176
51.800150871276855,0.14255729277246634
51.9060537815094,0.14233090633316064
52.01191568374634,0.1427007164905092
52.11893010139465,0.1426975344645256
52.224766969680786,0.14270656244446916
52.33042883872986,0.14277272570505886
52.436400413513184,0.1426384114864872
52.54237651824951,0.14260282634092178
52.64829063415527,0.14268877994336643
52.75428223609924,0.14239113215879393
52.86015748977661,0.14272404857427948
52.96599507331848,0.14280794661514343
53.07182312011719,0.14286350681324714
53.177653312683105,0.14288930465872035
53.283485651016235,0.1428472874267561
53.38931727409363,0.14261608140794835
53.49513578414917,0.14251326101409115
53.60105657577515,0.1425654578570955
53.70700788497925,0.14241159713892657
53.8129243850708,0.14282033950916645
53.91885042190552,0.1425026699989096
54.02474308013916,0.14276996172673576
54.13059163093567,0.1425865377437214
54.23642587661743,0.14249822498566195
54.342281341552734,0.1422820658086293
54.44814348220825,0.1424302910438894
54.55410623550415,0.14252526193389445
54.66002035140991,0.14257653912707519
54.765933990478516,0.14247621293164117
54.871816635131836,0.14252132350256713
54.97765278816223,0.1426057747124685
55.083529233932495,0.14242690277775874
55.18947768211365,0.14255360003466638
55.295350790023804,0.14254654642701645
55.401207447052,0.14278311664944981
55.5070743560791,0.14258431197581956
55.612979888916016,0.14260247923253644
55.71898078918457,0.1425896851835923
55.82502102851868,0.14262943464538805
55.930954933166504,0.142693838355226
56.03683567047119,0.14271231705916365
56.14269399642944,0.14263947629216003
56.248563289642334,0.14264402020645778
56.35445737838745,0.1426273626080513
56.46034836769104,0.1425896851835923
56.56626486778259,0.14269118615338927
56.672133684158325,0.14265930043248903
56.77807807922363,0.1424403549484935
56.883995056152344,0.14248868194988573
56.98989295959473,0.14257000207451384
57.09575295448303,0.14251754604315722
57.20171809196472,0.1426327744648757
57.3070924282074,0.142524250966072
57.4128098487854,0.142626573207461
57.519124031066895,0.14271156581392705
57.62492322921753,0.14265032858868776
57.730650186538696,0.14260184269049578
57.83656644821167,0.14249761773923472
57.94251894950867,0.14245839517035278
58.048418045043945,0.14257061566282453
58.154011487960815,0.14258349202644993
58.25778293609619,0.14254653671508624
58.362024545669556,0.14263250003432137
58.468064308166504,0.14257994311232322
58.57410287857056,0.14263017821757384
58.680092096328735,0.14250117888685956
58.786102533340454,0.14269727241505104
58.89208436012268,0.1428967687492941
58.998146772384644,0.14250090094324722
59.104185819625854,0.1426596352619719
59.2102153301239,0.14267631442434436
59.31624102592468,0.14259549378162642
59.42231059074402,0.14256520478031595
59.52834606170654,0.14299899223758256
59.63437509536743,0.14236998546503934
59.74042201042175,0.14259158405915803
59.84645485877991,0.14251550671153743
59.95249819755554,0.14268436801162077
60.05851149559021,0.14261015770222749
60.1645143032074,0.14257162547782598
60.271018505096436,0.14259671351479522
60.37753629684448,0.14263580798180744
60.484031200408936,0.14242386883145694
60.59053421020508,0.14242419154812047
60.69705939292908,0.14245853527013772
60.80362510681152,0.14226815918357422
60.910094261169434,0.142678253062357
61.016611099243164,0.1423749911299086
61.1213104724884,0.14283256319720905
61.22726368904114,0.14294036289016676
61.333221435546875,0.1424775154019207
61.43917465209961,0.14289117672026042
61.54515314102173,0.14263828094278178
61.65054988861084,0.1426549486345988
61.75651526451111,0.14258643724339348
61.86252427101135,0.14266390319610828
61.96847057342529,0.14249946900139432
62.07448863983154,0.1425195933009847
62.18011784553528,0.14256302876726565
62.28602910041809,0.14234563256323446
62.39200139045715,0.1426286059330827
62.49796795845032,0.14246023859827783
62.60391449928284,0.1425629933590822
62.70988845825195,0.14244319927382387
62.815807580947876,0.14261355647681923
62.92173385620117,0.14258349202644993
63.027634143829346,0.142471405001774
63.13352704048157,0.14247763811754374
63.23940658569336,0.14251467356450237
63.345353841781616,0.14261914161645425
63.45134162902832,0.1426351325570563
63.55734324455261,0.14252056921169073
63.663355350494385,0.14268126053199048
63.769370555877686,0.14248729056431783
63.87534761428833,0.14250442801250487
63.98133420944214,0.14283309675530956
64.08738970756531,0.1425329835294185
64.19331097602844,0.14257908798449348
64.2992811203003,0.1425345855923453
64.40523386001587,0.14284821385684124
64.5113410949707,0.14250001746971624
64.61724185943604,0.14265247833002315
64.72317218780518,0.1426637049458075
64.82909226417542,0.1427716442214073
64.93499398231506,0.14286436954125895
65.04088306427002,0.14276093277436608
65.14708471298218,0.14269118615338927
65.25300598144531,0.14274612111999796
65.35895943641663,0.14271400099012518
65.46486043930054,0.14288253644174018
65.57079362869263,0.14272956704846299
65.67670130729675,0.14257378085356237
65.7826828956604,0.14264622872693147
65.88866329193115,0.14265255196873225
65.99460458755493,0.14279272220376585
66.10051584243774,0.1428948478059224
66.20639276504517,0.14273784358939953
66.3123037815094,0.14290320894056147
66.41822075843811,0.1425381490257159
66.52416491508484,0.1428475750799733
66.63010382652283,0.1426745721030993
66.73605394363403,0.14264923588912648
66.84202003479004,0.1429508423988033
66.94834351539612,0.14284028143721583
67.05464124679565,0.14261572906715153
67.16040515899658,0.14275043953801053
67.2661144733429,0.14281912654796103
67.37212038040161,0.1425685592145702
67.47853803634644,0.14272263828198534
67.5844714641571,0.14256905475274745
67.69035649299622,0.14299563576909718
67.7962851524353,0.1427307251627687
67.9021999835968,0.1426468560314835
68.00802946090698,0.14284821385684124
68.11384558677673,0.142672106680728
68.21969532966614,0.14246937489050301
68.32556796073914,0.14251395695231886
68.43143558502197,0.14259316237269815
68.53735208511353,0.1424973636922734
68.64339661598206,0.1427230630757438
68.7493884563446,0.14248729056431783
68.85537385940552,0.14252147635753998
68.96136116981506,0.14269528927700192
69.06734418869019,0.1424428244925695
69.17321610450745,0.14253107917439284
69.27905130386353,0.1425345855923453
69.3850085735321,0.14257777781080339
69.49091625213623,0.14264402020645778
69.59682393074036,0.14255931525196608
69.70271277427673,0.14269805394975474
69.80857419967651,0.14264645342247123
69.91451025009155,0.14254615942228627
70.02032399177551,0.14279350757336814
70.12620735168457,0.14245566246303978
70.23205995559692,0.14265673426637376
70.33792757987976,0.14261857927306926
70.44375824928284,0.142470224924426
70.54961442947388,0.14262396457518997
70.65554976463318,0.14260184269049578
70.76150345802307,0.14253895729951946
70.86739253997803,0.14242695353022705
70.973228931427,0.14250425500027497
71.07906293869019,0.1424205098700967
71.18491959571838,0.14290241250203387
71.29077291488647,0.1425789320492463
71.39669108390808,0.1422728299506954
71.50257658958435,0.14256065840599594
71.60847210884094,0.14308301460221126
71.71442914009094,0.1425814467348557
71.82044649124146,0.14288661415173634
71.92639541625977,0.1424203942280966
72.03205108642578,0.14278410669829383
72.13742280006409,0.14259218976793664
72.24338841438293,0.1424064373096397
72.34923839569092,0.14298839223829735
72.45517492294312,0.14256749324880724
72.56114053726196,0.1426109525790621
72.6670732498169,0.14292613660628464
72.77303433418274,0.14255725858412202
72.87897753715515,0.1428789749111358
72.98487877845764,0.14279431525256878
73.09073901176453,0.14272537623966772
73.1947569847107,0.14272911593491697
73.2984356880188,0.14275617893697573
73.40433096885681,0.14260025929809034
73.51025390625,0.14255668838456517
73.61629009246826,0.14264691656653705
73.72235918045044,0.1424701528867084
73.82830500602722,0.1432797881672031
73.93430614471436,0.14314397091990294
74.04027247428894,0.14215253219364177
74.14621210098267,0.14309864830498895
74.25214338302612,0.14317543555993023
74.35810589790344,0.14291648737224744
74.46405673027039,0.14253217515890987
74.57000946998596,0.14307826560389297
74.67594909667969,0.1424035481302981
74.78190541267395,0.1403486907504659
74.88784837722778,0.14070595561471602
74.99379444122314,0.14324204394744744
75.0997953414917,0.1478348277853445
75.20577907562256,0.12073048300121947
75.31173849105835,0.07398473046305698
75.41774153709412,0.060220726456068796
75.52368021011353,-0.01728717772189725
75.62960934638977,0.013107723717881825
75.73555827140808,0.03698613912696036
75.84153509140015,-0.06788810493290942
75.94747710227966,-0.06584670628084854
76.05340123176575,-0.08269566459207311
76.15944623947144,-0.08843033179470083
76.26536011695862,-0.08366676897315095
76.37138795852661,-0.10786271450940621
76.47733855247498,-0.0986017583323262
76.583336353302,-0.07784349672269197
76.68867492675781,-0.0710134725006597
76.79466342926025,-0.05298791141240322
76.90067410469055,-0.08323283834312267
77.00663995742798,-0.062022527479403955
77.11122488975525,-0.06668540385042476
77.21609616279602,-0.0816876568712015
77.32206201553345,-0.08006538886431169
77.42803239822388,-0.08169024722117868
77.53260922431946,-0.06850916425049114
77.63852429389954,-0.08431755749439862
77.74448704719543,-0.08136781733870269
77.85041689872742,-0.09501233729446312
77.95633888244629,-0.06901830577038481
78.06226253509521,-0.08529439663201366
78.16815042495728,-0.06484160848664988
78.27405405044556,-0.09491505846581028
78.37998676300049,-0.12353680311770265
78.48591351509094,-0.1590998664350156
78.59199094772339,-0.19861309820044326
78.69830989837646,0.017907006867223352
78.80279779434204,0.12773402189718208
78.90878582000732,0.08522810717444873
79.01469135284424,0.14156373038602976
79.12059593200684,0.14642450632725384
79.22652411460876,0.1409361047091245
79.33239650726318,0.13454191952218958
79.43832278251648,0.14264645342247123
79.54421019554138,0.14257713507888775
79.65005850791931,0.14296220260439257
79.75594449043274,0.14261353243988115
79.86182689666748,0.14249484639896376
79.96769905090332,0.1428581827032581
80.0743260383606,0.14251235747174817
80.180832862854,0.1426396748574914
80.28745079040527,0.1429219241754001
80.3938057422638,0.1426224862475946
80.50025677680969,0.14254332297382186
80.60670685768127,0.14286974806088085
80.71360158920288,0.14278307074613755
80.8201162815094,0.14284386623603854
80.92644166946411,0.14288684115837672
81.03286266326904,0.14266957504217492
81.13921642303467,0.1430036626230545
81.24557304382324,0.14256048854520081
81.35213947296143,0.14258387874544362
81.45854377746582,0.14274197335987995
81.56490993499756,0.142394211635742
81.67169284820557,0.14284688093561526
81.7780749797821,0.14243063191080424
81.88450527191162,0.14291648305675567
81.99088072776794,0.14298436354988142
82.09756731987,0.1423930578375852
82.20317792892456,0.14271147852309396
82.30858969688416,0.1427037724439654
82.41459321975708,0.14251819895226933
82.52050614356995,0.14241473189636653
82.62635016441345,0.14244366588740162
82.73166728019714,0.14278625799252276
82.83753299713135,0.1424657045766668
82.94348168373108,0.14277744376863521
83.04939699172974,0.14271177077462133
83.15540432929993,0.14276333050793574
83.26125431060791,0.1427123654495065
83.36715698242188,0.14289568857852492
83.47306370735168,0.14265636785282484
83.57906460762024,0.14263418618947163
83.6850335597992,0.14281272197839576
83.79091548919678,0.14273877087116843
83.89658069610596,0.14262708212662326
84.00258278846741,0.1424336407231973
84.10849046707153,0.14284757964741782
84.21438193321228,0.14264923588912648
84.32032513618469,0.14261353243988115
84.42629814147949,0.14297817466283783
84.53219938278198,0.14251326750782728
84.63808941841125,0.14267619427311942
84.74400687217712,0.14312516502697606
84.84960222244263,0.14246154602560918
84.95492720603943,0.14265185141107256
85.06077909469604,0.14266535400916233
85.16668891906738,0.1428487824848373
85.27256226539612,0.14253354873538404
85.37852597236633,0.14254515747040064
85.48439359664917,0.14276597840554806
85.5902955532074,0.1425801913101478
85.6961989402771,0.14270206482104844
85.80211067199707,0.14253439617955974
85.90795803070068,0.14247501229348433
86.01386833190918,0.14261875321528614
86.11971759796143,0.14261379929055393
86.22560548782349,0.14249212965999986
86.33148264884949,0.14269932863103402
86.43732142448425,0.14264110324309037
86.54324579238892,0.14252203177461564
86.64917635917664,0.14247348418526629
86.75512862205505,0.14246065842409278
86.86097526550293,0.1425596789289094
86.96688652038574,0.14268487138428057
87.07282996177673,0.14246480942411494
87.17873978614807,0.14252185668275932
87.28460359573364,0.14276908864219187
87.3905553817749,0.1424789830708338
87.49644088745117,0.14258868061435717
87.60228705406189,0.1426048987451055
87.70816707611084,0.14253003590474297
87.81407618522644,0.14245066344493154
87.91994214057922,0.14259206853261733
88.0258150100708,0.14259592784695072
88.13439416885376,0.14258644865903045
88.2389907836914,0.14243855089278487
88.34287571907043,0.1424909234298706
88.44880676269531,0.14253296315603833
88.55479192733765,0.14250919740991264
88.66077947616577,0.14252373155535233
88.76618790626526,0.1427210399791976
88.87212252616882,0.14256810852467885
88.97811245918274,0.14267673128433064
89.08412504196167,0.14248729056431783
89.19014263153076,0.14247763811754374
89.29610419273376,0.14244491718458888
89.40212488174438,0.14244825359697813
89.50812673568726,0.1427230630757438
89.61414122581482,0.14259098475072712
89.72015118598938,0.14257499758749495
89.82634472846985,0.1426235957751889
89.93060517311096,0.14259613280855105
90.03652381896973,0.1425868543520417
90.14254856109619,0.14252784849808636
90.2485523223877,0.14255271966452096
90.35456442832947,0.14276050272530433
90.46054458618164,0.14258099620669673
90.56657099723816,0.14264918914772398
90.67255449295044,0.14270645985458108
90.7786374092102,0.14247899939352743
90.88432002067566,0.14265636785282484
90.9903769493103,0.1424941958094047
91.0963442325592,0.14256920839383638
91.2023401260376,0.14259845082426065
91.30830955505371,0.14266166099282765
91.414315700531,0.1426128660499893
91.5203685760498,0.1427859486119497
91.62582588195801,0.14271217612231127
91.73197293281555,0.14247348418526629
91.83798599243164,0.14253045882447046
91.94394445419312,0.14252417128459993
92.04994678497314,0.14262773066112108
92.15490961074829,0.14248645146964228
92.26027274131775,0.14282033950916645
92.3662600517273,0.1425477101555107
92.47229480743408,0.14292260066566348
92.57523107528687,0.1425985750624447
92.67798614501953,0.14277363910512308
92.78074049949646,0.14308076035138842
92.88348722457886,0.14243939416213935
92.9862551689148,0.14301265393895227
93.08901977539062,0.1426400115688222
93.19176602363586,0.14250472523375635
93.29450798034668,0.1428072438919516
93.3972761631012,0.14283971287358754
93.50002551078796,0.1424757072544823
93.60280680656433,0.1429796536941811
93.70558857917786,0.14285642019064107
93.80832552909851,0.14263025083066247
93.911048412323,0.14261384345199696
94.01382994651794,0.14251610394431535
94.11659097671509,0.14263418618947163
94.21935892105103,0.14261433668609214
94.32211923599243,0.14249831746019972
94.42488121986389,0.14253163678367908
94.52764630317688,0.14250449130021925
94.63038396835327,0.14259794910399373
94.73316168785095,0.14247556189260574
94.83590841293335,0.1426273626080513
94.93867444992065,0.14237576372904426
95.04141068458557,0.14259034573648405
95.14419651031494,0.14239401522706585
95.24694514274597,0.14263984856438258
95.34971976280212,0.1424005171967255
95.45245504379272,0.1425497624467883
95.55523180961609,0.14242894238940293
95.65801167488098,0.1425323989605572
95.76076912879944,0.14259763403404382
95.86350655555725,0.1425394323914027
95.96627807617188,0.1425620635755262
96.06903219223022,0.1428161268294387
96.17181134223938,0.14255490511245544
96.27453970909119,0.1425465040377577
96.37731051445007,0.14254513750424305
96.48005652427673,0.1425329835294185
96.58284902572632,0.1425199822759473
96.68558263778687,0.1425329835294185
96.78836369514465,0.14265159706778344
96.891104221344,0.1426785861824076
96.99388289451599,0.14260000747849375
97.09663248062134,0.1424391758621708
97.19930696487427,0.1426033070207959
97.30194187164307,0.14272928659114387
97.40459942817688,0.1425874225347868
97.50724673271179,0.1425429444779325
97.61308550834656,0.14270645985458108
97.71908640861511,0.14238767257676727
97.82511901855469,0.14261102204117818
97.93114495277405,0.14262990661863872
98.03708076477051,0.14249474326004075
98.14301085472107,0.14285419502424168
98.24897336959839,0.14250925111244583
98.35492181777954,0.14276241222040603
98.46082878112793,0.14260898717800938
98.56682014465332,0.1426351325570563
98.67299199104309,0.142471908581687
98.77911353111267,0.14259987878087452
98.88512206077576,0.14254730312664665
98.9911241531372,0.142469422907511
99.09707713127136,0.14268575055651572
99.20307469367981,0.1425474507364145
99.30900645256042,0.1428006041301701
99.41501307487488,0.14269863322342421
99.5209710597992,0.14263066916712772
99.62693214416504,0.14234045369783427
99.73294186592102,0.14260589239883117
99.83892607688904,0.1425125959685928
99.94488596916199,0.14243521647620527
100.05084753036499,0.14263288723930226
100.15680193901062,0.1425874602625347
100.26273798942566,0.14270350210678004
100.36868262290955,0.14262215150676774
100.4745934009552,0.14246253872460363
100.58058619499207,0.14248683706057277
100.68651270866394,0.14281908434816576
100.79244470596313,0.14251492984901562
100.89835500717163,0.14251467356450237
101.00424766540527,0.14270410765223415
101.1102774143219,0.14237685920445103
101.21311593055725,0.1424562652389801
101.31579303741455,0.14261142425665846
101.41846489906311,0.1423197346973917
101.52113771438599,0.14234955126694468
101.6238305568695,0.1427613632114621
101.72651720046997,0.14265625317263947
101.82915091514587,0.14261717089018833
101.93175530433655,0.14253768440091125
102.03436923027039,0.14272252691348186
102.13695693016052,0.1425642180860796
102.23958921432495,0.14256362817797028
102.3421835899353,0.14282375769758038
102.44482350349426,0.1422824773981688
102.54745745658875,0.14254260450218634
102.6500654220581,0.14237258370880826
102.75273013114929,0.14316711743641358
102.85537481307983,0.14256612463581236
102.95798015594482,0.14277456800470564
103.06057476997375,0.14257941658374682
103.16332745552063,0.14254924426842575
103.26602935791016,0.14294749469364573
103.36870980262756,0.14245096276760108
103.47140288352966,0.14274159841385065
103.57406854629517,0.14234055574897186
103.6767406463623,0.14247950742031307
103.77941751480103,0.14274934012582835
103.88207697868347,0.142252424258551
103.98472213745117,0.14269042233620838
104.08736681938171,0.1424249530809926
104.18999457359314,0.14259368899420807
104.29261755943298,0.14258994827189134
104.39526176452637,0.1427176468121361
104.49791550636292,0.14260309692104864
104.6005699634552,0.14253235137126202
104.70331001281738,0.14262995377540325
104.80604815483093,0.14274018994866186
104.90883278846741,0.1425135175315821
105.01156568527222,0.14276851442842545
105.1143102645874,0.14247501229348433
105.21708989143372,0.142417140104975
105.31983041763306,0.14248618133551993
105.42260956764221,0.14243969344319118
105.52535009384155,0.14262515422010721
105.6281898021698,0.1428223111695996
105.73090410232544,0.1427086423596983
105.83365368843079,0.14248482989414615
105.93640089035034,0.14263692391135374
106.03916001319885,0.14251940593140838
106.14192295074463,0.14204509036577628
106.24779009819031,0.14226130516486074
106.35373115539551,0.142430815266444
106.45967531204224,0.14247596971648013
106.56564688682556,0.14279834551429516
106.67160654067993,0.14279566502007185
106.77756381034851,0.14260184269049578
106.88353323936462,0.14256568741225753
106.98957681655884,0.14276709724244863
107.09466671943665,0.1423785544047495
107.200936794281,0.1425264797279622
107.30731630325317,0.14269570785504143
107.41364002227783,0.1427338978081756
107.51957845687866,0.142712704105226
107.62551522254944,0.14287338826863305
107.73143529891968,0.14250442801250487
107.837317943573,0.14257315353001082
107.94333744049072,0.14296156011291114
108.04922461509705,0.14244422874044738
108.15508008003235,0.14319392422715194
108.26096749305725,0.1423869923730337
108.36687397956848,0.1425948794472087
108.47273397445679,0.1425528102161768
108.57863545417786,0.1430514662488349
108.68463182449341,0.1426189068379875
108.79058694839478,0.1425026699989096
108.89647054672241,0.14260879554269668
109.00232315063477,0.14278625260690053
109.10815668106079,0.14267129502309708
109.21410608291626,0.14255485934507195
109.31998777389526,0.14275326609914224
109.42592287063599,0.1425890170990234
109.53179621696472,0.14270311908095062
109.63764953613281,0.14259505483836696
109.74354767799377,0.14248619139021107
109.84941816329956,0.14273507289287807
109.95533800125122,0.14260450333924893
110.06118059158325,0.1426537189082996
110.16707849502563,0.14243987297272945
110.27297115325928,0.14275002201692166
110.37887501716614,0.1428082665828102
110.48473024368286,0.14267340359890338
110.5908317565918,0.1428114311130614
110.69678163528442,0.1425263668226996
110.80333685874939,0.14278162900836397
110.90971326828003,0.14240537586783336
111.01605534553528,0.14271458671813697
111.12240648269653,0.14261016886610584
111.22872424125671,0.1423277841925042
111.3350944519043,0.1429048485651111
111.44150471687317,0.14237671090253118
111.5479006767273,0.14253904984614135
111.65432572364807,0.14278374636689217
111.76067471504211,0.14229342132473038
111.8670506477356,0.14260433740583328
111.97331809997559,0.1428313166426431
112.07987976074219,0.14250031955064152
112.18587017059326,0.14262553681609122
112.29221200942993,0.14262356701078244
112.39857983589172,0.14264645342247123
112.50451731681824,0.14252730737100097
112.61043167114258,0.1422288492173806
112.71642684936523,0.14283170738534168
112.82237195968628,0.14251940768350854
112.9282898902893,0.14259927599776942
113.03461575508118,0.14257117708936254
113.14053559303284,0.14301501648641798
113.24649858474731,0.14289694723021737
113.35243821144104,0.1428660117709405
113.4583477973938,0.1425512503395865
113.56425285339355,0.14268202923734735
113.670334815979,0.14259466502308385
113.77635645866394,0.14271384548702082
113.88228487968445,0.14260040581229252
113.98822283744812,0.14242822264187124
114.09414267539978,0.142606567328831
114.20008945465088,0.14242952096343184
114.30602383613586,0.1424344237326701
114.41200160980225,0.14243226919567809
114.51795887947083,0.14248311672611122
114.62391424179077,0.14246997185065757
114.72991299629211,0.14242530214651122
114.83589458465576,0.1426662915679929
114.94182848930359,0.1423203254832185
115.04774117469788,0.142681023817136
115.1536431312561,0.14235823369904788
115.25957775115967,0.1426034548638445
115.36556196212769,0.14253738036338306
115.47149848937988,0.14255829487112973
115.57752799987793,0.14269787364600886
115.68354535102844,0.14266484848652208
115.7895143032074,0.14270907648324666
115.89545321464539,0.14273066834444767
116.00136685371399,0.1427590901288642
116.10737991333008,0.14276320040164722
116.21331930160522,0.14244755347794646
116.31928658485413,0.14263483972937632
116.42522501945496,0.14257701258334982
116.5312397480011,0.14232886520375965
116.6372537612915,0.14270236268985337
116.74329257011414,0.1424514321708878
116.8492283821106,0.14266129219813958
116.95512962341309,0.14248849693150104
117.0610740184784,0.14243079787089138
117.16702246665955,0.1426598209349776
117.2723240852356,0.14248986524618085
117.37824058532715,0.142697864913527
117.48418545722961,0.14252962261293753
117.58958125114441,0.14258247969938487
117.69516062736511,0.14242368469490052
117.8010675907135,0.1424820870492182
117.90702700614929,0.14252858048648476
118.01288104057312,0.14234131220231283
118.11876368522644,0.14239537933605725
118.22268676757812,0.142512053554621
118.32634210586548,0.1425134709687735
118.43227672576904,0.1424675180529936
118.53831219673157,0.14249212007910964
118.6436870098114,0.14263200627817915
118.74965810775757,0.142615458975728
118.85563635826111,0.14241322519102448
118.96160197257996,0.14255684878212666
119.0675356388092,0.1425438867622154
119.17351841926575,0.14244203329290256
119.27946758270264,0.142200603484147
119.38594961166382,0.14269766707100348
119.49247002601624,0.14234961458473724
119.59925580024719,0.14254165263304724
119.70573711395264,0.1425549046092332
119.81219267845154,0.14243607405884065
119.91859984397888,0.14256742959763544
