time,ax_raw,ay_raw,az_raw,ax,ay,az,gx,gy,gz
0.000662,-0.069456,0.025148,10.044113,-0.003288,0.001504,-0.006941,-0.030518,0.030518,0.000000
0.010731,-0.062869,0.024549,10.043514,0.003298,0.000906,-0.007540,-0.030518,0.061035,0.000000
0.020797,-0.064067,0.026944,10.048304,0.002101,0.003301,-0.002750,0.000000,0.030518,0.000000
0.030863,-0.056882,0.021555,10.046508,0.009286,-0.002088,-0.004546,-0.030518,0.030518,-0.061035
0.040927,-0.060474,0.020358,10.047706,0.005693,-0.003286,-0.003349,-0.030518,0.030518,-0.030518
0.050994,-0.061672,0.014370,10.042916,0.004496,-0.009273,-0.008139,-0.030518,0.030518,-0.030518
0.061059,-0.064666,0.014969,10.039323,0.001502,-0.008674,-0.011731,-0.030518,0.000000,0.000000
0.071146,-0.069456,0.014370,10.046508,-0.003288,-0.009273,-0.004546,-0.030518,0.030518,0.000000
0.081244,-0.066462,0.015568,10.046508,-0.000294,-0.008076,-0.004546,-0.030518,0.030518,0.000000
0.091340,-0.067659,0.014370,10.047706,-0.001492,-0.009273,-0.003349,-0.030518,0.000000,0.000000
0.101432,-0.068857,0.021555,10.044113,-0.002689,-0.002088,-0.006941,-0.030518,0.000000,0.030518
0.111529,-0.069456,0.019759,10.040521,-0.003288,-0.003884,-0.010534,-0.030518,0.000000,0.030518
0.121628,-0.068258,0.024549,10.045311,-0.002090,0.000906,-0.005744,-0.061035,0.000000,0.000000
0.131723,-0.067061,0.025148,10.045909,-0.000893,0.001504,-0.005145,-0.061035,0.000000,0.000000
0.141824,-0.064067,0.031734,10.040521,0.002101,0.008091,-0.010534,-0.061035,0.000000,0.000000
0.151916,-0.067659,0.033530,10.042317,-0.001492,0.009887,-0.008737,-0.030518,-0.030518,0.000000
0.162005,-0.065863,0.033530,10.041718,0.000305,0.009887,-0.009336,0.000000,0.030518,-0.030518
0.172096,-0.067061,0.035925,10.051897,-0.000893,0.012282,0.000843,0.030518,0.030518,-0.030518
0.182195,-0.064067,0.031734,10.050699,0.002101,0.008091,-0.000355,0.030518,0.000000,-0.030518
0.192292,-0.067061,0.022753,10.052496,-0.000893,-0.000891,0.001442,0.000000,0.030518,0.000000
0.202389,-0.070653,0.022154,10.051897,-0.004485,-0.001489,0.000843,-0.030518,0.030518,-0.030518
0.212486,-0.075443,0.029339,10.049502,-0.009275,0.005696,-0.001552,-0.030518,0.061035,-0.030518
0.222582,-0.070653,0.031135,10.048903,-0.004485,0.007492,-0.002151,-0.030518,0.030518,-0.030518
0.232679,-0.068857,0.033530,10.048903,-0.002689,0.009887,-0.002151,0.000000,0.030518,0.000000
0.242776,-0.060474,0.032932,10.050699,0.005693,0.009288,-0.000355,0.000000,0.030518,0.000000
0.252873,-0.053888,0.034129,10.050101,0.012280,0.010486,-0.000954,-0.030518,0.000000,0.000000
0.262969,-0.050894,0.033530,10.054292,0.015273,0.009887,0.003238,-0.030518,0.030518,0.000000
0.273059,-0.054487,0.026345,10.050699,0.011681,0.002702,-0.000355,-0.030518,0.030518,0.000000
0.283150,-0.059277,0.029339,10.052496,0.006891,0.005696,0.001442,-0.030518,0.030518,0.030518
0.293240,-0.059875,0.028141,10.049502,0.006292,0.004498,-0.001552,-0.061035,0.000000,0.000000
0.303330,-0.061672,0.022753,10.043514,0.004496,-0.000891,-0.007540,-0.061035,0.000000,0.000000
0.313420,-0.064067,0.021555,10.041119,0.002101,-0.002088,-0.009935,-0.030518,0.000000,-0.030518
0.323507,-0.065863,0.020956,10.048903,0.000305,-0.002687,-0.002151,-0.030518,0.000000,-0.030518
0.333598,-0.069456,0.025148,10.047107,-0.003288,0.001504,-0.003947,-0.030518,0.000000,-0.030518
0.343689,-0.076042,0.022154,10.048304,-0.009874,-0.001489,-0.002750,-0.030518,0.030518,-0.030518
0.353779,-0.076641,0.026345,10.045311,-0.010473,0.002702,-0.005744,-0.061035,0.030518,0.000000
0.363869,-0.077838,0.028740,10.047706,-0.011670,0.005097,-0.003349,-0.030518,0.030518,0.000000
0.373962,-0.067659,0.016166,10.047107,-0.001492,-0.007477,-0.003947,0.030518,0.000000,-0.030518
0.384058,-0.064666,0.013771,10.046508,0.001502,-0.009872,-0.004546,0.030518,0.000000,-0.030518
0.394156,-0.068258,0.010778,10.048903,-0.002090,-0.012866,-0.002151,0.000000,0.030518,-0.061035
0.404252,-0.068857,0.013771,10.038126,-0.002689,-0.009872,-0.012929,-0.030518,0.030518,-0.061035
0.414350,-0.062271,0.017364,10.035132,0.003897,-0.006279,-0.015922,0.000000,0.000000,-0.030518
0.424447,-0.066462,0.010179,10.036928,-0.000294,-0.013465,-0.014126,-0.030518,0.000000,-0.030518
0.434544,-0.065863,0.016166,10.039922,0.000305,-0.007477,-0.011132,-0.061035,-0.030518,-0.030518
0.444640,-0.078437,0.017364,10.035132,-0.012269,-0.006279,-0.015922,-0.061035,-0.030518,-0.030518
0.454738,-0.074246,0.016765,10.038126,-0.008078,-0.006878,-0.012929,-0.061035,-0.030518,0.000000
0.464835,-0.064666,0.023351,10.045311,0.001502,-0.000292,-0.005744,-0.061035,0.000000,-0.061035
0.474932,-0.061073,0.026944,10.048304,0.005095,0.003301,-0.002750,-0.030518,-0.030518,-0.061035
0.485025,-0.058079,0.023950,10.045311,0.008088,0.000307,-0.005744,0.000000,0.000000,-0.030518
0.495122,-0.065264,0.029339,10.038126,0.000903,0.005696,-0.012929,-0.030518,0.061035,-0.030518
0.505219,-0.068857,0.029938,10.030342,-0.002689,0.006294,-0.020712,-0.030518,0.061035,-0.030518
0.515317,-0.064067,0.025148,10.043514,0.002101,0.001504,-0.007540,0.000000,0.030518,0.000000
0.525415,-0.058678,0.028141,10.047107,0.007490,0.004498,-0.003947,0.000000,0.061035,0.000000
0.535527,-0.059277,0.034728,10.040521,0.006891,0.011084,-0.010534,0.061035,0.000000,0.000000
0.545625,-0.059875,0.032932,10.041119,0.006292,0.009288,-0.009935,0.030518,0.000000,0.000000
0.555722,-0.058678,0.034129,10.040521,0.007490,0.010486,-0.010534,0.061035,0.030518,0.000000
0.565820,-0.061073,0.031734,10.042916,0.005095,0.008091,-0.008139,0.061035,0.030518,0.000000
0.575909,-0.058079,0.025746,10.039922,0.008088,0.002103,-0.011132,0.061035,0.030518,0.030518
0.585999,-0.069456,0.026944,10.041718,-0.003288,0.003301,-0.009336,0.030518,0.030518,0.030518
0.596090,-0.070054,0.022154,10.042317,-0.003887,-0.001489,-0.008737,0.030518,0.030518,0.000000
0.606179,-0.070653,0.026944,10.033336,-0.004485,0.003301,-0.017719,0.061035,0.030518,-0.030518
0.616270,-0.069456,0.026345,10.042916,-0.003288,0.002702,-0.008139,0.030518,0.030518,-0.030518
0.626359,-0.067659,0.029339,10.042916,-0.001492,0.005696,-0.008139,0.000000,0.030518,-0.030518
0.636450,-0.065264,0.017364,10.045909,0.000903,-0.006279,-0.005145,0.000000,0.030518,-0.030518
0.646540,-0.062271,0.012574,10.053094,0.003897,-0.011069,0.002040,0.061035,0.030518,-0.030518
0.656630,-0.061073,0.014969,10.042317,0.005095,-0.008674,-0.008737,0.030518,0.000000,0.000000
0.666721,-0.059277,0.016765,10.047107,0.006891,-0.006878,-0.003947,0.030518,-0.030518,0.000000
0.676813,-0.057480,0.013173,10.047107,0.008687,-0.010471,-0.003947,0.000000,0.000000,0.030518
0.686907,-0.059277,0.017364,10.041718,0.006891,-0.006279,-0.009336,0.000000,-0.030518,0.030518
0.697005,-0.062271,0.020358,10.041718,0.003897,-0.003286,-0.009336,-0.030518,-0.030518,0.030518
0.707101,-0.061073,0.029339,10.048903,0.005095,0.005696,-0.002151,0.000000,-0.030518,0.000000
0.717192,-0.067659,0.026345,10.054292,-0.001492,0.002702,0.003238,0.000000,-0.061035,0.000000
0.727288,-0.058678,0.025148,10.062076,0.007490,0.001504,0.011022,0.030518,0.000000,-0.030518
0.737382,-0.059875,0.030536,10.054891,0.006292,0.006893,0.003837,0.030518,0.030518,0.000000
0.747473,-0.062869,0.028740,10.047706,0.003298,0.005097,-0.003349,0.000000,0.000000,-0.030518
0.757567,-0.064666,0.033530,10.050699,0.001502,0.009887,-0.000355,0.000000,0.030518,0.000000
0.767661,-0.066462,0.028740,10.056687,-0.000294,0.005097,0.005633,-0.030518,0.000000,0.000000
0.777751,-0.067659,0.029339,10.059082,-0.001492,0.005696,0.008028,-0.030518,-0.030518,-0.030518
0.787837,-0.064067,0.025148,10.056687,0.002101,0.001504,0.005633,-0.030518,-0.030518,-0.030518
0.797926,-0.064666,0.023950,10.051897,0.001502,0.000307,0.000843,-0.030518,0.000000,-0.061035
0.808012,-0.062271,0.026345,10.053693,0.003897,0.002702,0.002639,-0.030518,0.000000,-0.061035
0.818102,-0.067061,0.019759,10.057286,-0.000893,-0.003884,0.006232,-0.030518,0.000000,-0.030518
0.828189,-0.062869,0.023351,10.057885,0.003298,-0.000292,0.006830,-0.061035,-0.030518,-0.030518
0.838275,-0.056882,0.026345,10.052496,0.009286,0.002702,0.001442,-0.091553,-0.030518,-0.030518
0.848359,-0.058079,0.026345,10.047107,0.008088,0.002702,-0.003947,-0.091553,0.000000,-0.030518
0.858447,-0.056882,0.031734,10.051897,0.009286,0.008091,0.000843,-0.061035,0.000000,-0.091553
0.868534,-0.065863,0.031734,10.064471,0.000305,0.008091,0.013417,-0.091553,0.000000,-0.091553
0.878626,-0.066462,0.032932,10.059082,-0.000294,0.009288,0.008028,-0.091553,0.030518,-0.061035
0.888720,-0.070054,0.031135,10.062076,-0.003887,0.007492,0.011022,-0.030518,0.030518,-0.030518
0.898816,-0.069456,0.026345,10.057286,-0.003288,0.002702,0.006232,0.000000,0.030518,-0.061035
0.908908,-0.068857,0.014969,10.062675,-0.002689,-0.008674,0.011620,-0.030518,0.061035,-0.091553
0.919005,-0.071851,0.019759,10.066267,-0.005683,-0.003884,0.015213,0.000000,0.061035,-0.091553
0.929097,-0.068258,0.016166,10.062076,-0.002090,-0.007477,0.011022,0.030518,0.030518,-0.061035
0.939189,-0.070054,0.016166,10.060280,-0.003887,-0.007477,0.009225,0.000000,0.030518,-0.061035
0.949281,-0.069456,0.022753,10.048903,-0.003288,-0.000891,-0.002151,-0.030518,0.030518,-0.061035
0.959377,-0.065863,0.019759,10.049502,0.000305,-0.003884,-0.001552,-0.030518,0.030518,0.000000
0.969469,-0.065863,0.019160,10.055490,0.000305,-0.004483,0.004435,0.000000,0.061035,0.030518
0.979558,-0.056882,0.023351,10.044712,0.009286,-0.000292,-0.006342,0.000000,0.061035,0.030518
0.989647,-0.066462,0.026345,10.045909,-0.000294,0.002702,-0.005145,-0.030518,0.030518,0.030518
0.999736,-0.067061,0.027543,10.041119,-0.000893,0.003899,-0.009935,-0.061035,0.030518,-0.030518
1.009825,-0.065264,0.031135,10.046508,0.000903,0.007492,-0.004546,-0.030518,0.030518,0.000000
1.019914,-0.062271,0.029938,10.050699,0.003897,0.006294,-0.000355,-0.030518,0.030518,0.030518
1.030001,-0.068258,0.029938,10.043514,-0.002090,0.006294,-0.007540,-0.030518,0.030518,0.000000
1.040092,-0.068857,0.026944,10.042916,-0.002689,0.003301,-0.008139,-0.061035,0.030518,0.000000
1.050180,-0.074844,0.026944,10.052496,-0.008677,0.003301,0.001442,-0.030518,0.061035,0.030518
1.060266,-0.073647,0.018561,10.057286,-0.007479,-0.005082,0.006232,-0.030518,0.061035,0.000000
1.070355,-0.066462,0.017963,10.059082,-0.000294,-0.005681,0.008028,-0.030518,0.030518,0.000000
1.080448,-0.064666,0.014969,10.065070,0.001502,-0.008674,0.014015,-0.030518,0.030518,0.000000
1.090544,-0.068258,0.017364,10.065668,-0.002090,-0.006279,0.014614,-0.061035,0.030518,0.030518
1.100637,-0.070653,0.020956,10.062076,-0.004485,-0.002687,0.011022,-0.061035,0.061035,0.030518
1.110732,-0.067061,0.025148,10.058483,-0.000893,0.001504,0.007429,-0.030518,0.030518,-0.030518
1.120826,-0.064067,0.028141,10.060878,0.002101,0.004498,0.009824,0.000000,0.030518,-0.030518
1.130922,-0.063468,0.023950,10.052496,0.002700,0.000307,0.001442,0.000000,0.030518,-0.030518
1.141019,-0.066462,0.025148,10.054292,-0.000294,0.001504,0.003238,-0.030518,0.030518,-0.030518
1.151115,-0.070054,0.027543,10.062076,-0.003887,0.003899,0.011022,0.000000,0.061035,-0.061035
1.161211,-0.065863,0.028740,10.063273,0.000305,0.005097,0.012219,0.000000,0.061035,0.000000
1.171307,-0.062271,0.026944,10.062675,0.003897,0.003301,0.011620,0.000000,0.061035,0.000000
1.181395,-0.059277,0.028740,10.068063,0.006891,0.005097,0.017009,0.030518,0.030518,0.030518
1.191485,-0.062869,0.029339,10.059681,0.003298,0.005696,0.008627,0.000000,0.030518,0.000000
1.201575,-0.063468,0.031135,10.058483,0.002700,0.007492,0.007429,0.000000,0.000000,-0.030518
1.211665,-0.065264,0.033530,10.056687,0.000903,0.009887,0.005633,0.000000,0.061035,0.000000
1.221755,-0.070653,0.035327,10.054891,-0.004485,0.011683,0.003837,0.000000,0.061035,-0.030518
1.231844,-0.067061,0.023351,10.050699,-0.000893,-0.000292,-0.000355,-0.030518,0.030518,-0.030518
1.241933,-0.063468,0.017364,10.041119,0.002700,-0.006279,-0.009935,0.000000,0.030518,-0.030518
1.252023,-0.067061,0.016166,10.042317,-0.000893,-0.007477,-0.008737,0.000000,0.030518,-0.030518
1.262153,-0.073647,0.021555,10.053094,-0.007479,-0.002088,0.002040,0.000000,0.061035,-0.030518
1.272242,-0.071252,0.023351,10.049502,-0.005084,-0.000292,-0.001552,0.000000,0.061035,0.000000
1.282336,-0.066462,0.019160,10.050699,-0.000294,-0.004483,-0.000355,0.030518,0.030518,0.000000
1.292434,-0.066462,0.019759,10.050699,-0.000294,-0.003884,-0.000355,0.000000,0.030518,0.030518
1.302529,-0.068258,0.013771,10.050101,-0.002090,-0.009872,-0.000954,0.000000,0.030518,-0.030518
1.312626,-0.073048,0.016765,10.047706,-0.006880,-0.006878,-0.003349,0.030518,0.000000,-0.061035
1.322723,-0.071252,0.013173,10.051897,-0.005084,-0.010471,0.000843,0.030518,0.000000,-0.030518
1.332820,-0.075443,0.014370,10.045311,-0.009275,-0.009273,-0.005744,0.000000,-0.030518,-0.030518
1.342916,-0.077838,0.013173,10.044712,-0.011670,-0.010471,-0.006342,0.000000,-0.030518,0.030518
1.353014,-0.068857,0.018561,10.041119,-0.002689,-0.005082,-0.009935,0.000000,0.000000,0.000000
1.363110,-0.067659,0.016765,10.044712,-0.001492,-0.006878,-0.006342,0.000000,0.000000,0.000000
1.373206,-0.071851,0.015568,10.052496,-0.005683,-0.008076,0.001442,-0.030518,-0.030518,0.000000
1.383296,-0.071851,0.020956,10.043514,-0.005683,-0.002687,-0.007540,0.000000,0.000000,-0.030518
1.393386,-0.071851,0.022154,10.039922,-0.005683,-0.001489,-0.011132,0.000000,0.030518,0.000000
1.403477,-0.069456,0.018561,10.044113,-0.003288,-0.005082,-0.006941,0.030518,0.030518,-0.030518
1.413567,-0.067061,0.023950,10.053693,-0.000893,0.000307,0.002639,0.030518,0.030518,-0.030518
1.423656,-0.068857,0.028141,10.059681,-0.002689,0.004498,0.008627,0.030518,0.000000,-0.030518
1.433746,-0.068857,0.029938,10.062076,-0.002689,0.006294,0.011022,0.030518,0.030518,0.000000
1.443835,-0.067659,0.024549,10.056088,-0.001492,0.000906,0.005034,-0.030518,0.000000,-0.030518
1.453924,-0.070653,0.023351,10.059681,-0.004485,-0.000292,0.008627,-0.061035,0.000000,0.000000
1.464014,-0.073647,0.020956,10.060280,-0.007479,-0.002687,0.009225,-0.091553,0.000000,0.000000
1.474105,-0.071252,0.019160,10.060878,-0.005084,-0.004483,0.009824,-0.061035,0.000000,0.000000
1.484198,-0.066462,0.022753,10.061477,-0.000294,-0.000891,0.010423,-0.091553,0.030518,0.030518
1.494294,-0.066462,0.013173,10.054292,-0.000294,-0.010471,0.003238,-0.061035,0.030518,0.030518
1.504391,-0.071851,0.014370,10.054292,-0.005683,-0.009273,0.003238,-0.030518,0.030518,0.000000
1.514489,-0.068857,0.015568,10.060280,-0.002689,-0.008076,0.009225,-0.030518,0.030518,-0.061035
1.524585,-0.068258,0.020358,10.060878,-0.002090,-0.003286,0.009824,-0.061035,0.030518,-0.061035
1.534681,-0.067061,0.017963,10.055490,-0.000893,-0.005681,0.004435,-0.061035,0.030518,-0.030518
1.544777,-0.064067,0.011376,10.056687,0.002101,-0.012267,0.005633,-0.061035,0.061035,-0.030518
1.554873,-0.059875,0.013771,10.054292,0.006292,-0.009872,0.003238,-0.030518,0.061035,0.000000
1.564970,-0.058678,0.023351,10.063273,0.007490,-0.000292,0.012219,0.030518,0.061035,0.000000
1.575067,-0.059277,0.023351,10.059082,0.006891,-0.000292,0.008028,0.000000,0.061035,-0.030518
1.585163,-0.062271,0.018561,10.056088,0.003897,-0.005082,0.005034,0.000000,0.030518,-0.061035
1.595260,-0.068258,0.016765,10.054891,-0.002090,-0.006878,0.003837,0.000000,0.030518,-0.091553
1.605356,-0.067061,0.017963,10.048304,-0.000893,-0.005681,-0.002750,0.000000,0.030518,-0.030518
1.615452,-0.061672,0.017963,10.064471,0.004496,-0.005681,0.013417,0.000000,0.030518,0.000000
1.625549,-0.067061,0.017963,10.064471,-0.000893,-0.005681,0.013417,-0.030518,0.030518,0.000000
1.635646,-0.068258,0.014370,10.058483,-0.002090,-0.009273,0.007429,0.030518,0.061035,0.000000
1.645743,-0.061672,0.014370,10.054891,0.004496,-0.009273,0.003837,0.030518,0.030518,0.030518
1.655839,-0.062869,0.013173,10.057885,0.003298,-0.010471,0.006830,0.030518,0.030518,0.000000
1.665936,-0.061672,0.009580,10.055490,0.004496,-0.014063,0.004435,0.061035,0.030518,-0.030518
1.676032,-0.058678,0.014370,10.060280,0.007490,-0.009273,0.009225,0.030518,0.000000,-0.030518
1.686129,-0.056882,0.013173,10.057286,0.009286,-0.010471,0.006232,0.030518,0.030518,-0.030518
1.696225,-0.060474,0.017963,10.055490,0.005693,-0.005681,0.004435,0.030518,0.030518,0.000000
1.706321,-0.053289,0.018561,10.053094,0.012878,-0.005082,0.002040,0.030518,0.000000,0.000000
1.716418,-0.058079,0.023351,10.062675,0.008088,-0.000292,0.011620,0.030518,0.000000,0.000000
1.726514,-0.064666,0.017963,10.065668,0.001502,-0.005681,0.014614,0.000000,0.030518,0.030518
1.736622,-0.054487,0.021555,10.059681,0.011681,-0.002088,0.008627,0.000000,0.030518,0.030518
1.746722,-0.058079,0.023351,10.051298,0.008088,-0.000292,0.000244,0.000000,0.000000,0.000000
1.756819,-0.052092,0.026345,10.051298,0.014076,0.002702,0.000244,0.030518,0.000000,0.030518
1.766917,-0.053888,0.027543,10.054292,0.012280,0.003899,0.003238,0.030518,0.000000,0.030518
1.777014,-0.060474,0.028740,10.053094,0.005693,0.005097,0.002040,0.061035,0.030518,0.030518
1.787103,-0.064666,0.034129,10.050699,0.001502,0.010486,-0.000355,0.030518,0.030518,0.030518
1.797193,-0.066462,0.034728,10.047706,-0.000294,0.011084,-0.003349,0.030518,0.030518,0.030518
1.807279,-0.061672,0.032333,10.050101,0.004496,0.008689,-0.000954,0.000000,0.061035,0.030518
1.817369,-0.064067,0.030536,10.052496,0.002101,0.006893,0.001442,-0.030518,0.030518,0.030518
1.827455,-0.062271,0.029339,10.053693,0.003897,0.005696,0.002639,0.000000,0.000000,0.030518
1.837543,-0.065264,0.028141,10.053693,0.000903,0.004498,0.002639,0.030518,0.000000,0.091553
1.847630,-0.060474,0.008981,10.057885,0.005693,-0.014662,0.006830,0.061035,0.000000,0.030518
1.857716,-0.052690,-0.024549,10.060280,0.013477,-0.048192,0.009225,0.122070,0.030518,-0.091553
1.867803,-0.020956,-0.162263,10.068662,0.045211,-0.185906,0.017608,0.122070,-0.030518,-1.007080
1.877890,0.017364,-0.338297,10.077643,0.083532,-0.361940,0.026589,0.091553,-0.122070,-2.838135
1.887983,-0.026345,-0.288600,10.144105,0.039822,-0.312243,0.093051,0.549316,-0.335693,-7.965088
1.898075,-0.018561,-0.153880,10.066267,0.047606,-0.177523,0.015213,1.739502,-0.640869,-9.643555
1.908168,-0.077838,-0.055684,10.154883,-0.011670,-0.079328,0.103829,3.875732,-1.037598,-9.704590
1.918263,-0.094005,0.373623,9.953102,-0.027837,0.349980,-0.097952,2.990723,-0.915527,-7.812500
1.928355,-0.105980,0.289199,10.002799,-0.039812,0.265555,-0.048255,1.159668,-0.366211,-4.699707
1.938451,-0.091011,0.198188,10.038724,-0.024843,0.174545,-0.012330,0.885010,-0.213623,-3.631592
1.948544,-0.091011,0.236508,9.997410,-0.024843,0.212865,-0.053644,0.640869,-0.091553,-2.563477
1.958638,-0.092208,0.114362,10.086625,-0.026041,0.090719,0.035571,0.823975,0.061035,-0.335693
1.968732,-0.062869,0.160466,10.012379,0.003298,0.136823,-0.038675,1.037598,0.000000,0.183105
1.978825,-0.073048,0.138312,10.032737,-0.006880,0.114669,-0.018317,-1.037598,0.244141,0.885010
1.988912,-0.085622,0.206570,10.015972,-0.019454,0.182927,-0.035083,-1.342773,0.305176,1.434326
1.998998,-0.123942,0.363444,10.036928,-0.057775,0.339801,-0.014126,-1.800537,0.488281,5.065918
2.009085,-0.106578,0.141905,10.092014,-0.040411,0.118262,0.040959,-2.655029,0.640869,6.378174
2.019172,-0.069456,0.041913,10.090816,-0.003288,0.018270,0.039762,-1.861572,0.549316,7.263184
2.029259,-0.008383,-0.186812,10.075248,0.057785,-0.210455,0.024194,-1.281738,0.457764,6.500244
2.039348,-0.023950,-0.131726,10.071057,0.042217,-0.155369,0.020003,-0.946045,0.427246,5.096436
2.049435,-0.040117,-0.073647,10.060280,0.026051,-0.097290,0.009225,-0.549316,0.244141,3.082275
2.059520,-0.049697,-0.059277,10.065070,0.016471,-0.082920,0.014015,-0.488281,0.183105,2.441406
2.069609,-0.059875,-0.035327,10.068063,0.006292,-0.058970,0.017009,-0.335693,0.152588,1.495361
2.079696,-0.082029,-0.013771,10.062076,-0.015862,-0.037415,0.011022,-0.244141,0.091553,1.159668
2.089790,-0.427511,-0.014969,10.076446,-0.361343,-0.038612,0.025392,-0.122070,0.122070,0.793457
2.099886,-0.755030,-0.217348,10.064471,-0.688862,-0.240991,0.013417,-0.274658,0.030518,-2.197266
2.109979,-0.495769,-0.261057,10.064471,-0.429601,-0.284700,0.013417,0.488281,-0.030518,-4.943848
2.120071,-0.205972,-0.190404,10.088421,-0.139804,-0.214047,0.037367,0.183105,-0.213623,-8.422852
2.130168,-0.157473,0.058678,10.050699,-0.091305,0.035035,-0.000355,0.061035,-0.213623,-8.422852
2.140263,-0.255668,0.040715,10.065070,-0.189501,0.017072,0.014015,0.335693,-0.152588,-7.659912
2.150358,-0.408950,0.068258,10.048304,-0.342782,0.044615,-0.002750,0.274658,-0.183105,-6.835938
2.160454,-0.344284,0.025148,10.057286,-0.278116,0.001504,0.006232,0.091553,-0.122070,-5.310059
2.170549,-0.319136,-0.004191,10.085427,-0.252969,-0.027835,0.034373,0.000000,0.000000,-1.770020
2.180640,-0.322729,-0.002395,10.087822,-0.256561,-0.026038,0.036768,0.335693,0.061035,-0.030518
2.190736,-0.377216,-0.067659,10.073452,-0.311048,-0.091303,0.022398,0.030518,0.122070,4.760742
2.200827,-0.461640,0.041314,10.053693,-0.395472,0.017671,0.002639,0.061035,0.183105,5.310059
2.210920,-0.416733,0.053888,10.065070,-0.350566,0.030245,0.014015,0.305176,0.183105,3.173828
2.221013,-0.410746,0.141306,10.069261,-0.344578,0.117663,0.018207,0.427246,0.213623,1.831055
2.231107,-0.429906,0.144300,10.092612,-0.363738,0.120657,0.041558,0.488281,0.000000,-0.152588
2.241199,-0.677791,0.076641,10.084230,-0.611623,0.052997,0.033176,0.366211,0.091553,-1.647949
2.251295,-0.607137,0.125739,10.096205,-0.540970,0.102095,0.045151,0.213623,0.000000,-3.082275
2.261389,-0.566422,0.119152,10.022558,-0.500254,0.095509,-0.028496,-0.457764,-0.030518,-5.096436
2.271484,-0.675396,0.059277,10.095007,-0.609228,0.035633,0.043953,-0.640869,-0.122070,-5.950928
2.281580,-0.719105,0.005389,10.108779,-0.652937,-0.018255,0.057724,-0.030518,-0.305176,-6.591797
2.291676,-0.564626,-0.263452,10.083631,-0.498458,-0.287095,0.032577,-0.122070,-0.396729,-6.164551
2.301771,-0.593965,-0.163460,10.069261,-0.527797,-0.187103,0.018207,0.091553,-0.183105,-4.364014
2.311868,-0.749042,0.014370,9.964479,-0.682875,-0.009273,-0.086575,0.335693,0.000000,-3.173828
2.321965,-0.543071,-0.010179,10.066866,-0.476903,-0.033822,0.015812,-0.183105,-0.244141,-2.014160
2.332059,-0.767604,0.120350,10.150692,-0.701436,0.096706,0.099637,0.396729,0.030518,0.823975
2.342157,-0.826880,0.049098,10.107581,-0.760713,0.025455,0.056527,0.518799,0.244141,1.647949
2.352255,-0.764011,0.116757,9.984836,-0.697844,0.093114,-0.066218,0.701904,0.854492,1.556396
2.362352,-0.750839,0.124541,10.071057,-0.684671,0.100898,0.020003,-0.122070,1.190186,1.647949
2.372445,-0.507145,0.011975,10.142309,-0.440978,-0.011668,0.091255,-0.366211,0.366211,2.380371
2.382542,-0.869392,-0.048499,10.021959,-0.803224,-0.072142,-0.029095,0.701904,0.152588,1.861572
2.392631,-0.684377,-0.185015,10.026749,-0.618209,-0.208659,-0.024305,1.037598,-0.091553,2.655029
2.402722,-0.784369,0.015568,10.084230,-0.718201,-0.008076,0.033176,-0.549316,-0.366211,3.509521
2.412812,-0.722697,-0.003593,10.200388,-0.656529,-0.027236,0.149334,0.213623,-1.007080,3.723145
2.422901,-0.357457,0.042512,9.844728,-0.291289,0.018868,-0.206326,1.037598,-0.610352,5.310059
2.432991,-0.137714,-0.108375,10.079440,-0.071546,-0.132018,0.028385,-0.427246,-0.244141,7.598877
2.443080,-0.637674,-0.079036,10.257869,-0.571506,-0.102679,0.206814,1.129150,-0.488281,5.035400
2.453169,-0.911305,0.126936,10.091415,-0.845137,0.103293,0.040361,1.007080,-0.610352,2.502441
2.463259,-0.790356,0.047900,10.130334,-0.724189,0.024257,0.079280,2.471924,-0.366211,-0.274658
2.473351,-0.938249,0.326321,10.091415,-0.872081,0.302678,0.040361,0.335693,0.274658,-1.464844
2.483441,-0.900527,0.132924,10.019564,-0.834360,0.109280,-0.031490,0.244141,0.915527,-2.380371
2.493533,-0.724493,0.222737,10.144704,-0.658326,0.199093,0.093650,-3.173828,0.946045,-2.075195
2.503630,-0.753234,0.172441,10.091415,-0.687066,0.148798,0.040361,-2.929688,0.610352,-3.906250
2.513752,-0.583187,-0.064666,10.124945,-0.517020,-0.088309,0.073891,-1.983643,-0.946045,-9.307861
2.523843,-0.715512,0.060474,10.046508,-0.649344,0.036831,-0.004546,-2.288818,-1.312256,-8.880615
2.533940,-0.549657,-0.088616,10.049502,-0.483489,-0.112259,-0.001552,-1.251221,-1.251221,-2.105713
2.544038,-0.533491,-0.016166,10.189611,-0.467323,-0.039810,0.138556,-0.579834,-0.701904,0.152588
2.554134,-0.194595,-0.134720,10.135124,-0.128428,-0.158363,0.084070,-0.518799,-0.366211,2.960205
2.564231,-0.237706,-0.087418,10.114167,-0.171538,-0.111062,0.063113,-0.122070,0.091553,5.126953
2.574327,-0.258662,0.077838,10.029743,-0.192494,0.054195,-0.021311,0.549316,0.579834,5.187988
2.584424,0.014969,0.149090,10.044712,0.081137,0.125447,-0.006342,-0.274658,0.244141,4.974365
2.594516,-0.379611,0.122745,10.111772,-0.313443,0.099101,0.060718,0.885010,0.732422,6.896973
2.604609,-0.594564,-0.191003,10.068063,-0.528396,-0.214646,0.017009,-0.457764,1.800537,8.392334
2.614700,-0.158071,-0.199984,10.059681,-0.091904,-0.223627,0.008627,-0.091553,1.831055,8.911133
2.624790,-0.229922,-0.387394,10.037527,-0.163754,-0.411038,-0.013527,0.701904,1.861572,10.253906
2.634879,-0.342488,-0.028740,9.981843,-0.276320,-0.052384,-0.069212,0.732422,1.831055,11.138916
2.644969,-0.331710,0.105381,10.043514,-0.265543,0.081738,-0.007540,0.152588,1.403809,11.749268
2.655059,-0.282612,-0.010778,10.001003,-0.216445,-0.034421,-0.050051,-1.678467,0.762939,12.786865
2.665149,-0.325723,0.079634,10.072255,-0.259555,0.055991,0.021200,-2.685547,0.396729,11.505127
2.675239,-0.373623,0.144300,10.180629,-0.307455,0.120657,0.129575,-1.678467,0.030518,9.521484
2.685329,-0.345482,0.000000,10.033336,-0.279314,-0.023643,-0.017719,-1.464844,0.122070,8.117676
2.695424,-0.769400,0.237706,10.183623,-0.703232,0.214062,0.132569,-0.823975,-0.061035,7.812500
2.705520,-0.211360,-0.055684,9.998009,-0.145193,-0.079328,-0.053045,2.014160,0.061035,8.850098
2.715616,-0.630489,0.334704,9.983040,-0.564321,0.311061,-0.068014,0.488281,0.183105,7.873535
2.725712,-0.358055,-0.138911,10.048304,-0.291888,-0.162554,-0.002750,1.464844,1.251221,6.195068
2.735808,-0.140109,-0.068857,10.148297,-0.073941,-0.092500,0.097242,2.960205,1.770020,6.927490
2.745905,-0.722098,0.024549,9.898017,-0.655931,0.000906,-0.153037,1.556396,2.044678,2.990723
2.756001,-0.574206,0.096998,10.199191,-0.508038,0.073355,0.148136,1.525879,1.922607,3.143311
2.766097,-0.901725,0.123942,10.308763,-0.835557,0.100299,0.257709,-0.030518,0.823975,1.098633
2.776194,-0.883163,-0.262853,10.048304,-0.816996,-0.286497,-0.002750,-2.380371,-1.251221,1.861572
2.786290,-0.980162,0.040117,10.041119,-0.913994,0.016473,-0.009935,-1.098633,-0.549316,0.274658
2.796386,-0.817300,0.024549,9.771081,-0.751133,0.000906,-0.279973,-1.953125,-0.244141,0.457764
2.806483,-0.358654,-0.525707,9.859098,-0.292487,-0.549350,-0.191956,-2.716064,-0.915527,-0.854492
2.816579,0.099992,0.296384,10.185419,0.166160,0.272740,0.134365,2.136230,0.946045,3.234863
2.826675,-0.848436,-0.124541,10.103390,-0.782268,-0.148184,0.052336,1.983643,0.427246,1.464844
2.836771,-0.450862,0.514330,9.934541,-0.384695,0.490687,-0.116513,0.915527,-0.213623,-0.305176
2.846869,-0.662223,0.059875,10.109377,-0.596055,0.036232,0.058323,-1.800537,-1.159668,-0.488281
2.856965,-0.688568,0.150886,10.381811,-0.622400,0.127243,0.330757,-2.471924,-1.159668,-2.502441
2.867061,-0.301772,-0.312550,9.977651,-0.235605,-0.336193,-0.073403,-0.823975,-1.007080,-3.723145
2.877157,-0.825683,0.165256,9.951905,-0.759515,0.141613,-0.099149,-1.251221,-1.159668,-3.479004
2.887250,-0.425116,0.010179,9.954899,-0.358948,-0.013465,-0.096156,1.831055,0.061035,-1.831055
2.897346,-0.677192,0.251477,9.839938,-0.611024,0.227834,-0.211116,0.244141,0.335693,-0.701904
2.907444,-1.052611,0.191003,9.930948,-0.986443,0.167359,-0.120106,-1.800537,1.159668,0.793457
2.917535,-0.614921,0.129930,9.954300,-0.548754,0.106286,-0.096754,-0.915527,0.732422,-0.488281
2.927631,-0.526904,0.606539,10.073452,-0.460737,0.582895,0.022398,-1.342773,0.640869,-0.854492
2.937742,-0.703537,0.031135,10.223740,-0.637369,0.007492,0.172685,-1.586914,0.213623,-0.061035
2.947834,-0.682581,-0.040715,10.116563,-0.616413,-0.064359,0.065508,0.030518,0.183105,-3.112793
2.957927,-0.678988,-0.062869,9.918973,-0.612820,-0.086513,-0.132081,1.159668,0.335693,-2.319336
2.968024,-0.545466,-0.012574,9.942924,-0.479298,-0.036217,-0.108131,1.464844,0.152588,-1.342773
2.978116,-0.394579,-0.037123,10.157278,-0.328412,-0.060766,0.106224,2.502441,0.183105,-0.213623
2.988210,-0.422721,-0.322130,9.937535,-0.356553,-0.345773,-0.113519,-0.244141,0.244141,2.380371
2.998302,-0.807720,-0.116757,10.025552,-0.741553,-0.140401,-0.025502,-0.030518,0.061035,0.396729
3.008389,-0.253872,-0.102986,10.098600,-0.187704,-0.126629,0.047546,1.708984,0.366211,0.030518
3.018476,-0.742456,-0.191003,10.045909,-0.676288,-0.214646,-0.005145,0.823975,0.518799,3.509521
3.028564,-0.600551,-0.089813,9.977053,-0.534383,-0.113457,-0.074002,0.579834,0.061035,4.089355
3.038652,-0.798739,-0.050295,9.986034,-0.732571,-0.073939,-0.065020,-0.366211,-0.213623,3.814697
3.048739,-0.483195,0.056283,10.274035,-0.417028,0.032640,0.222981,1.922607,-0.122070,5.432129
3.058830,-0.716111,0.141306,10.209968,-0.649943,0.117663,0.158914,3.448486,0.762939,5.310059
3.068916,-0.356259,-0.029339,9.984836,-0.290092,-0.052982,-0.066218,0.732422,1.342773,5.187988
3.079003,-0.456850,0.495769,10.348281,-0.390682,0.472126,0.297226,1.831055,1.373291,0.366211
3.089091,-0.576002,-0.022154,9.980645,-0.509835,-0.045797,-0.070409,1.281738,1.037598,-0.671387
3.099183,-0.887953,0.223934,10.101594,-0.821786,0.200291,0.050539,1.312256,1.586914,-1.556396
3.109277,-0.425715,0.146096,9.888437,-0.359547,0.122453,-0.162617,0.549316,0.762939,-1.068115
3.119371,-0.737067,0.256866,10.078841,-0.670900,0.233223,0.027787,0.183105,-0.427246,-1.770020
3.129463,-0.210762,0.080233,10.058483,-0.144594,0.056590,0.007429,1.495361,-0.762939,-2.258301
3.139555,-0.456850,0.105381,10.063872,-0.390682,0.081738,0.012818,0.885010,0.518799,-2.044678
3.149649,-0.462239,0.213755,10.214758,-0.396071,0.190112,0.163704,0.061035,0.091553,-2.990723
3.159741,-0.446671,0.210163,10.045909,-0.380503,0.186520,-0.005145,-0.305176,-0.061035,-4.211426
3.169834,-0.171244,0.293390,10.057286,-0.105076,0.269747,0.006232,-1.281738,-0.274658,-7.598877
3.179928,-0.179028,0.043709,10.268047,-0.112860,0.020066,0.216993,-1.007080,-0.854492,-9.216309
3.190024,-0.641266,0.351469,10.026151,-0.575099,0.327826,-0.024904,-1.434326,1.190186,-12.603760
3.200116,-0.421523,-0.056283,10.184821,-0.355356,-0.079926,0.133766,-0.488281,0.732422,-13.946533
3.210212,-0.312550,0.123942,10.266850,-0.246382,0.100299,0.215796,-0.396729,0.000000,-16.174316
3.220304,-0.267045,0.022154,10.090816,-0.200877,-0.001489,0.039762,-0.518799,-1.373291,-16.784668
3.230402,-0.645458,0.091609,10.134525,-0.579290,0.067966,0.083471,0.671387,-1.739502,-18.951416
3.240496,-0.065264,-0.176633,10.049502,0.000903,-0.200276,-0.001552,-1.007080,-2.014160,-16.479492
3.250591,-0.431104,0.039518,10.065668,-0.364936,0.015874,0.014614,1.647949,-3.295898,-15.319824
3.260685,-0.361648,-0.400567,10.075248,-0.295480,-0.424210,0.024194,0.915527,-2.227783,-11.840820
3.270781,-0.584385,-0.072449,10.121353,-0.518217,-0.096093,0.070298,-0.610352,-2.075195,-12.451172
3.280874,-0.003593,0.081431,9.781859,0.062575,0.057787,-0.269196,1.098633,0.061035,-12.878418
3.290970,-0.367037,0.008981,10.084828,-0.300869,-0.014662,0.033774,2.471924,0.274658,-16.418457
3.301064,-0.326321,-0.039518,9.850715,-0.260154,-0.063161,-0.200339,0.640869,0.152588,-16.387939
3.311160,-0.241298,0.023351,9.874666,-0.175131,-0.000292,-0.176389,-1.159668,0.213623,-13.671875
3.321252,-0.485590,-0.211959,10.133926,-0.419423,-0.235603,0.082872,-3.204346,-0.091553,-12.207031
3.331349,-0.255070,-0.329315,10.176438,-0.188902,-0.352959,0.125384,-3.601074,0.366211,-8.087158
3.341439,-0.737067,-0.058678,10.040521,-0.670900,-0.082321,-0.010534,-4.241943,0.427246,-5.096436
3.351537,-0.522114,-0.186812,10.094409,-0.455947,-0.210455,0.043354,-1.800537,-0.915527,-2.838135
3.361633,-0.361648,-0.061073,9.955497,-0.295480,-0.084716,-0.095557,-1.922607,0.030518,0.762939
3.371728,-0.311353,0.171244,10.001602,-0.245185,0.147601,-0.049453,0.732422,1.495361,7.446289
3.381824,-0.767005,0.049098,9.922566,-0.700837,0.025455,-0.128488,0.976562,0.885010,6.988525
3.391921,-0.927471,0.092208,9.958491,-0.861304,0.068565,-0.092563,2.075195,0.183105,4.089355
3.402089,-0.892145,0.084424,9.822574,-0.825977,0.060781,-0.228480,-0.274658,1.251221,4.852295
3.412185,-0.795745,0.077239,10.033336,-0.729578,0.053596,-0.017719,0.030518,1.037598,5.554199
3.422280,0.153281,-0.503553,10.575807,0.219449,-0.527196,0.524753,0.335693,-1.556396,9.460449
3.432376,-0.623304,0.531694,10.283016,-0.557136,0.508051,0.231962,3.875732,-2.471924,9.124756
3.442473,-0.978365,0.215552,10.030941,-0.912198,0.191908,-0.020114,-1.220703,-0.213623,2.807617
3.452569,-0.299377,0.357457,9.977651,-0.233210,0.333813,-0.073403,-0.518799,-0.396729,-1.007080
3.462669,-0.370629,-0.130529,10.417137,-0.304462,-0.154172,0.366083,-3.143311,-1.953125,0.122070
3.472767,-0.214953,0.156874,10.042317,-0.148785,0.133230,-0.008737,-0.061035,-0.793457,-2.410889
3.482864,-0.453856,0.110171,10.089619,-0.387689,0.086528,0.038564,-0.213623,1.037598,0.549316
3.492960,-0.880768,0.247286,10.102791,-0.814601,0.223642,0.051737,1.068115,1.983643,3.234863
3.503050,-0.795146,-0.034728,9.953701,-0.728979,-0.058371,-0.097353,1.800537,1.770020,4.302979
3.513140,-0.780776,-0.086819,9.945917,-0.714609,-0.110463,-0.105137,0.946045,-0.213623,7.202148
3.523230,-0.372426,-0.015568,10.206974,-0.306258,-0.039211,0.155920,1.770020,0.274658,5.737305
3.533320,-0.658032,-0.376018,10.360256,-0.591864,-0.399661,0.309202,1.495361,0.732422,6.988525
3.543415,-0.390987,-0.601749,10.305769,-0.324819,-0.625392,0.254715,3.112793,1.647949,7.446289
3.553507,-0.431702,0.698148,9.980645,-0.365535,0.674505,-0.070409,1.800537,3.540039,8.880615
3.563596,-0.570015,0.028141,9.918375,-0.503847,0.004498,-0.132680,0.305176,2.166748,8.453369
3.573686,-0.741857,0.861010,9.814790,-0.675690,0.837366,-0.236264,0.488281,1.098633,8.453369
3.583776,-0.567021,0.243693,10.271041,-0.500853,0.220050,0.219987,-4.272461,0.671387,3.814697
3.593866,-0.354463,0.252076,10.384206,-0.288295,0.228432,0.333152,-5.523682,-0.183105,2.807617
3.603961,-0.982557,-0.024549,10.276430,-0.916389,-0.048192,0.225376,-4.638672,-1.556396,1.403809
3.614057,-0.692759,-0.238304,10.066866,-0.626592,-0.261948,0.015812,-1.800537,-2.258301,1.556396
3.624154,-0.767005,-0.207768,10.047107,-0.700837,-0.231411,-0.003947,0.183105,-2.014160,3.967285
3.634251,-0.782573,0.049098,9.913585,-0.716405,0.025455,-0.137470,2.288818,2.227783,11.535645
3.644348,-1.032852,0.217348,10.023157,-0.966685,0.193705,-0.027897,0.701904,2.258301,14.404297
3.654444,-0.856219,0.111368,10.200987,-0.790052,0.087725,0.149933,-0.030518,-1.434326,13.702393
3.664540,-0.710722,0.359852,9.978849,-0.644554,0.336208,-0.072205,1.373291,-1.281738,13.000488
3.674637,-0.813708,0.308958,9.669293,-0.747540,0.285314,-0.381762,-1.068115,-0.122070,11.688232
3.684734,-0.414937,0.232317,10.194999,-0.348769,0.208674,0.143945,-0.183105,1.525879,14.068604
3.694831,-0.564027,-0.067061,9.965078,-0.497859,-0.090704,-0.085977,-1.403809,2.929688,18.615723
3.704927,-0.724493,0.576601,10.105186,-0.658326,0.552958,0.054132,-2.105713,1.953125,9.704590
3.715024,-0.084424,0.568218,10.378817,-0.018257,0.544575,0.327763,0.244141,0.610352,8.117676
3.725119,-0.294587,-0.198787,10.126741,-0.228420,-0.222430,0.075687,0.885010,2.197266,12.573242
3.735215,-0.465233,0.157473,10.449470,-0.399065,0.133829,0.398416,1.068115,0.274658,9.918213
3.745311,-0.414338,0.132325,10.099199,-0.348171,0.108681,0.048144,-0.335693,-0.701904,8.697510
3.755409,0.368234,0.170046,9.714199,0.434402,0.146403,-0.336855,-1.129150,-0.762939,6.378174
3.765505,0.601749,0.270637,9.940529,0.667916,0.246994,-0.110526,-0.366211,0.000000,6.958008
3.775601,-0.316143,0.107177,10.132130,-0.249975,0.083534,0.081076,1.007080,0.854492,12.969971
3.785698,-0.042512,0.242496,10.040521,0.023656,0.218852,-0.010534,-1.068115,0.305176,11.779785
3.795794,0.495769,0.450264,9.993219,0.561937,0.426620,-0.057835,1.129150,-0.457764,1.525879
3.805891,0.463436,-0.011376,9.736952,0.529604,-0.035020,-0.314102,-1.953125,-1.464844,3.082275
3.815987,1.090333,-0.301174,9.952504,1.156500,-0.324817,-0.098551,-1.342773,-1.373291,7.690430
3.826083,0.861608,-0.459245,10.338701,0.927776,-0.482888,0.287646,-0.213623,-0.549316,8.880615
3.836180,0.449066,-0.307161,9.829160,0.515234,-0.330805,-0.221894,-0.244141,0.579834,10.528564
3.846277,0.520318,-0.017963,10.125544,0.586486,-0.041606,0.074490,0.701904,0.854492,6.561279
3.856372,0.553250,0.093406,10.077045,0.619417,0.069762,0.025990,0.366211,0.091553,4.364014
3.866468,-0.155676,0.392783,10.076446,-0.089509,0.369140,0.025392,-1.953125,-0.061035,-0.030518
3.876563,0.150287,0.113763,10.181228,0.216455,0.090120,0.130174,-3.234863,0.122070,-0.244141
3.886661,-0.132325,-0.264051,10.266850,-0.066157,-0.287694,0.215796,0.213623,-1.068115,-2.838135
3.896795,-0.527503,-0.207169,9.746532,-0.461335,-0.230813,-0.304522,-0.640869,-0.762939,-0.091553
3.906897,-0.697549,0.208367,10.230326,-0.631382,0.184723,0.179272,-1.220703,-1.708984,3.784180
3.916987,-0.226329,0.371827,9.965078,-0.160162,0.348183,-0.085977,0.274658,-0.274658,0.610352
3.927075,-0.452659,0.848436,10.415341,-0.386491,0.824792,0.364287,1.495361,1.403809,3.570557
3.937165,-0.859812,0.675994,9.980046,-0.793644,0.652351,-0.071008,-1.922607,0.579834,6.805420
3.947254,-0.607736,0.514929,10.017169,-0.541569,0.491286,-0.033885,-2.471924,-0.579834,6.134033
3.957343,-0.450862,0.237706,10.049502,-0.384695,0.214062,-0.001552,0.244141,-3.295898,-1.068115
3.967432,-0.476010,0.465233,10.052496,-0.409842,0.441589,0.001442,-0.610352,-2.197266,-0.671387
3.977519,-0.418530,0.392783,10.209968,-0.352362,0.369140,0.158914,0.823975,-0.488281,-1.007080
3.987608,-0.313748,0.280816,10.071656,-0.247580,0.257173,0.020602,-0.183105,-0.488281,-1.678467
3.997697,-0.478405,0.173639,10.158475,-0.412237,0.149996,0.107421,-1.861572,-1.098633,-2.136230
4.007787,-0.453856,-0.129930,9.848320,-0.387689,-0.153573,-0.202734,-3.265381,0.885010,-3.784180
4.017878,-0.328716,0.178429,10.077643,-0.262549,0.154786,0.026589,-3.448486,1.831055,-5.859375
4.027965,-0.686772,-0.214953,10.138716,-0.620604,-0.238596,0.087662,1.647949,0.091553,-5.828857
4.038061,-0.660427,-0.368234,10.454260,-0.594259,-0.391878,0.403206,1.464844,0.793457,-5.004883
4.048149,-0.459844,-0.273032,10.025552,-0.393676,-0.296676,-0.025502,0.488281,1.068115,-6.408691
4.058240,-0.369432,-0.706531,9.785451,-0.303264,-0.730174,-0.265603,0.976562,1.068115,-5.828857
4.068329,-0.452060,-0.753234,10.275831,-0.385892,-0.776877,0.224777,4.211426,1.953125,-3.509521
4.078419,-0.453257,-0.039518,10.723101,-0.387090,-0.063161,0.672047,1.831055,-0.549316,-0.823975
4.088509,-0.995729,-0.256866,10.204579,-0.929562,-0.280509,0.153525,4.699707,-0.305176,-1.464844
4.098599,-0.461640,-0.853226,10.116563,-0.395472,-0.876869,0.065508,-3.356934,0.000000,-1.464844
4.108690,-0.656235,-0.374821,10.099199,-0.590068,-0.398464,0.048144,-1.403809,-0.183105,-4.211426
4.118779,-0.501158,0.081431,10.496772,-0.434990,0.057787,0.445718,0.793457,0.854492,-2.288818
4.128870,-0.720901,-0.146695,9.747729,-0.654733,-0.170338,-0.303325,-1.831055,2.044678,-2.380371
4.138957,-0.529299,0.244292,10.012379,-0.463132,0.220649,-0.038675,-2.319336,0.885010,-1.464844
4.149047,-0.420326,0.310155,10.156679,-0.354158,0.286512,0.105625,-1.098633,-1.373291,-1.190186
4.159136,-0.192200,-0.014969,9.914782,-0.126033,-0.038612,-0.136272,-3.936768,-0.061035,-2.868652
4.169223,-0.307161,1.110690,10.105186,-0.240994,1.087047,0.054132,4.425049,2.258301,-3.417969
4.179312,-0.769999,0.253872,9.507030,-0.703831,0.230229,-0.544024,8.819580,2.746582,-0.701904
4.189401,-0.377216,0.203577,10.286609,-0.311048,0.179933,0.235555,1.403809,-1.770020,-5.401611
4.199492,-0.213157,0.510139,9.796229,-0.146989,0.486496,-0.254826,0.885010,0.183105,-7.476807
4.209615,0.156275,0.376018,10.021360,0.222443,0.352375,-0.029694,4.302979,-1.342773,-6.164551
4.219712,-0.269440,0.096400,10.059681,-0.203272,0.072756,0.008627,1.953125,-1.831055,-6.958008
4.229808,0.147892,0.258662,9.818383,0.214060,0.235019,-0.232672,1.281738,-3.662109,-11.291504
4.239904,-0.155078,-0.011975,9.902208,-0.088910,-0.035618,-0.148846,-1.007080,-0.915527,-13.977051
4.250000,-0.671204,0.298180,10.003398,-0.605037,0.274537,-0.047656,-2.349854,0.030518,-11.077881
4.260096,0.541873,0.189805,10.365645,0.608041,0.166162,0.314590,2.868652,-1.983643,-2.044678
4.270193,-0.320933,-0.471220,10.486593,-0.254765,-0.494863,0.435539,2.471924,-3.753662,-2.563477
4.280288,0.138312,-0.006586,10.753039,0.204480,-0.030230,0.701985,3.265381,0.793457,-1.373291
4.290384,-0.298779,0.132924,10.011780,-0.232611,0.109280,-0.039274,2.410889,-0.671387,-0.885010
4.300480,-0.598755,-0.464035,10.311158,-0.532587,-0.487678,0.260104,1.525879,-0.762939,4.547119
4.310571,0.655038,0.155676,10.543475,0.721205,0.132033,0.492421,0.518799,-1.983643,5.432129
4.320661,-0.061073,0.179626,9.554930,0.005095,0.155983,-0.496124,1.220703,2.044678,6.408691
4.330758,0.643063,-0.495170,10.100995,0.709230,-0.518814,0.049941,-1.373291,2.105713,3.326416
4.340849,0.364642,-0.352667,10.028546,0.430809,-0.376310,-0.022509,2.288818,-1.831055,0.885010
4.350939,0.878373,-0.251477,10.276430,0.944541,-0.275120,0.225376,-0.915527,1.556396,0.091553
4.361028,1.274749,-0.588576,10.025552,1.340917,-0.612219,-0.025502,2.227783,2.197266,-1.098633
4.371117,0.523312,-0.446072,9.971664,0.589479,-0.469716,-0.079390,3.845215,1.647949,-0.152588
4.381207,0.446072,0.187410,9.932146,0.512240,0.163767,-0.118908,3.295898,-1.007080,-1.190186
4.391296,0.392783,-0.522114,10.065668,0.458951,-0.545758,0.014614,2.075195,0.366211,-0.213623
4.401385,-0.441282,0.218546,10.220147,-0.375115,0.194902,0.169093,-1.068115,-0.396729,-5.676270
4.411476,-0.092208,0.175435,10.221943,-0.026041,0.151792,0.170889,-1.342773,-0.427246,-7.354736
4.421570,-0.467628,0.240699,10.225536,-0.401460,0.217056,0.174482,2.563477,0.152588,-10.772705
4.431667,-0.135319,0.057480,10.584789,-0.069151,0.033837,0.533735,1.586914,-2.014160,-8.117676
4.441763,-0.181423,0.420925,9.496851,-0.115255,0.397281,-0.554203,1.495361,-0.793457,-8.483887
4.451859,-0.345482,0.487985,10.015972,-0.279314,0.464342,-0.035083,-0.640869,0.122070,-7.293701
4.461954,-0.302371,0.523911,9.775272,-0.236204,0.500267,-0.275782,0.427246,-0.976562,-10.345459
4.472050,0.132924,0.167053,10.305170,0.199091,0.143409,0.254116,-0.244141,0.610352,-14.709473
4.482147,-0.070054,0.346080,9.565708,-0.003887,0.322437,-0.485346,3.814697,0.244141,-13.427734
4.492243,0.590372,-0.769999,10.702145,0.656540,-0.793642,0.651091,-0.854492,-0.122070,-15.502930
4.502340,0.493973,-0.185015,10.074650,0.560140,-0.208659,0.023595,-0.732422,-0.946045,-14.678955
4.512427,0.687969,-0.429906,10.129136,0.754137,-0.453549,0.078082,-1.953125,-1.068115,-14.984131
4.522516,0.567620,-0.283810,9.960287,0.633787,-0.307453,-0.090767,3.173828,0.030518,-11.596680
4.532606,1.056802,0.212558,9.860295,1.122970,0.188915,-0.190759,6.103516,3.326416,-9.948730
4.542696,0.595162,0.534688,9.980046,0.661330,0.511045,-0.071008,-3.753662,-0.152588,-5.645752
4.552785,1.013093,0.203577,10.462044,1.079261,0.179933,0.410990,-5.828857,-0.457764,-11.322021
4.562874,0.920885,0.762814,9.762100,0.987053,0.739170,-0.288955,0.305176,-2.349854,-19.439697
4.572964,0.556243,0.908311,10.241702,0.622411,0.884668,0.190648,-1.007080,-1.464844,-18.798828
4.583054,0.503553,0.788560,10.350676,0.569721,0.764917,0.299621,-0.915527,-1.525879,-20.843506
4.593143,-0.053289,0.606539,9.968071,0.012878,0.582895,-0.082983,-2.655029,-1.037598,-19.500732
4.603232,0.319735,0.586181,9.872869,0.385903,0.562538,-0.178185,-1.281738,-1.922607,-19.104004
4.613323,0.398771,0.493973,10.177635,0.464938,0.470329,0.126581,0.122070,-0.518799,-15.197754
4.623420,0.131726,0.395178,10.305769,0.197894,0.371535,0.254715,5.889893,0.671387,-11.413574
4.633515,-0.097597,0.547262,10.050699,-0.031429,0.523619,-0.000355,-1.403809,0.793457,-5.889893
4.643611,0.113165,0.473016,10.189611,0.179332,0.449373,0.138556,-2.044678,0.457764,-6.347656
4.653707,0.240101,0.585582,10.274634,0.306268,0.561939,0.223580,4.455566,2.838135,-4.577637
4.663803,-1.054407,0.826880,10.130334,-0.988240,0.803237,0.079280,6.439209,2.288818,-3.601074
4.673899,0.376617,0.170046,9.856703,0.442784,0.146403,-0.194351,5.310059,-0.762939,-4.333496
4.683995,0.153281,0.470621,10.396181,0.219449,0.446978,0.345127,-3.417969,-1.892090,-5.523682
4.694092,0.296384,-0.086819,10.654843,0.362551,-0.110463,0.603789,-2.197266,-2.349854,-5.828857
4.704188,-0.009580,0.388592,9.929152,0.056588,0.364949,-0.121902,-1.312256,-2.899170,-6.256104
4.714285,0.394579,0.169448,9.902807,0.460747,0.145804,-0.148247,0.701904,-2.929688,-5.828857
4.724381,-0.252076,-0.023950,10.081236,-0.185908,-0.047594,0.030182,0.427246,-0.762939,0.061035
4.734477,0.034728,-0.166454,10.032737,0.100895,-0.190097,-0.018317,0.610352,-0.366211,2.960205
4.744573,-0.146695,0.054487,9.780062,-0.080527,0.030843,-0.270992,1.342773,-0.244141,4.425049
4.754669,-0.444875,0.019160,9.755513,-0.378707,-0.004483,-0.295541,0.061035,0.762939,6.805420
4.764764,-0.346080,-0.188009,10.120155,-0.279913,-0.211652,0.069101,-0.915527,0.335693,7.690430
4.774860,-0.491578,0.192799,9.689052,-0.425410,0.169156,-0.362003,-0.579834,1.129150,7.965088
4.784956,-0.156874,-0.008383,9.934541,-0.090706,-0.032026,-0.116513,-1.037598,0.030518,8.636475
4.795051,-0.096400,-0.173639,10.108779,-0.030232,-0.197282,0.057724,0.518799,0.488281,9.887695
4.805148,-0.172441,-0.219144,10.069860,-0.106274,-0.242788,0.018805,-0.549316,0.640869,11.138916
4.815244,-0.170645,0.083826,10.089619,-0.104477,0.060182,0.038564,-0.061035,1.617432,11.596680
4.825340,-0.208367,-0.030536,10.257869,-0.142199,-0.054180,0.206814,0.335693,1.831055,10.650635
4.835435,-0.086819,0.025746,10.344089,-0.020652,0.002103,0.293035,-1.739502,1.586914,12.420654
4.845531,-0.243693,-0.077838,10.049502,-0.177526,-0.101481,-0.001552,0.915527,-1.953125,10.925293
4.855626,-0.012574,-0.174836,10.201586,0.053594,-0.198480,0.150531,2.624512,-0.946045,13.000488
4.865723,0.370031,-0.423918,10.247690,0.436198,-0.447562,0.196636,0.457764,0.762939,17.272949
4.875818,0.186812,-0.245490,9.860295,0.252979,-0.269133,-0.190759,1.403809,0.823975,16.357422
4.885914,0.103585,-0.583187,9.879456,0.169752,-0.606831,-0.171599,-0.610352,1.190186,16.906738
4.896009,0.433499,-0.588576,9.971065,0.499666,-0.612219,-0.079989,-1.007080,0.701904,15.594482
4.906107,0.546663,-0.494572,9.860894,0.612831,-0.518215,-0.190160,-1.159668,1.220703,15.075684
4.916204,0.532293,0.039518,9.923165,0.598461,0.015874,-0.127890,-0.091553,0.671387,16.204834
4.926301,0.400567,-0.324525,10.218950,0.466735,-0.348168,0.167895,-2.563477,-0.457764,16.082764
4.936399,0.471220,0.040117,9.980645,0.537388,0.016473,-0.070409,-0.976562,0.732422,15.899658
4.946495,0.476010,0.096998,9.835148,0.542178,0.073355,-0.215907,-0.885010,1.861572,14.404297
4.956591,0.489183,0.277224,9.933344,0.555350,0.253580,-0.117711,-3.601074,3.234863,10.589600
4.966687,0.969384,0.307760,10.142309,1.035552,0.284117,0.091255,-0.701904,3.509521,7.141113
4.976784,0.234113,0.375419,9.940529,0.300281,0.351776,-0.110526,3.936768,3.265381,6.439209
4.986881,-0.006586,0.290995,10.032737,0.059581,0.267352,-0.018317,0.701904,1.342773,9.735107
4.996977,0.325124,0.509540,9.751322,0.391292,0.485897,-0.299732,-0.396729,-1.037598,4.730225
5.007074,0.307760,0.161065,10.072255,0.373928,0.137422,0.021200,0.366211,-2.624512,2.563477
5.017163,0.580792,-0.123344,10.290800,0.646960,-0.146987,0.239746,-1.098633,-0.762939,3.295898
5.027252,0.255668,0.083826,10.128538,0.321836,0.060182,0.077483,1.068115,0.701904,4.760742
5.037342,0.035327,0.202379,9.827963,0.101494,0.178736,-0.223092,0.335693,0.457764,4.760742
5.047431,0.152084,0.474813,9.841734,0.218251,0.451169,-0.209320,0.122070,0.244141,4.760742
5.057521,0.422122,0.404160,10.063872,0.488290,0.380516,0.012818,0.549316,2.777100,5.096436
5.067611,0.632884,0.485590,10.183024,0.699052,0.461947,0.131970,-1.403809,1.525879,5.737305
5.077701,0.447270,0.382006,10.137519,0.513438,0.358362,0.086465,1.525879,0.244141,1.678467
5.087791,0.504750,0.198188,9.918375,0.570918,0.174545,-0.132680,2.960205,0.061035,2.960205
5.097881,0.826282,0.009580,9.842333,0.892449,-0.014063,-0.208721,0.885010,0.122070,2.960205
5.107970,1.060395,0.261656,9.976454,1.126563,0.238013,-0.074600,-0.091553,-0.030518,2.441406
5.118064,0.980760,0.060474,10.047107,1.046928,0.036831,-0.003947,-2.746582,-1.281738,0.488281
5.128160,0.819695,-0.136516,9.725576,0.885863,-0.160159,-0.325479,-2.563477,-0.457764,0.823975
5.138257,1.220861,-0.176034,10.008787,1.287029,-0.199677,-0.042268,-3.417969,-0.305176,-0.183105
5.148353,0.967588,-0.029339,10.373428,1.033756,-0.052982,0.322374,-1.922607,0.396729,2.899170
5.158449,1.105900,-0.204175,10.254276,1.172068,-0.227819,0.203222,-1.220703,-0.091553,3.173828
5.168546,0.959205,-0.111368,9.773476,1.025373,-0.135012,-0.277578,0.976562,-0.610352,3.509521
5.178643,0.950823,0.120350,9.802216,1.016990,0.096706,-0.248838,1.678467,-0.610352,2.227783
5.188739,0.656235,0.203577,9.977651,0.722403,0.179933,-0.073403,0.152588,1.312256,2.441406
5.198835,0.674797,0.097597,10.206376,0.740964,0.073954,0.155322,0.305176,0.823975,1.190186
5.208935,0.884960,-0.095202,10.351274,0.951127,-0.118845,0.300220,-0.762939,-0.396729,-0.396729
5.219028,0.749042,0.091011,10.027348,0.815210,0.067367,-0.023706,0.823975,-1.831055,-1.892090
5.229118,0.583786,0.065863,10.048304,0.649954,0.042220,-0.002750,1.159668,-2.166748,-2.349854
5.239209,0.587379,0.001198,9.945319,0.653546,-0.022446,-0.105736,0.335693,-1.525879,-1.281738
5.249297,0.427511,0.186812,9.879456,0.493679,0.163168,-0.171599,0.213623,-1.220703,-0.976562
5.259386,0.310754,0.418530,9.909992,0.376921,0.394886,-0.141062,-0.152588,0.885010,1.464844
5.269475,0.376617,0.128732,9.974658,0.442784,0.105089,-0.076397,-1.190186,0.488281,0.518799
5.279565,0.377814,0.028740,10.028546,0.443982,0.005097,-0.022509,-0.122070,0.762939,0.671387
5.289655,0.489781,-0.097597,9.878857,0.555949,-0.121240,-0.172197,-2.136230,0.213623,1.464844
5.299745,0.459844,0.026944,10.168654,0.526011,0.003301,0.117600,-0.610352,0.640869,0.122070
5.309834,0.641865,-0.106578,9.903406,0.708033,-0.130222,-0.147648,-0.518799,0.640869,2.258301
5.319929,0.411345,-0.110770,9.880054,0.477512,-0.134413,-0.171000,0.854492,0.579834,1.831055
5.330022,0.668809,0.005988,9.921368,0.734977,-0.017656,-0.129686,2.075195,-0.305176,1.770020
5.340117,0.420925,0.029339,10.052496,0.487092,0.005696,0.001442,1.678467,-1.464844,0.976562
5.350215,0.290396,-0.005389,10.167457,0.356564,-0.029032,0.116402,1.434326,-1.373291,0.213623
5.360311,0.798739,-0.020358,10.147099,0.864907,-0.044001,0.096045,0.610352,-2.716064,1.647949
5.370408,0.419727,0.107177,10.083631,0.485895,0.083534,0.032577,1.098633,-2.960205,0.762939
5.380505,0.477806,-0.050894,10.196796,0.543974,-0.074537,0.145741,0.885010,-2.014160,1.617432
5.390602,0.602347,0.056882,9.941127,0.668515,0.033238,-0.109927,0.366211,-2.777100,2.197266
5.400698,0.604144,-0.189805,9.845327,0.670311,-0.213449,-0.205728,1.007080,-3.173828,2.990723
5.410794,0.687969,-0.142504,9.988429,0.754137,-0.166147,-0.062625,0.762939,-3.448486,2.868652
5.420884,0.486189,-0.213755,9.942924,0.552357,-0.237399,-0.108131,-0.885010,-2.502441,5.798340
5.430973,0.644859,-0.263452,10.001003,0.711027,-0.287095,-0.050051,-0.488281,-1.373291,6.988525
5.441063,0.883762,-0.201780,10.168654,0.949930,-0.225424,0.117600,-1.098633,-1.190186,7.385254
5.451153,0.836461,-0.210163,9.998608,0.902628,-0.233806,-0.052446,1.007080,-1.159668,7.537842
5.461243,0.848436,-0.317340,9.993219,0.914603,-0.340983,-0.057835,1.831055,-1.251221,8.026123
5.471333,0.944236,0.380808,10.005793,1.010404,0.357165,-0.045261,1.007080,-1.678467,7.476807
5.481423,0.824485,-0.152682,9.999207,0.890653,-0.176326,-0.051848,-2.197266,-1.892090,6.835938
5.491513,0.843047,-0.100591,10.056088,0.909215,-0.124234,0.005034,-0.701904,-2.105713,2.136230
5.501604,0.623903,0.034728,10.059082,0.690070,0.011084,0.008028,-1.007080,-2.349854,2.105713
5.511693,0.664019,-0.120948,10.105186,0.730187,-0.144592,0.054132,-0.244141,-1.647949,0.946045
5.521786,0.443677,-0.042512,9.918973,0.509845,-0.066155,-0.132081,-1.068115,-1.434326,1.586914
5.531882,0.640668,0.011376,10.051897,0.706835,-0.012267,0.000843,-0.183105,-1.647949,0.915527
5.541979,0.696352,0.176633,10.005793,0.762520,0.152989,-0.045261,0.518799,-0.854492,2.502441
5.552074,0.705932,0.382604,10.168055,0.772100,0.358961,0.117001,-0.122070,-0.885010,2.441406
5.562173,0.662223,0.552651,9.957892,0.728391,0.529007,-0.093162,-0.640869,-0.640869,2.899170
5.572269,0.822090,0.345482,10.035132,0.888258,0.321838,-0.015922,-1.281738,-1.556396,2.044678
5.582365,0.753832,0.249082,9.977651,0.820000,0.225439,-0.073403,-1.647949,-1.525879,1.678467
5.592461,0.972378,0.308958,9.904005,1.038546,0.285314,-0.147050,-1.098633,-2.258301,-2.166748
5.602554,0.856818,0.105980,9.966275,0.922986,0.082336,-0.084779,-0.732422,-2.288818,-3.173828
5.612650,0.848436,0.094005,10.079440,0.914603,0.070361,0.028385,-0.335693,-2.685547,-3.479004
5.622743,0.578996,-0.130529,10.035731,0.645164,-0.154172,-0.015324,-0.396729,-2.685547,-2.807617
5.632833,0.761017,0.041314,10.042317,0.827185,0.017671,-0.008737,0.640869,-1.739502,-0.946045
5.642923,0.517923,0.161664,10.065668,0.584091,0.138020,0.014614,0.000000,-1.770020,-0.793457
5.653013,0.618514,-0.001796,10.066866,0.684681,-0.025440,0.015812,0.335693,-1.251221,-1.281738
5.663103,0.764011,-0.011376,9.970466,0.830179,-0.035020,-0.080588,0.671387,-1.495361,0.061035
5.673193,0.710123,-0.049098,10.036928,0.776291,-0.072741,-0.014126,0.549316,-1.556396,1.342773
5.683282,0.820893,0.082628,10.087224,0.887061,0.058985,0.036169,0.823975,-0.976562,2.593994
5.693371,0.581990,0.040117,10.024953,0.648157,0.016473,-0.026101,0.610352,-0.335693,2.990723
5.703460,0.869392,-0.006586,10.010583,0.935560,-0.030230,-0.040471,0.610352,0.030518,2.044678
5.713550,1.001118,0.146096,9.974059,1.067286,0.122453,-0.076995,0.823975,-0.183105,1.434326
5.723647,1.317859,0.151485,10.075847,1.384027,0.127842,0.024793,1.342773,0.213623,2.044678
5.733745,1.250799,0.192799,9.985435,1.316967,0.169156,-0.065619,1.007080,0.152588,1.159668
5.743841,1.435814,0.179626,9.991423,1.501982,0.155983,-0.059631,0.396729,-0.030518,-0.335693
5.753937,1.199905,0.099393,10.008787,1.266072,0.075750,-0.042268,0.091553,-0.061035,-1.464844
5.764032,1.005908,0.077239,10.021959,1.072076,0.053596,-0.029095,0.091553,0.000000,-1.373291
5.774130,0.608934,0.078437,10.028546,0.675101,0.054794,-0.022509,0.152588,0.183105,-0.793457
5.784236,0.470023,0.088017,10.023755,0.536190,0.064374,-0.027299,0.122070,0.213623,-0.671387
5.794333,0.355062,0.092208,10.019564,0.421229,0.068565,-0.031490,0.061035,0.122070,-0.335693
5.804430,0.203577,0.094005,10.017169,0.269744,0.070361,-0.033885,-0.030518,0.091553,-0.213623
5.814527,0.146096,0.094005,10.015373,0.212264,0.070361,-0.035681,-0.091553,0.030518,-0.152588
5.824623,0.089214,0.095202,10.027947,0.155382,0.071559,-0.023107,-0.122070,-0.213623,-0.091553
5.834719,-0.042512,0.128134,10.034533,0.023656,0.104490,-0.016521,-0.122070,-0.183105,-0.152588
5.844815,-0.128134,0.128732,10.036928,-0.061966,0.105089,-0.014126,-0.335693,-0.213623,-1.464844
5.854912,-0.366438,0.143102,10.033934,-0.300270,0.119459,-0.017120,-0.305176,-0.244141,-2.075195
5.865009,-0.275427,0.092807,10.041718,-0.209260,0.069164,-0.009336,-0.427246,-0.183105,-1.831055
5.875104,-0.292791,0.081431,10.043514,-0.226623,0.057787,-0.007540,-0.396729,-0.122070,-1.708984
5.885201,-0.264650,0.080832,10.030941,-0.198482,0.057189,-0.020114,-0.396729,0.000000,-1.708984
5.895298,-0.313748,0.114961,10.034533,-0.247580,0.091318,-0.016521,-0.274658,-0.183105,-3.173828
5.905394,-0.350272,0.046703,10.039922,-0.284104,0.023060,-0.011132,-0.335693,-0.091553,-3.845215
5.915489,-0.329315,0.010778,10.064471,-0.263148,-0.012866,0.013417,-0.335693,-0.061035,-4.486084
5.925604,-0.268242,0.043709,10.048903,-0.202075,0.020066,-0.002151,-0.213623,0.000000,-4.272461
5.935700,-0.323328,0.066462,10.027947,-0.257160,0.042818,-0.023107,-0.122070,0.152588,-3.784180
5.945795,-0.272433,0.077239,10.054891,-0.206266,0.053596,0.003837,-0.244141,0.030518,-3.967285
5.955889,-0.299377,0.044308,10.048304,-0.233210,0.020665,-0.002750,0.183105,0.244141,-5.126953
5.965984,-0.322130,0.007185,10.015972,-0.255962,-0.016458,-0.035083,0.274658,0.396729,-5.218506
5.976079,-0.245490,-0.116757,10.025552,-0.179322,-0.140401,-0.025502,0.793457,0.640869,-4.852295
5.986173,-0.232317,0.014370,10.058483,-0.166149,-0.009273,0.007429,0.488281,0.335693,-3.570557
5.996269,-0.230521,0.157473,9.989626,-0.164353,0.133829,-0.061428,0.030518,0.427246,-2.899170
6.006364,0.001796,0.065264,10.026151,0.067964,0.041621,-0.024904,-0.701904,-0.213623,-3.051758
6.016460,-0.029938,0.219144,10.039922,0.036230,0.195501,-0.011132,-1.159668,-0.427246,-3.173828
6.026555,0.052092,0.244891,10.037527,0.118259,0.221247,-0.013527,-2.777100,-1.037598,-4.547119
6.036650,0.219743,0.140109,10.020762,0.285911,0.116465,-0.030293,-2.777100,-1.129150,-5.371094
6.046746,0.231718,0.096998,10.040521,0.297886,0.073355,-0.010534,-2.502441,-1.098633,-5.432129
6.056841,0.278421,0.031135,10.064471,0.344589,0.007492,0.013417,-2.227783,-1.098633,-4.760742
6.066936,0.131127,-0.068258,10.046508,0.197295,-0.091901,-0.004546,-2.258301,-1.098633,-4.547119
6.077034,0.213157,-0.114362,10.026151,0.279324,-0.138006,-0.024904,-1.770020,-1.068115,-3.601074
6.087131,0.196392,-0.069456,10.045909,0.262559,-0.093099,-0.005145,-1.495361,-0.976562,-3.173828
6.097227,0.236508,-0.028740,10.062076,0.302676,-0.052384,0.011022,-0.946045,-1.007080,-1.525879
6.107322,0.169448,0.043110,10.035132,0.235615,0.019467,-0.015922,-0.701904,-0.915527,-0.946045
6.117417,0.276026,0.116158,10.035731,0.342194,0.092515,-0.015324,-0.457764,-0.915527,-0.488281
6.127512,0.223934,0.132325,10.042317,0.290102,0.108681,-0.008737,-0.579834,-0.946045,-0.610352
6.137608,0.221539,0.135319,10.042317,0.287707,0.111675,-0.008737,-0.915527,-1.037598,-1.373291
6.147704,0.257465,0.134121,10.048304,0.323632,0.110478,-0.002750,-1.220703,-1.159668,-3.448486
6.157800,0.300575,0.121547,10.045909,0.366743,0.097904,-0.005145,-1.220703,-1.098633,-4.455566
6.167897,0.312550,0.111967,10.041718,0.378718,0.088324,-0.009336,-1.129150,-0.946045,-5.950928
6.177993,0.282612,0.077239,10.039323,0.348780,0.053596,-0.011731,-1.098633,-0.885010,-6.011963
6.188088,0.304167,0.066462,10.040521,0.370335,0.042818,-0.010534,-1.068115,-0.762939,-5.767822
6.198184,0.229323,0.005988,10.068063,0.295491,-0.017656,0.017009,-0.946045,-0.640869,-5.096436
6.208281,0.262853,-0.015568,10.111772,0.329021,-0.039211,0.060718,-0.732422,0.030518,-4.150391
6.218377,0.126936,-0.012574,10.146500,0.193104,-0.036217,0.095446,0.244141,3.021240,-2.685547
6.228472,-0.161065,0.026944,10.078242,-0.094897,0.003301,0.027188,0.610352,4.425049,-2.807617
6.238568,0.019759,-0.262255,9.822574,0.085927,-0.285898,-0.228480,0.183105,0.579834,-10.345459
6.248663,0.807720,-0.285606,9.854907,0.873888,-0.309249,-0.196148,-1.495361,-4.058838,-18.859863
6.258759,1.049617,-0.221539,10.038126,1.115785,-0.245183,-0.012929,-3.936768,-4.638672,-23.101807
6.268855,-0.149090,0.086819,10.171648,-0.082922,0.063176,0.120594,-0.457764,-1.708984,-19.012451
6.278950,-0.170645,0.090412,10.139914,-0.104477,0.066769,0.088860,1.525879,0.885010,-14.831543
6.289045,-0.207169,0.144899,9.978250,-0.141002,0.121255,-0.072804,1.434326,1.617432,-8.941650
6.299140,-0.189805,0.161065,10.000404,-0.123638,0.137422,-0.050650,0.671387,0.335693,-6.958008
6.309237,-0.112566,0.119751,9.997410,-0.046398,0.096108,-0.053644,-2.258301,-2.532959,-3.997803
6.319332,0.027543,0.058678,10.150692,0.093710,0.035035,0.099637,-3.326416,-3.631592,-2.990723
6.329427,0.019160,-0.037123,10.039922,0.085328,-0.060766,-0.011132,-2.288818,-2.227783,-1.739502
6.339523,0.045505,0.006586,10.071057,0.111673,-0.017057,0.020003,-1.617432,-1.495361,-1.342773
6.349618,0.040715,0.000599,10.078841,0.106883,-0.023045,0.027787,-0.976562,-0.823975,-1.068115
6.359714,0.043709,0.002994,10.068662,0.109877,-0.020650,0.017608,0.061035,0.244141,-0.732422
6.369807,0.032333,0.008981,10.064471,0.098500,-0.014662,0.013417,0.427246,0.640869,-0.610352
6.379902,0.026345,0.020956,10.057885,0.092513,-0.002687,0.006830,0.762939,1.007080,-0.396729
6.389998,0.025148,0.025148,10.052496,0.091315,0.001504,0.001442,0.732422,1.007080,-0.335693
6.400094,0.028740,0.030536,10.055490,0.094908,0.006893,0.004435,0.701904,0.885010,-0.244141
6.410190,0.032333,0.028141,10.056687,0.098500,0.004498,0.005633,0.640869,0.854492,-0.213623
6.420285,0.037123,0.020956,10.048304,0.103290,-0.002687,-0.002750,0.671387,0.885010,-0.183105
6.430381,0.024549,0.033530,10.041718,0.090717,0.009887,-0.009336,0.549316,0.793457,-0.122070
6.440476,0.016765,0.038320,10.042916,0.082933,0.014677,-0.008139,0.335693,0.640869,-0.061035
6.450572,0.005988,0.049098,10.038126,0.072155,0.025455,-0.012929,-0.213623,0.061035,-0.061035
6.460668,0.001796,0.046104,10.039323,0.067964,0.022461,-0.011731,-0.457764,-0.274658,0.000000
6.470763,0.010778,0.041913,10.039922,0.076945,0.018270,-0.011132,-0.885010,-0.793457,0.000000
6.480859,0.014370,0.028141,10.040521,0.080538,0.004498,-0.010534,-0.976562,-0.946045,0.030518
6.490953,0.019759,0.030536,10.044113,0.085927,0.006893,-0.006941,-1.068115,-1.159668,0.000000
6.501048,0.019759,0.035925,10.041718,0.085927,0.012282,-0.009336,-1.129150,-1.281738,0.030518
6.511145,0.022753,0.034129,10.039922,0.088920,0.010486,-0.011132,-1.220703,-1.434326,0.030518
6.521240,0.070054,-0.001198,10.063872,0.136222,-0.024841,0.012818,-1.434326,-1.556396,0.061035
6.531336,0.073647,-0.002994,10.062076,0.139815,-0.026637,0.011022,-0.854492,-1.068115,0.000000
6.541430,0.059875,0.008981,10.061477,0.126043,-0.014662,0.010423,-0.244141,-0.274658,-0.030518
6.551525,0.043709,0.017364,10.056088,0.109877,-0.006279,0.005034,-0.152588,-0.122070,0.000000
6.561621,0.034129,0.026345,10.045311,0.100297,0.002702,-0.005744,-0.152588,-0.274658,-0.030518
6.571716,0.047900,0.006586,10.050101,0.114068,-0.017057,-0.000954,-0.396729,-0.427246,0.000000
6.581811,0.047302,-0.001198,10.040521,0.113469,-0.024841,-0.010534,-0.061035,-0.244141,-0.061035
6.591907,0.041314,0.011376,10.045909,0.107482,-0.012267,-0.005145,0.030518,-0.122070,-0.030518
6.602003,0.041913,0.005988,10.047107,0.108080,-0.017656,-0.003947,0.091553,-0.061035,-0.030518
6.612098,0.036524,0.008383,10.047706,0.102692,-0.015261,-0.003349,0.091553,-0.061035,-0.061035
6.622193,0.039518,0.007185,10.042916,0.105685,-0.016458,-0.008139,0.091553,-0.030518,-0.061035
6.632289,0.040715,0.010778,10.038126,0.106883,-0.012866,-0.012929,0.061035,-0.030518,-0.030518
6.642384,0.037123,0.013173,10.051897,0.103290,-0.010471,0.000843,0.030518,0.000000,-0.030518
6.652479,0.038320,0.008981,10.056088,0.104488,-0.014662,0.005034,0.030518,-0.030518,-0.030518
6.662575,0.044308,0.010179,10.060280,0.110476,-0.013465,0.009225,0.000000,-0.030518,0.000000
6.672670,0.043709,0.005389,10.054292,0.109877,-0.018255,0.003238,0.000000,0.000000,0.000000
6.682765,0.043709,0.006586,10.038126,0.109877,-0.017057,-0.012929,-0.030518,0.000000,0.000000
6.692860,0.044907,0.009580,10.039323,0.111074,-0.014063,-0.011731,-0.030518,0.000000,0.000000
6.702955,0.049697,0.013771,10.046508,0.115864,-0.009872,-0.004546,-0.061035,0.030518,0.000000
6.713051,0.049697,0.013771,10.048903,0.115864,-0.009872,-0.002151,-0.061035,0.000000,-0.030518
6.723146,0.047900,0.017364,10.046508,0.114068,-0.006279,-0.004546,-0.061035,0.030518,-0.030518
6.733243,0.053888,0.008981,10.048304,0.120056,-0.014662,-0.002750,-0.122070,0.061035,-0.030518
6.743338,0.059875,0.004191,10.060280,0.126043,-0.019452,0.009225,-0.061035,0.152588,-0.030518
6.753433,0.056283,-0.007784,10.059082,0.122451,-0.031427,0.008028,0.366211,0.518799,-0.061035
6.763529,0.058079,-0.007185,10.060280,0.124247,-0.030828,0.009225,0.579834,0.762939,-0.091553
6.773623,0.060474,-0.009580,10.056687,0.126642,-0.033223,0.005633,1.129150,1.373291,-0.122070
6.783718,0.059277,-0.004790,10.053693,0.125444,-0.028433,0.002639,1.434326,1.708984,-0.152588
6.793813,0.056882,0.000000,10.061477,0.123049,-0.023643,0.010423,2.075195,2.471924,-0.183105
6.803908,0.043709,0.011376,10.066866,0.109877,-0.012267,0.015812,2.441406,2.838135,-0.183105
6.814003,0.032333,0.024549,10.070458,0.098500,0.000906,0.019404,2.777100,3.204346,-0.244141
6.824099,-0.043709,0.076042,10.005194,0.022459,0.052399,-0.045860,1.861572,2.624512,-0.122070
6.834194,-0.030536,0.066462,10.010583,0.035631,0.042818,-0.040471,1.312256,1.708984,-0.061035
6.844290,0.007185,0.041913,10.062076,0.073353,0.018270,0.011022,0.762939,1.037598,-0.030518
6.854385,0.006586,0.038320,10.056088,0.072754,0.014677,0.005034,0.732422,1.037598,-0.061035
6.864481,-0.002395,0.046703,10.039323,0.063773,0.023060,-0.011731,0.427246,0.701904,-0.030518
6.874576,0.002395,0.042512,10.045909,0.068563,0.018868,-0.005145,0.335693,0.488281,-0.030518
6.884672,0.005988,0.043110,10.050101,0.072155,0.019467,-0.000954,0.305176,0.427246,0.000000
6.894767,-0.004790,0.056882,10.049502,0.061378,0.033238,-0.001552,0.183105,0.274658,0.030518
6.904860,0.000599,0.055085,10.053094,0.066766,0.031442,0.002040,0.122070,0.122070,0.030518
6.914957,0.004790,0.054487,10.044113,0.070958,0.030843,-0.006941,0.030518,-0.030518,0.000000
6.925051,0.002395,0.050295,10.041718,0.068563,0.026652,-0.009336,-0.030518,-0.152588,0.000000
6.935151,-0.000599,0.048499,10.039323,0.065569,0.024856,-0.011731,-0.213623,-0.518799,0.000000
6.945251,-0.002994,0.053289,10.046508,0.063174,0.029646,-0.004546,-0.366211,-0.701904,0.000000
6.955348,-0.013173,0.053289,10.044712,0.052995,0.029646,-0.006342,-0.579834,-0.976562,-0.030518
6.965446,-0.026944,0.065863,10.033336,0.039224,0.042220,-0.017719,-1.342773,-1.892090,0.030518
6.975543,-0.023950,0.066462,10.023755,0.042217,0.042818,-0.027299,-1.861572,-2.502441,0.061035
6.985638,0.065863,0.052690,10.144704,0.132031,0.029047,0.093650,-3.204346,-3.875732,0.152588
6.995734,0.104183,-0.064666,10.081236,0.170351,-0.088309,0.030182,-2.868652,-3.143311,0.152588
7.005832,0.080832,-0.051493,10.067465,0.147000,-0.075136,0.016410,-0.549316,-1.434326,-0.061035
7.015928,0.046104,0.020956,10.064471,0.112272,-0.002687,0.013417,-0.488281,-1.159668,-0.061035
7.026024,0.055085,0.000000,10.051897,0.121253,-0.023643,0.000843,-0.183105,-0.671387,-0.030518
7.036122,0.044907,0.017963,10.056687,0.111074,-0.005681,0.005633,-0.152588,-0.488281,-0.030518
7.046219,0.042512,0.011975,10.060280,0.108679,-0.011668,0.009225,-0.030518,-0.366211,-0.061035
7.056315,0.039518,0.012574,10.062076,0.105685,-0.011069,0.011022,0.213623,-0.122070,-0.122070
7.066412,0.042512,0.014370,10.056687,0.108679,-0.009273,0.005633,0.396729,0.000000,-0.122070
7.076509,0.046104,0.024549,10.052496,0.112272,0.000906,0.001442,0.701904,0.213623,-0.152588
7.086604,0.046703,0.029339,10.056687,0.112871,0.005696,0.005633,0.793457,0.274658,-0.152588
7.096701,0.043709,0.039518,10.060878,0.109877,0.015874,0.009824,0.762939,0.305176,-0.122070
7.106797,0.041314,0.047302,10.058483,0.107482,0.023658,0.007429,0.640869,0.213623,-0.122070
7.116893,0.041314,0.040117,10.060280,0.107482,0.016473,0.009225,0.427246,0.183105,-0.091553
7.126990,0.047900,0.040117,10.059082,0.114068,0.016473,0.008028,0.244141,0.061035,-0.061035
7.137087,0.052092,0.040117,10.063273,0.118259,0.016473,0.012219,0.152588,0.061035,-0.061035
7.147184,0.045505,0.034728,10.064471,0.111673,0.011084,0.013417,0.030518,0.000000,-0.030518
7.157279,0.041913,0.032932,10.066267,0.108080,0.009288,0.015213,0.030518,0.030518,-0.030518
7.167377,0.037722,0.035925,10.061477,0.103889,0.012282,0.010423,0.000000,0.000000,-0.061035
7.177473,0.040117,0.032932,10.064471,0.106284,0.009288,0.013417,0.030518,0.000000,-0.061035
7.187569,0.038919,0.029938,10.063872,0.105087,0.006294,0.012818,0.030518,-0.030518,-0.030518
7.197666,0.035925,0.025746,10.068063,0.102093,0.002103,0.017009,0.000000,0.000000,0.000000
7.207762,0.035925,0.023351,10.064471,0.102093,-0.000292,0.013417,0.000000,-0.030518,0.000000
7.217858,0.032932,0.027543,10.056088,0.099099,0.003899,0.005034,-0.061035,-0.030518,-0.030518
7.227954,0.029938,0.023950,10.050101,0.096105,0.000307,-0.000954,-0.061035,-0.030518,0.000000
7.238051,0.035327,0.025148,10.046508,0.101494,0.001504,-0.004546,-0.030518,0.000000,0.000000
7.248148,0.028740,0.024549,10.060280,0.094908,0.000906,0.009225,-0.030518,0.030518,0.000000
7.258241,0.031734,0.026944,10.059082,0.097902,0.003301,0.008028,-0.030518,0.061035,0.000000
7.268335,0.036524,0.026944,10.055490,0.102692,0.003301,0.004435,0.000000,0.061035,0.030518
7.278431,0.041314,0.026345,10.049502,0.107482,0.002702,-0.001552,0.030518,0.061035,0.030518
7.288528,0.037123,0.026944,10.051897,0.103290,0.003301,0.000843,0.061035,0.030518,0.030518
7.298624,0.037722,0.026345,10.051897,0.103889,0.002702,0.000843,0.061035,0.030518,0.030518
7.308721,0.041913,0.032333,10.054292,0.108080,0.008689,0.003238,0.030518,0.030518,-0.030518
7.318815,0.037123,0.028141,10.054891,0.103290,0.004498,0.003837,0.030518,0.061035,-0.030518
7.328911,0.030536,0.030536,10.050101,0.096704,0.006893,-0.000954,0.030518,0.061035,-0.030518
7.339009,0.027543,0.034728,10.048304,0.093710,0.011084,-0.002750,-0.030518,0.061035,0.000000
7.349105,0.026345,0.037123,10.054891,0.092513,0.013479,0.003837,-0.091553,0.061035,0.000000
7.359201,0.032333,0.041913,10.050699,0.098500,0.018270,-0.000355,-0.091553,0.030518,-0.030518
7.369298,0.028141,0.037123,10.047107,0.094309,0.013479,-0.003947,-0.091553,0.030518,0.000000
7.379394,0.031135,0.034728,10.046508,0.097303,0.011084,-0.004546,-0.061035,0.000000,0.000000
7.389490,0.030536,0.031135,10.049502,0.096704,0.007492,-0.001552,-0.061035,0.000000,0.000000
7.399586,0.030536,0.031734,10.048903,0.096704,0.008091,-0.002151,-0.030518,0.000000,0.000000
7.409683,0.035327,0.028141,10.051298,0.101494,0.004498,0.000244,0.000000,0.000000,0.000000
7.419780,0.038320,0.028141,10.050101,0.104488,0.004498,-0.000954,0.000000,0.000000,0.000000
7.429876,0.037722,0.030536,10.044712,0.103889,0.006893,-0.006342,-0.061035,0.000000,-0.030518
7.439973,0.036524,0.028740,10.050101,0.102692,0.005097,-0.000954,-0.030518,0.000000,-0.030518
7.450069,0.034129,0.028740,10.048304,0.100297,0.005097,-0.002750,0.030518,-0.030518,-0.061035
7.460166,0.031734,0.032333,10.043514,0.097902,0.008689,-0.007540,-0.030518,-0.030518,-0.061035
7.470262,0.038919,0.035925,10.048304,0.105087,0.012282,-0.002750,0.000000,-0.030518,0.000000
7.480358,0.036524,0.042512,10.044113,0.102692,0.018868,-0.006941,0.030518,-0.030518,0.000000
7.490451,0.038919,0.044907,10.049502,0.105087,0.021263,-0.001552,0.000000,-0.030518,-0.030518
7.500547,0.044308,0.047900,10.054891,0.110476,0.024257,0.003837,0.000000,0.030518,-0.061035
7.510643,0.044907,0.042512,10.061477,0.111074,0.018868,0.010423,0.030518,0.030518,-0.061035
7.520739,0.046104,0.038919,10.056088,0.112272,0.015276,0.005034,0.091553,0.030518,-0.030518
7.530836,0.042512,0.040715,10.053693,0.108679,0.017072,0.002639,0.061035,0.061035,0.000000
7.540932,0.042512,0.039518,10.060280,0.108679,0.015874,0.009225,0.091553,0.030518,0.000000
7.551028,0.041913,0.033530,10.063273,0.108080,0.009887,0.012219,0.061035,0.061035,-0.030518
7.561124,0.042512,0.031734,10.064471,0.108679,0.008091,0.013417,0.091553,-0.030518,-0.030518
7.571219,0.044308,0.030536,10.060878,0.110476,0.006893,0.009824,0.061035,-0.030518,-0.030518
7.581316,0.040117,0.030536,10.059082,0.106284,0.006893,0.008028,0.061035,0.030518,-0.030518
7.591415,0.039518,0.036524,10.062675,0.105685,0.012881,0.011620,0.061035,0.030518,-0.030518
7.601511,0.041314,0.036524,10.056687,0.107482,0.012881,0.005633,0.061035,0.030518,-0.030518
7.611608,0.038320,0.041913,10.054292,0.104488,0.018270,0.003238,0.152588,0.030518,-0.030518
7.621704,0.042512,0.040117,10.052496,0.108679,0.016473,0.001442,0.091553,0.000000,-0.030518
7.631800,0.035925,0.040715,10.053693,0.102093,0.017072,0.002639,0.091553,0.030518,-0.061035
7.641896,0.034129,0.035925,10.056088,0.100297,0.012282,0.005034,0.091553,0.030518,-0.091553
7.651989,0.036524,0.038919,10.062076,0.102692,0.015276,0.011022,0.122070,0.030518,-0.091553
7.662086,0.044308,0.043110,10.060280,0.110476,0.019467,0.009225,0.122070,0.061035,-0.091553
7.672183,0.036524,0.048499,10.057885,0.102692,0.024856,0.006830,0.122070,0.061035,-0.091553
7.682279,0.026345,0.043110,10.057885,0.092513,0.019467,0.006830,0.152588,0.091553,-0.061035
7.692375,0.025746,0.039518,10.056687,0.091914,0.015874,0.005633,0.122070,0.091553,-0.091553
7.702472,0.030536,0.035925,10.057885,0.096704,0.012282,0.006830,0.030518,0.030518,-0.061035
7.712568,0.041913,0.034129,10.060280,0.108080,0.010486,0.009225,0.030518,0.000000,-0.030518
7.722665,0.037123,0.035925,10.057885,0.103290,0.012282,0.006830,0.000000,0.000000,-0.030518
7.732760,0.039518,0.045505,10.065070,0.105685,0.021862,0.014015,0.030518,0.030518,0.000000
7.742857,0.034129,0.041913,10.067465,0.100297,0.018270,0.016410,0.000000,0.030518,0.000000
7.752953,0.039518,0.037123,10.056687,0.105685,0.013479,0.005633,0.000000,0.030518,0.000000
7.763049,0.034728,0.040715,10.051897,0.100895,0.017072,0.000843,-0.030518,0.000000,0.000000
7.773145,0.031135,0.035925,10.054292,0.097303,0.012282,0.003238,-0.061035,0.000000,0.030518
7.783241,0.034129,0.036524,10.048903,0.100297,0.012881,-0.002151,0.000000,0.000000,0.000000
7.793337,0.031734,0.034129,10.052496,0.097902,0.010486,0.001442,0.030518,0.030518,0.000000
7.803434,0.033530,0.030536,10.052496,0.099698,0.006893,0.001442,0.030518,0.030518,0.000000
7.813530,0.039518,0.029938,10.052496,0.105685,0.006294,0.001442,0.030518,0.030518,-0.030518
7.823626,0.034129,0.040715,10.057885,0.100297,0.017072,0.006830,0.061035,0.061035,0.000000
7.833724,0.038919,0.040117,10.052496,0.105087,0.016473,0.001442,0.091553,0.091553,0.000000
7.843822,0.043709,0.047302,10.055490,0.109877,0.023658,0.004435,0.091553,0.091553,0.030518
7.853918,0.041913,0.045505,10.050699,0.108080,0.021862,-0.000355,0.091553,0.122070,0.030518
7.864014,0.044907,0.046703,10.045311,0.111074,0.023060,-0.005744,0.122070,0.091553,0.030518
7.874111,0.043709,0.045505,10.050699,0.109877,0.021862,-0.000355,0.152588,0.091553,0.030518
7.884207,0.040715,0.045505,10.051298,0.106883,0.021862,0.000244,0.183105,0.122070,0.000000
7.894303,0.035925,0.051493,10.053094,0.102093,0.027850,0.002040,0.213623,0.152588,0.000000
7.904399,0.038320,0.049098,10.056687,0.104488,0.025455,0.005633,0.213623,0.122070,0.030518
7.914495,0.038919,0.044308,10.047706,0.105087,0.020665,-0.003349,0.183105,0.061035,0.000000
7.924592,0.028141,0.039518,10.047706,0.094309,0.015874,-0.003349,0.122070,0.061035,-0.030518
7.934688,0.032932,0.040715,10.053693,0.099099,0.017072,0.002639,0.091553,0.061035,0.030518
7.944784,0.040117,0.041314,10.052496,0.106284,0.017671,0.001442,0.091553,0.061035,0.000000
7.954881,0.038919,0.036524,10.052496,0.105087,0.012881,0.001442,0.061035,0.030518,0.000000
7.964978,0.040715,0.033530,10.048903,0.106883,0.009887,-0.002151,0.030518,-0.030518,0.030518
7.975074,0.044907,0.036524,10.045311,0.111074,0.012881,-0.005744,0.061035,-0.030518,0.000000
7.985170,0.036524,0.049697,10.056687,0.102692,0.026053,0.005633,0.030518,0.000000,0.000000
7.995266,0.035925,0.047900,10.056687,0.102093,0.024257,0.005633,0.030518,0.000000,0.000000
8.005358,0.037722,0.042512,10.054891,0.103889,0.018868,0.003837,0.030518,0.030518,0.030518
8.015455,0.036524,0.038919,10.053094,0.102692,0.015276,0.002040,0.030518,0.000000,0.030518
8.025551,0.032932,0.035327,10.053094,0.099099,0.011683,0.002040,0.030518,0.000000,0.000000
8.035645,0.032333,0.038919,10.060280,0.098500,0.015276,0.009225,0.030518,0.000000,0.030518
8.045741,0.022154,0.040715,10.059082,0.088322,0.017072,0.008028,0.030518,0.000000,0.000000
8.055838,0.021555,0.044907,10.050101,0.087723,0.021263,-0.000954,0.030518,0.000000,0.000000
8.065935,0.023351,0.042512,10.047107,0.089519,0.018868,-0.003947,0.030518,0.030518,-0.030518
8.076031,0.024549,0.043110,10.050699,0.090717,0.019467,-0.000355,0.030518,0.030518,0.000000
8.086128,0.033530,0.048499,10.055490,0.099698,0.024856,0.004435,0.061035,0.061035,-0.030518
8.096225,0.032333,0.044907,10.056687,0.098500,0.021263,0.005633,0.030518,0.030518,0.000000
8.106321,0.026944,0.045505,10.054292,0.093112,0.021862,0.003238,0.061035,0.061035,0.030518
8.116418,0.029339,0.038919,10.052496,0.095507,0.015276,0.001442,0.030518,0.061035,0.030518
8.126513,0.025746,0.034129,10.051897,0.091914,0.010486,0.000843,0.030518,0.000000,0.000000
8.136610,0.022753,0.036524,10.059681,0.088920,0.012881,0.008627,0.030518,0.000000,0.000000
8.146707,0.032932,0.035327,10.059082,0.099099,0.011683,0.008028,0.000000,0.000000,-0.030518
8.156802,0.033530,0.040715,10.055490,0.099698,0.017072,0.004435,0.000000,0.030518,0.000000
8.166900,0.031734,0.038320,10.051298,0.097902,0.014677,0.000244,0.000000,-0.030518,0.030518
8.176995,0.028740,0.037722,10.044113,0.094908,0.014078,-0.006941,-0.030518,0.000000,0.030518
8.187091,0.032932,0.034129,10.051897,0.099099,0.010486,0.000843,-0.030518,-0.030518,0.030518
8.197187,0.033530,0.036524,10.054891,0.099698,0.012881,0.003837,0.000000,0.030518,0.030518
8.207283,0.032333,0.037722,10.056088,0.098500,0.014078,0.005034,0.000000,0.030518,0.000000
8.217381,0.025148,0.047900,10.048304,0.091315,0.024257,-0.002750,0.030518,0.000000,-0.030518
8.227476,0.028740,0.044907,10.045909,0.094908,0.021263,-0.005145,0.030518,-0.030518,-0.030518
8.237572,0.026345,0.041913,10.050101,0.092513,0.018270,-0.000954,0.000000,-0.030518,-0.030518
8.247668,0.035925,0.048499,10.045909,0.102093,0.024856,-0.005145,0.000000,-0.030518,-0.030518
8.257765,0.039518,0.043709,10.041119,0.105685,0.020066,-0.009935,0.030518,-0.030518,-0.030518
8.267861,0.041314,0.029938,10.045311,0.107482,0.006294,-0.005744,0.030518,0.000000,-0.030518
8.277957,0.042512,0.023950,10.041119,0.108679,0.000307,-0.009935,0.061035,0.030518,0.000000
8.288053,0.037123,0.028740,10.050101,0.103290,0.005097,-0.000954,0.030518,0.000000,0.000000
8.298150,0.031135,0.032932,10.048903,0.097303,0.009288,-0.002151,0.091553,0.030518,0.000000
8.308246,0.029938,0.035925,10.050101,0.096105,0.012282,-0.000954,0.061035,0.000000,0.000000
8.318343,0.031135,0.030536,10.043514,0.097303,0.006893,-0.007540,0.061035,0.000000,0.000000
8.328436,0.035327,0.028740,10.042916,0.101494,0.005097,-0.008139,0.061035,0.000000,-0.030518
8.338532,0.034129,0.031135,10.054292,0.100297,0.007492,0.003238,0.061035,0.030518,-0.030518
8.348629,0.029339,0.034129,10.056088,0.095507,0.010486,0.005034,0.030518,0.030518,-0.030518
8.358726,0.025148,0.035925,10.054292,0.091315,0.012282,0.003238,0.030518,0.000000,-0.061035
8.368821,0.017963,0.035925,10.050699,0.084130,0.012282,-0.000355,0.000000,0.030518,-0.061035
8.378917,0.017963,0.029938,10.045909,0.084130,0.006294,-0.005145,0.030518,0.061035,0.000000
8.389013,0.019160,0.025148,10.047107,0.085328,0.001504,-0.003947,0.000000,0.030518,0.000000
8.399110,0.020956,0.022753,10.047706,0.087124,-0.000891,-0.003349,0.030518,0.000000,-0.030518
8.409205,0.028740,0.034129,10.044113,0.094908,0.010486,-0.006941,0.030518,0.030518,0.000000
8.419298,0.031734,0.041913,10.047706,0.097902,0.018270,-0.003349,0.061035,0.030518,0.000000
8.429394,0.034728,0.030536,10.048304,0.100895,0.006893,-0.002750,0.061035,0.061035,0.000000
8.439490,0.035327,0.031734,10.057286,0.101494,0.008091,0.006232,0.030518,0.061035,0.000000
8.449611,0.041314,0.031135,10.054891,0.107482,0.007492,0.003837,0.030518,0.030518,0.030518
8.459707,0.035327,0.031734,10.053693,0.101494,0.008091,0.002639,0.030518,0.030518,0.030518
8.469803,0.028740,0.031135,10.045909,0.094908,0.007492,-0.005145,0.000000,0.000000,0.030518
8.479899,0.035327,0.042512,10.051298,0.101494,0.018868,0.000244,0.000000,0.000000,0.030518
8.489995,0.034728,0.044308,10.057286,0.100895,0.020665,0.006232,0.000000,0.000000,-0.030518
8.500091,0.034728,0.044308,10.056088,0.100895,0.020665,0.005034,0.030518,0.030518,-0.030518
8.510188,0.033530,0.043709,10.057885,0.099698,0.020066,0.006830,0.000000,0.030518,0.000000
8.520283,0.034129,0.029938,10.054891,0.100297,0.006294,0.003837,0.030518,0.000000,-0.030518
8.530379,0.034728,0.033530,10.051897,0.100895,0.009887,0.000843,0.000000,0.000000,-0.061035
8.540475,0.033530,0.034728,10.059681,0.099698,0.011084,0.008627,0.000000,0.030518,-0.030518
8.550571,0.038320,0.031135,10.053693,0.104488,0.007492,0.002639,0.000000,0.030518,-0.030518
8.560668,0.035327,0.032333,10.050699,0.101494,0.008689,-0.000355,0.000000,0.030518,0.000000
8.570765,0.035925,0.040715,10.045909,0.102093,0.017072,-0.005145,0.000000,0.030518,0.000000
8.580860,0.035925,0.032333,10.046508,0.102093,0.008689,-0.004546,0.000000,-0.030518,0.030518
8.590956,0.040117,0.035327,10.051897,0.106284,0.011683,0.000843,-0.030518,0.000000,-0.030518
8.601053,0.043709,0.044907,10.051897,0.109877,0.021263,0.000843,-0.030518,0.000000,0.000000
8.611147,0.041913,0.043110,10.050101,0.108080,0.019467,-0.000954,-0.061035,-0.030518,0.000000
8.621243,0.046703,0.045505,10.040521,0.112871,0.021862,-0.010534,-0.091553,0.000000,0.000000
8.631338,0.044308,0.043709,10.043514,0.110476,0.020066,-0.007540,-0.061035,0.030518,-0.030518
8.641433,0.034728,0.044308,10.051897,0.100895,0.020665,0.000843,-0.061035,0.000000,0.000000
8.651529,0.032333,0.045505,10.055490,0.098500,0.021862,0.004435,-0.061035,0.061035,-0.030518
8.661624,0.028740,0.045505,10.050101,0.094908,0.021862,-0.000954,0.000000,0.030518,-0.030518
8.671719,0.034728,0.042512,10.048903,0.100895,0.018868,-0.002151,-0.030518,0.030518,-0.030518
8.681814,0.037123,0.041913,10.050699,0.103290,0.018270,-0.000355,0.000000,0.030518,0.000000
8.691910,0.039518,0.032932,10.049502,0.105685,0.009288,-0.001552,-0.030518,0.000000,0.000000
8.702005,0.034129,0.038320,10.048304,0.100297,0.014677,-0.002750,-0.030518,0.000000,-0.030518
8.712100,0.033530,0.039518,10.050101,0.099698,0.015874,-0.000954,-0.061035,0.000000,-0.030518
8.722194,0.032932,0.046703,10.048304,0.099099,0.023060,-0.002750,0.000000,-0.030518,-0.030518
8.732291,0.037123,0.036524,10.056088,0.103290,0.012881,0.005034,-0.030518,0.000000,-0.061035
8.742388,0.031135,0.038320,10.060280,0.097303,0.014677,0.009225,0.000000,-0.030518,-0.030518
8.752484,0.029339,0.038320,10.060878,0.095507,0.014677,0.009824,0.000000,0.030518,-0.030518
8.762580,0.029938,0.043110,10.057286,0.096105,0.019467,0.006232,0.000000,0.030518,0.000000
8.772675,0.040117,0.043110,10.055490,0.106284,0.019467,0.004435,0.000000,0.030518,-0.030518
8.782771,0.041913,0.034129,10.055490,0.108080,0.010486,0.004435,0.000000,0.000000,0.000000
8.792866,0.036524,0.035925,10.059082,0.102692,0.012282,0.008028,0.000000,0.000000,0.030518
8.802962,-0.003593,0.185015,10.050699,0.062575,0.161372,-0.000355,0.000000,0.030518,0.152588
8.813057,0.095801,0.598755,10.021959,0.161968,0.575112,-0.029095,-0.061035,0.122070,3.082275
8.823152,0.340692,0.102387,10.077045,0.406859,0.078744,0.025990,0.640869,0.762939,14.709473
8.833248,0.129331,0.094603,10.042317,0.195499,0.070960,-0.008737,0.976562,1.342773,17.761230
8.843343,-0.186213,-0.046703,10.051897,-0.120045,-0.070346,0.000843,0.579834,0.732422,14.007568
8.853439,-0.080832,-0.074844,10.059082,-0.014664,-0.098488,0.008028,0.488281,0.610352,12.237549
8.863534,-0.047302,-0.126936,10.062076,0.018866,-0.150579,0.011022,0.488281,0.488281,10.253906
8.873629,-0.059875,-0.056882,10.059082,0.006292,-0.080525,0.008028,0.427246,0.335693,6.500244
8.883724,-0.143102,0.020956,10.062076,-0.076935,-0.002687,0.011022,0.335693,0.244141,5.249023
8.893819,-0.076641,0.088616,10.047107,-0.010473,0.064972,-0.003947,0.366211,0.122070,3.356934
8.903913,0.065264,0.007185,10.046508,0.131432,-0.016458,-0.004546,0.640869,0.183105,2.716064
8.914009,0.114362,0.002994,10.044113,0.180530,-0.020650,-0.006941,0.823975,0.213623,1.037598
8.924104,0.102986,-0.009580,10.047107,0.169153,-0.033223,-0.003947,0.701904,0.183105,0.366211
8.934198,0.082029,-0.018561,10.053693,0.148197,-0.042205,0.002639,0.305176,0.061035,0.030518
8.944293,0.071252,0.013173,10.061477,0.137419,-0.010471,0.010423,0.091553,0.061035,0.030518
8.954389,0.085023,0.026944,10.057885,0.151191,0.003301,0.006830,-0.061035,0.061035,0.000000
8.964484,0.362845,0.047302,10.043514,0.429013,0.023658,-0.007540,-0.305176,-0.030518,-0.732422
8.974579,0.427511,0.072449,10.047107,0.493679,0.048806,-0.003947,-0.579834,-0.122070,-1.647949
8.984674,0.331710,0.043709,10.057286,0.397878,0.020066,0.006232,-0.488281,-0.091553,-3.387451
8.994769,0.239502,0.019160,10.063872,0.305670,-0.004483,0.012818,-0.305176,0.030518,-3.479004
9.004864,0.253872,0.010778,10.053094,0.320040,-0.012866,0.002040,0.061035,0.335693,-2.502441
9.014960,0.259261,0.007784,10.045311,0.325429,-0.015860,-0.005744,0.000000,0.488281,-2.044678
9.025055,0.371228,0.031734,10.033934,0.437396,0.008091,-0.017120,0.122070,0.640869,-1.190186
9.035150,0.572410,0.113763,10.052496,0.638577,0.090120,0.001442,0.579834,0.885010,-0.701904
9.045245,0.529299,-0.002994,10.042916,0.595467,-0.026637,-0.008139,0.823975,0.946045,-0.671387
9.055341,0.511337,0.054487,10.030342,0.577504,0.030843,-0.020712,1.159668,1.129150,0.549316
9.065436,0.480201,-0.044308,10.047107,0.546369,-0.067951,-0.003947,1.342773,1.098633,1.708984
9.075531,0.340093,-0.009580,10.066267,0.406260,-0.033223,0.015213,2.044678,1.434326,5.432129
9.085626,0.607736,-0.005988,10.005194,0.673904,-0.029631,-0.045860,2.593994,1.617432,7.812500
9.095721,0.893342,-0.232317,9.965078,0.959510,-0.255960,-0.085977,3.173828,1.800537,8.453369
9.105816,0.750839,0.228126,9.987231,0.817006,0.204482,-0.063823,3.997803,2.075195,11.108398
9.115912,0.655637,0.712518,9.999805,0.721804,0.688875,-0.051249,4.547119,2.441406,12.542725
9.126004,0.738864,0.286205,9.939331,0.805031,0.262562,-0.111723,0.762939,0.610352,11.108398
9.136096,0.856818,0.150886,10.025552,0.922986,0.127243,-0.025502,0.579834,0.091553,10.589600
9.146192,0.704136,0.026345,10.063872,0.770303,0.002702,0.012818,0.396729,-0.091553,10.131836
9.156287,0.753234,-0.016166,9.872271,0.819401,-0.039810,-0.178784,0.793457,0.213623,11.535645
9.166383,0.676593,0.132325,9.873468,0.742761,0.108681,-0.177586,0.000000,0.091553,12.908936
9.176483,0.781974,0.144300,10.033934,0.848142,0.120657,-0.017120,-0.396729,0.061035,12.512207
9.186579,0.704734,0.101190,10.054292,0.770902,0.077546,0.003238,-1.678467,-0.457764,11.413574
9.196675,0.808918,-0.054487,10.024354,0.875086,-0.078130,-0.026700,-0.762939,0.793457,9.521484
9.206772,0.655038,0.149090,10.026151,0.721205,0.125447,-0.024904,-0.457764,1.190186,8.453369
9.216869,0.657433,0.082628,10.007589,0.723601,0.058985,-0.043465,-0.732422,1.586914,8.911133
9.226965,0.739462,-0.033530,10.059681,0.805630,-0.057174,0.008627,-0.793457,1.495361,8.666992
9.237058,0.734073,0.016166,10.185419,0.800241,-0.007477,0.134365,-0.488281,2.044678,9.704590
9.247154,0.750240,-0.153880,10.180629,0.816408,-0.177523,0.129575,-0.915527,1.953125,9.674072
9.257248,0.730481,-0.201780,10.217153,0.796649,-0.225424,0.166099,-0.976562,2.197266,9.582520
9.267342,0.535287,-0.008383,10.066866,0.601455,-0.032026,0.015812,0.030518,2.990723,10.711670
9.277438,0.765807,-0.094603,10.008188,0.831975,-0.118247,-0.042866,0.976562,3.509521,13.153076
9.287534,1.058000,0.037722,9.930350,1.124168,0.014078,-0.120704,1.708984,2.960205,14.068604
9.297630,1.144819,0.160466,9.973460,1.210987,0.136823,-0.077594,2.471924,2.960205,13.153076
9.307727,1.077759,0.104782,9.861493,1.143926,0.081139,-0.189561,2.136230,2.166748,10.742188
9.317823,1.302292,0.183219,10.003997,1.368460,0.159576,-0.047058,1.831055,2.105713,9.307861
9.327919,1.226849,0.146695,10.008188,1.293016,0.123052,-0.042866,0.610352,2.197266,7.812500
9.338020,1.199306,0.001796,10.106384,1.265474,-0.021847,0.055329,0.152588,1.800537,4.516602
9.348119,1.600472,-0.074246,10.006392,1.666639,-0.097889,-0.044663,-1.312256,1.831055,3.540039
9.358212,1.405876,-0.156874,9.883647,1.472044,-0.180517,-0.167407,2.136230,3.814697,2.319336
9.368301,1.320255,0.074844,10.019564,1.386422,0.051201,-0.031490,1.953125,3.814697,1.800537
9.378394,1.445993,-0.063468,10.114167,1.512161,-0.087111,0.063113,-1.068115,3.631592,-0.671387
9.388482,1.428629,0.147892,10.112970,1.494797,0.124249,0.061916,-0.396729,3.356934,-1.037598
9.398573,1.442401,-0.168849,10.175240,1.508568,-0.192492,0.124186,-0.885010,2.197266,-2.319336
9.408662,1.313069,-0.137714,10.077643,1.379237,-0.161357,0.026589,0.579834,2.136230,-3.204346
9.418752,1.296304,-0.101190,9.992021,1.362472,-0.124833,-0.059033,0.000000,2.716064,-3.845215
9.428841,1.323248,-0.222737,10.262659,1.389416,-0.246380,0.211604,-0.610352,2.899170,-4.608154
9.438931,1.334625,-0.114362,10.019564,1.400792,-0.138006,-0.031490,-0.549316,2.746582,-4.699707
9.449020,1.211281,-0.108973,10.068662,1.277449,-0.132617,0.017608,-0.793457,2.624512,-3.112793
9.459114,1.256188,-0.194595,10.018965,1.322355,-0.218239,-0.032089,-0.701904,2.777100,-2.838135
9.469210,1.507665,0.337698,9.516011,1.573832,0.314054,-0.535043,-3.479004,3.234863,-2.838135
9.479306,1.161584,0.203577,9.658515,1.227752,0.179933,-0.392539,-3.204346,2.929688,-4.913330
9.489401,1.350192,0.158071,9.890832,1.416360,0.134428,-0.160222,-2.624512,2.166748,-3.936768
9.499497,1.095123,-0.280217,10.198592,1.161290,-0.303861,0.147538,-2.014160,0.305176,-5.065918
9.509617,0.867596,0.214354,10.245894,0.933763,0.190711,0.194839,-2.075195,0.274658,-3.967285
9.519713,1.144819,-0.000599,9.824969,1.210987,-0.024242,-0.226085,0.091553,0.244141,-4.943848
9.529809,0.919687,0.209564,9.887838,0.985855,0.185921,-0.163216,1.525879,-0.366211,-4.638672
9.539916,1.081950,-0.120350,9.963281,1.148118,-0.143993,-0.087773,0.274658,-0.030518,-3.997803
9.550062,0.717907,-0.122745,10.025552,0.784075,-0.146388,-0.025502,0.762939,0.427246,-3.204346
9.560152,0.923879,0.082029,9.911788,0.990046,0.058386,-0.139266,-0.427246,1.190186,-2.655029
9.570243,0.563428,-0.145497,9.801019,0.629596,-0.169141,-0.250036,-1.098633,2.258301,-1.739502
9.580333,0.629890,-0.055684,9.935140,0.696058,-0.079328,-0.115914,-0.946045,0.518799,-1.220703
9.590419,0.458047,-0.056283,9.910591,0.524215,-0.079926,-0.140463,-0.244141,0.152588,0.976562
9.600509,0.497565,0.328118,9.818981,0.563733,0.304474,-0.232073,-0.488281,1.220703,2.929688
9.610601,0.693358,-0.020358,9.796827,0.759526,-0.044001,-0.254227,-0.335693,1.647949,2.197266
9.620691,0.038320,0.397573,10.347682,0.104488,0.373930,0.296628,-1.861572,0.976562,2.624512
9.630781,0.422721,0.464634,10.217153,0.488889,0.440990,0.166099,1.220703,0.762939,5.767822
9.640871,0.656834,0.258063,10.184222,0.723002,0.234420,0.133168,1.953125,0.976562,6.042480
9.650956,0.636476,0.169448,10.017169,0.702644,0.145804,-0.033885,2.258301,1.159668,6.561279
9.661048,0.766406,0.318538,9.911190,0.832574,0.294894,-0.139865,2.990723,1.220703,8.789062
9.671145,0.885558,0.511337,9.710008,0.951726,0.487693,-0.341046,-0.061035,1.281738,8.422852
9.681241,0.971779,0.358654,9.975855,1.037947,0.335011,-0.075199,-0.335693,1.708984,8.789062
9.691337,0.256866,0.059875,10.417736,0.323033,0.036232,0.366682,-2.288818,0.030518,8.911133
9.701429,1.214275,-0.073647,10.014774,1.280443,-0.097290,-0.036280,-0.091553,-1.708984,10.223389
9.711525,0.652044,-0.158670,10.069860,0.718212,-0.182313,0.018805,0.793457,0.946045,10.864258
9.721622,0.628693,0.220342,9.971065,0.694860,0.196698,-0.079989,-0.366211,-0.091553,11.047363
9.731717,0.837658,0.359852,9.857302,0.903826,0.336208,-0.193753,1.159668,-1.922607,12.084961
9.741812,0.969384,0.250878,10.121951,1.035552,0.227235,0.070897,-0.762939,-0.793457,9.429932
9.751908,0.830473,0.158071,10.057286,0.896641,0.134428,0.006232,1.190186,0.518799,5.767822
9.762004,0.261656,0.698747,9.992620,0.327824,0.675104,-0.058434,0.305176,1.464844,3.479004
9.772100,0.152682,0.162861,10.351873,0.218850,0.139218,0.300819,-2.441406,-0.396729,-1.525879
9.782195,0.067659,0.019759,10.024354,0.133827,-0.003884,-0.026700,-1.251221,-1.678467,-0.030518
9.792287,0.070054,-0.142504,10.099199,0.136222,-0.166147,0.048144,-0.152588,-2.319336,-0.793457
9.802382,-0.031135,-0.089214,10.104587,0.035032,-0.112858,0.053533,2.197266,-1.403809,1.342773
9.812477,0.079634,-0.289797,10.125544,0.145802,-0.313441,0.074490,-0.396729,-0.885010,0.244141
9.822573,-0.293989,-0.309556,10.084828,-0.227821,-0.333200,0.033774,0.152588,-0.793457,-0.213623
9.832668,-0.047900,-0.394579,10.197394,0.018267,-0.418223,0.146340,1.190186,-0.396729,0.732422
9.842764,-0.052092,-0.271236,9.971065,0.014076,-0.294879,-0.079989,2.014160,-0.701904,-0.335693
9.852859,-0.244891,-0.459245,10.379416,-0.178723,-0.482888,0.328362,0.518799,-1.556396,2.471924
9.862955,0.025746,-0.159868,10.605745,0.091914,-0.183511,0.554691,-1.861572,-1.953125,1.739502
9.873050,-0.188608,-0.227527,10.187216,-0.122440,-0.251170,0.136161,0.122070,-1.464844,0.152588
9.883147,-0.053289,0.076042,10.384805,0.012878,0.052399,0.333750,0.488281,0.762939,-0.244141
9.893241,-0.207768,0.192200,10.130933,-0.141600,0.168557,0.079878,-0.579834,2.014160,-0.457764
9.903336,-0.258662,0.145497,10.227332,-0.192494,0.121854,0.176278,-0.457764,0.762939,1.403809
9.913432,-0.001198,-0.118553,10.226135,0.064970,-0.142197,0.175080,-0.762939,-0.701904,0.305176
9.923588,-0.319136,-0.213157,9.980645,-0.252969,-0.236800,-0.070409,0.885010,-0.549316,3.173828
9.933697,0.047302,-0.034129,9.912387,0.113469,-0.057772,-0.138667,0.183105,-0.213623,4.394531
9.943814,0.035327,-0.074844,10.260862,0.101494,-0.098488,0.209808,0.671387,0.396729,5.920410
9.953914,0.274828,-0.227527,10.230925,0.340996,-0.251170,0.179870,-0.549316,0.000000,6.286621
9.964018,0.089813,0.718506,9.701625,0.155981,0.694863,-0.349429,0.671387,0.274658,5.126953
9.974124,0.545466,0.238903,10.184222,0.611633,0.215260,0.133168,-0.305176,-0.457764,2.593994
9.984262,0.508343,-0.126936,10.087822,0.574511,-0.150579,0.036768,-0.335693,-1.342773,-2.502441
9.994380,0.435894,-0.189805,10.162068,0.502061,-0.213449,0.111014,0.244141,-0.701904,-3.509521
10.004518,0.211360,0.150287,9.788445,0.277528,0.126644,-0.262609,-0.427246,0.366211,-6.927490
10.014647,0.246687,0.040715,9.834549,0.312855,0.017072,-0.216505,1.373291,0.915527,-9.765625
10.024747,-0.125140,-0.204175,10.150093,-0.058972,-0.227819,0.099039,-0.030518,1.617432,-8.483887
10.034861,-0.090412,0.163460,10.360256,-0.024244,0.139817,0.309202,-2.136230,0.213623,-9.704590
10.044985,0.218546,-0.215552,10.036329,0.284713,-0.239195,-0.014725,0.366211,-0.030518,-10.894775
10.055113,-0.313748,0.117955,10.054891,-0.247580,0.094311,0.003837,-0.030518,0.427246,-10.040283
10.065288,0.173639,0.547861,9.577084,0.239807,0.524217,-0.473970,2.136230,0.335693,-6.988525
10.075371,0.140109,0.398771,10.055490,0.206276,0.375127,0.004435,0.915527,-1.342773,-10.009766
10.085443,-0.238304,0.077239,9.960886,-0.172137,0.053596,-0.090168,-0.427246,-1.525879,-9.033203
10.095529,-0.149090,0.363444,9.869277,-0.082922,0.339801,-0.181777,0.305176,-0.701904,-6.256104
10.105597,0.143701,-0.119152,9.680070,0.209869,-0.142796,-0.370984,-0.610352,0.457764,-4.547119
10.115670,0.073048,0.565225,10.014175,0.139216,0.541581,-0.036879,2.258301,-0.488281,-3.723145
10.125742,0.012574,0.819097,9.917177,0.078742,0.795453,-0.133877,2.899170,-1.281738,-2.838135
10.135815,-0.034129,0.617316,9.640552,0.032039,0.593673,-0.410502,2.410889,-1.647949,-1.953125
10.145886,0.565225,0.966390,9.263936,0.631392,0.942747,-0.787119,0.030518,0.061035,-5.493164
10.155958,0.372426,0.453257,10.037527,0.438593,0.429614,-0.013527,2.380371,-0.091553,-7.049561
10.166025,0.422721,-0.217348,10.466834,0.488889,-0.240991,0.415780,4.791260,0.091553,-6.835938
10.176094,0.964594,-0.128732,10.038724,1.030762,-0.152376,-0.012330,-2.319336,-2.136230,-6.988525
10.186165,1.295107,-0.462239,10.081835,1.361274,-0.485882,0.030780,-2.807617,-0.213623,-5.523682
10.196233,1.526226,-0.716710,9.536369,1.592394,-0.740353,-0.514685,-2.075195,0.854492,0.152588
10.206308,1.839974,-0.898132,9.904005,1.906141,-0.921776,-0.147050,-1.739502,0.976562,2.716064
10.216380,1.202300,-0.343685,10.098001,1.268467,-0.367329,0.046947,-0.579834,-0.244141,10.223389
10.226447,1.826202,0.155078,10.050699,1.892370,0.131434,-0.000355,-2.960205,-1.922607,8.880615
10.236514,1.799258,0.168250,9.299861,1.865426,0.144607,-0.751193,-1.647949,-0.305176,9.338379
10.246580,1.448388,-0.164059,9.975855,1.514556,-0.187702,-0.075199,-0.671387,-2.258301,7.598877
10.256646,1.051414,0.168849,10.076446,1.117581,0.145206,0.025392,0.732422,-0.793457,8.270264
10.266715,1.022673,-0.019160,9.920770,1.088841,-0.042803,-0.130285,0.427246,1.190186,5.004883
10.276789,0.485590,0.072449,10.196796,0.551758,0.048806,0.145741,-0.122070,0.701904,4.638672
10.286854,0.777783,-0.146096,10.067465,0.843950,-0.169740,0.016410,0.610352,0.183105,1.373291
10.296920,0.575403,0.059875,10.299781,0.641571,0.036232,0.248727,0.213623,-0.335693,-1.434326
10.306986,0.934656,-0.155676,10.431508,1.000824,-0.179320,0.380453,3.051758,1.281738,-3.295898
10.317052,0.855022,-0.219144,10.029743,0.921190,-0.242788,-0.021311,-3.601074,-2.380371,-8.453369
10.327120,0.395178,-0.551453,9.911788,0.461346,-0.575097,-0.139266,-2.288818,-1.190186,-8.850098
10.337185,-0.255668,-0.470621,10.269245,-0.189501,-0.494265,0.218191,1.770020,-0.183105,-7.141113
10.347251,0.176633,-0.455652,10.017768,0.242800,-0.479296,-0.033286,3.631592,-2.685547,-3.082275
10.357317,-0.268242,-0.792751,10.183623,-0.202075,-0.816395,0.132569,0.915527,-4.028320,-3.601074
10.367383,-0.226329,-0.826282,10.082433,-0.160162,-0.849925,0.031379,0.152588,-1.800537,-0.549316
10.377449,-0.255070,-0.092208,9.983040,-0.188902,-0.115852,-0.068014,2.655029,-0.305176,1.556396
10.387516,-0.187410,0.272433,10.102192,-0.121243,0.248790,0.051138,1.129150,-2.044678,2.105713
10.397606,-0.249082,0.500559,9.997410,-0.182914,0.476916,-0.053644,-0.610352,0.976562,3.479004
10.407673,-0.370031,0.117955,10.075248,-0.303863,0.094311,0.024194,0.579834,-1.037598,0.335693
10.417740,-0.553848,0.271236,10.533895,-0.487681,0.247593,0.482840,2.380371,-1.831055,0.610352
10.427806,0.102986,0.511935,9.959090,0.169153,0.488292,-0.091964,3.692627,0.610352,-0.366211
10.437872,0.183219,0.298779,9.302855,0.249387,0.275135,-0.748200,1.281738,2.410889,-3.295898
10.447959,-0.071851,0.126337,9.923165,-0.005683,0.102694,-0.127890,-1.129150,1.739502,-4.455566
10.458025,0.362845,-0.115560,10.366243,0.429013,-0.139203,0.315189,-2.502441,1.342773,-5.279541
10.468100,0.167053,0.501757,10.536888,0.233220,0.478113,0.485834,-0.244141,0.793457,-5.187988
10.478170,-0.183219,1.202300,9.756711,-0.117051,1.178656,-0.294343,0.274658,-0.701904,-13.397217
10.488237,-0.015568,0.157473,10.696756,0.050600,0.133829,0.645702,-4.547119,-2.258301,-17.395020
10.498303,0.186812,-0.000599,10.744058,0.252979,-0.024242,0.693003,1.373291,0.885010,-19.409180
10.508370,-0.338895,-0.104782,9.988429,-0.272728,-0.128425,-0.062625,0.976562,0.244141,-22.338867
10.518436,0.260458,-0.378413,10.294393,0.326626,-0.402056,0.243338,0.000000,0.366211,-22.644043
10.528506,0.196990,-0.120350,11.069780,0.263158,-0.143993,1.018726,-0.610352,-1.892090,-24.810791
10.538572,-0.819695,-0.076042,10.887759,-0.753528,-0.099685,0.836705,-0.518799,-2.136230,-24.536133
10.548637,-0.971180,0.009580,11.266172,-0.905013,-0.014063,1.215118,-1.403809,-0.488281,-24.078369
10.558710,-0.653840,-0.051493,11.209889,-0.587673,-0.075136,1.158835,-0.183105,-1.464844,-23.956299
10.568776,-0.274828,0.092208,10.265652,-0.208661,0.068565,0.214598,1.953125,-1.800537,-22.583008
10.578842,-0.454455,0.080233,9.715397,-0.388287,0.056590,-0.335657,-0.518799,-2.166748,-25.024414
10.588906,-0.013173,-0.541274,10.044712,0.052995,-0.564918,-0.006342,-3.540039,-1.892090,-26.184082
10.598970,-0.464634,-0.370031,10.294991,-0.398466,-0.393674,0.243937,0.640869,-2.105713,-26.702881
10.609035,-0.463436,-0.227527,9.934541,-0.397269,-0.251170,-0.116513,1.800537,-2.563477,-23.895264
10.619106,-0.371827,-0.476609,9.816586,-0.305659,-0.500252,-0.234468,1.098633,-2.136230,-21.667480
10.629171,-0.359253,-0.589175,9.545350,-0.293085,-0.612818,-0.505704,0.640869,-1.678467,-19.927979
10.639237,-0.554447,-0.493374,9.759705,-0.488279,-0.517017,-0.291350,0.854492,-1.342773,-16.296387
10.649302,-0.585582,-0.340692,10.072255,-0.519415,-0.364335,0.021200,2.410889,0.366211,-13.275146
10.659367,-0.735271,-0.195194,9.975855,-0.669103,-0.218837,-0.075199,2.197266,1.037598,-12.420654
10.669433,-0.936453,0.077838,10.300380,-0.870285,0.054195,0.249326,2.899170,-1.007080,-10.345459
10.679497,-1.058599,0.319735,9.918375,-0.992431,0.296092,-0.132680,3.662109,-2.166748,-5.798340
10.689572,-0.519120,0.223934,10.168055,-0.452953,0.200291,0.117001,1.708984,0.610352,-5.432129
10.699643,-0.471220,0.293989,9.857302,-0.405052,0.270345,-0.193753,1.800537,1.007080,-1.556396
10.709708,-0.008981,0.178429,10.243499,0.057186,0.154786,0.192444,0.885010,0.793457,-1.220703
10.719778,-0.002395,-0.048499,10.218351,0.063773,-0.072142,0.167297,2.258301,-0.274658,-1.892090
10.729844,0.189207,-0.072449,9.773476,0.255374,-0.096093,-0.277578,2.624512,1.525879,-0.671387
10.739909,-0.077239,-0.067061,9.865085,-0.011072,-0.090704,-0.185969,1.251221,-0.091553,-4.333496
10.749980,0.072449,0.076641,9.660910,0.138617,0.052997,-0.390144,0.823975,-0.976562,-4.486084
10.760046,-0.508343,0.089813,10.030342,-0.442175,0.066170,-0.020712,1.068115,0.152588,-8.148193
10.770110,-0.209564,-0.024549,9.582473,-0.143397,-0.048192,-0.468581,0.213623,2.136230,-9.124756
10.780175,-0.783770,0.251477,9.995015,-0.717602,0.227834,-0.056039,1.007080,1.739502,-12.329102
10.790241,-0.513732,-0.004790,10.221345,-0.447564,-0.028433,0.170290,-0.549316,0.183105,-13.671875
10.800307,-0.607137,-0.011975,10.272838,-0.540970,-0.035618,0.221783,0.915527,-1.098633,-14.038086
10.810380,0.374821,-0.056283,9.632769,0.440988,-0.079926,-0.418286,0.091553,0.854492,-15.594482
10.820445,-0.445474,-0.118553,10.059681,-0.379306,-0.142197,0.008627,1.525879,1.312256,-16.937256
10.830511,-0.362845,0.152084,10.330917,-0.296678,0.128440,0.279863,1.556396,0.152588,-18.127441
10.840575,-0.694556,0.477806,9.906998,-0.628388,0.454163,-0.144056,-1.007080,-0.030518,-17.913818
10.850640,-0.682581,0.328716,10.137519,-0.616413,0.305073,0.086465,0.579834,0.305176,-15.228271
10.860704,-0.697549,0.140109,9.683064,-0.631382,0.116465,-0.367990,2.014160,-1.739502,-15.441895
10.870775,-0.738864,0.152682,9.668095,-0.672696,0.129039,-0.382959,2.502441,-3.051758,-11.383057
10.880840,-0.768801,-0.004790,10.050699,-0.702634,-0.028433,-0.000355,0.579834,-1.403809,-10.284424
10.890904,-0.113763,-0.422721,10.196796,-0.047596,-0.446364,0.145741,-0.030518,0.183105,-8.544922
10.900968,-0.267643,0.084424,10.130334,-0.201476,0.060781,0.079280,1.739502,-0.854492,-6.347656
10.911035,-0.401765,0.176633,9.717792,-0.335597,0.152989,-0.333262,1.007080,-1.251221,-4.577637
10.921100,-0.444875,0.532892,10.059082,-0.378707,0.509249,0.008028,-1.770020,0.915527,-1.037598
10.931166,0.352667,0.220941,9.738149,0.418834,0.197297,-0.312905,-4.577637,0.427246,-2.258301
10.941244,0.464035,0.205373,9.818981,0.530203,0.181730,-0.232073,0.762939,1.251221,-1.037598
10.951318,0.395777,0.635878,10.120155,0.461945,0.612234,0.069101,5.340576,1.312256,-5.065918
10.961383,0.139510,0.504152,9.799821,0.205678,0.480508,-0.251233,4.669189,3.143311,-6.561279
10.971450,0.154479,0.954415,10.099797,0.220646,0.930772,0.048743,5.767822,-0.579834,-7.659912
10.981514,0.213755,0.273631,10.090816,0.279923,0.249988,0.039762,-1.342773,-2.471924,-11.169434
10.991580,-0.549657,1.013692,10.265054,-0.483489,0.990049,0.213999,1.495361,-1.312256,-16.693115
11.001647,0.321531,0.052092,9.816586,0.387699,0.028448,-0.234468,-2.593994,-0.946045,-17.944336
11.011718,-0.096400,-0.126936,9.972861,-0.030232,-0.150579,-0.078193,-1.403809,-2.502441,-17.639160
11.021783,-0.276026,0.429906,9.562115,-0.209858,0.406263,-0.488939,-2.319336,-3.906250,-18.310547
11.031849,-0.515528,-0.175435,10.375225,-0.449360,-0.199079,0.324170,-4.791260,-4.028320,-19.866943
11.041915,-0.695154,-0.126337,9.811198,-0.628987,-0.149981,-0.239857,0.610352,-1.586914,-14.190674
11.051981,-0.813109,0.125739,9.579479,-0.746941,0.102095,-0.471575,1.037598,-1.251221,-13.519287
11.062047,-0.822090,0.004790,10.100396,-0.755923,-0.018853,0.049342,-0.244141,1.220703,-8.087158
11.072120,-1.177751,-0.144899,10.248887,-1.111583,-0.168542,0.197833,-1.342773,-0.152588,-9.826660
11.082187,-0.815504,0.226928,10.312954,-0.749336,0.203285,0.261900,1.556396,1.159668,-6.042480
11.092253,-0.756227,0.571811,9.851913,-0.690060,0.548168,-0.199141,-0.579834,0.885010,-7.019043
11.102318,-0.962199,0.583187,10.153685,-0.896031,0.559544,0.102631,0.213623,-0.213623,-5.126953
11.112384,-0.970582,0.474214,10.064471,-0.904414,0.450571,0.013417,-1.525879,0.061035,-4.882812
11.122449,-0.801733,0.417332,9.998608,-0.735565,0.393689,-0.052446,0.366211,0.274658,-3.936768
11.132521,-0.999322,0.718506,9.815988,-0.933154,0.694863,-0.235067,0.427246,0.640869,-2.716064
11.142587,-0.638273,0.648452,10.294393,-0.572105,0.624808,0.243338,4.333496,1.159668,0.244141
11.152662,-1.086141,0.846639,10.220147,-1.019974,0.822996,0.169093,2.258301,-1.037598,-1.617432
11.162728,-0.746647,0.641865,10.101594,-0.680480,0.618222,0.050539,2.319336,-1.892090,-1.892090
11.172793,-0.789159,0.695154,10.111772,-0.722991,0.671511,0.060718,2.075195,-0.610352,-1.068115
11.182858,-0.784369,0.471819,9.927955,-0.718201,0.448176,-0.123100,0.427246,0.122070,-1.495361
11.192923,-0.852028,0.583786,9.986633,-0.785861,0.560143,-0.064422,-1.098633,0.732422,-3.143311
11.202995,-0.532892,0.598755,9.830956,-0.466724,0.575112,-0.220098,-2.044678,2.075195,-2.593994
11.213061,-0.868195,0.618514,10.165062,-0.802027,0.594870,0.114007,-1.281738,2.014160,-3.448486
11.223126,-1.161584,0.661025,10.308164,-1.095417,0.637382,0.257110,-4.730225,-1.892090,-6.622314
11.233191,-0.635878,0.231119,10.074650,-0.569710,0.207476,0.023595,-1.434326,-1.159668,-5.645752
11.243257,-1.139431,0.361648,10.365645,-1.073263,0.338005,0.314590,-1.037598,-1.068115,-5.249023
11.253322,-1.037642,0.288001,10.230326,-0.971475,0.264358,0.179272,2.685547,0.732422,-3.204346
11.263393,-1.058000,0.537682,9.783655,-0.991832,0.514039,-0.267399,3.936768,0.030518,-3.051758
11.273458,-0.203577,0.120948,10.114766,-0.137409,0.097305,0.063712,-2.777100,-0.457764,-8.880615
11.283524,-0.977168,0.096400,9.839938,-0.911000,0.072756,-0.211116,0.000000,0.427246,-7.415771
11.293590,-0.502954,0.117955,9.933942,-0.436786,0.094311,-0.117112,-0.549316,0.030518,-5.401611
11.303656,-0.477806,-0.111967,10.401570,-0.411639,-0.135610,0.350516,-1.312256,-1.220703,-4.608154
11.313722,-0.233514,-0.088017,10.094409,-0.167347,-0.111660,0.043354,-0.488281,-1.800537,-2.593994
11.323826,-0.564626,-0.041314,10.020762,-0.498458,-0.064957,-0.030293,2.868652,-1.373291,4.486084
11.333893,-0.389191,-0.065863,10.312355,-0.323023,-0.089506,0.261301,-1.251221,-2.471924,3.784180
11.343959,-0.559836,-0.228126,10.169253,-0.493668,-0.251769,0.118199,-1.342773,0.152588,7.507324
11.354033,-0.379611,-0.148491,10.027348,-0.313443,-0.172135,-0.023706,-0.671387,-0.061035,6.683350
11.364099,-0.562231,0.051493,10.281220,-0.496063,0.027850,0.230166,0.152588,-0.091553,8.941650
11.374165,-0.846041,-0.382604,10.891351,-0.779873,-0.406248,0.840297,-2.319336,-1.312256,8.514404
11.384236,-0.456251,-0.356858,9.899813,-0.390084,-0.380501,-0.151241,0.823975,0.335693,10.070801
11.394302,-0.735271,-0.247885,9.877659,-0.669103,-0.271528,-0.173395,-2.532959,0.793457,9.338379
11.404368,-0.678389,-0.234113,9.792037,-0.612222,-0.257756,-0.259017,-2.868652,0.671387,10.528564
11.414434,-0.559237,-0.149689,10.005194,-0.493069,-0.173332,-0.045860,-1.831055,0.732422,12.084961
11.424503,-0.584984,-0.128732,9.876462,-0.518816,-0.152376,-0.174592,-0.152588,1.281738,10.681152
11.434570,-1.016686,0.067659,9.599238,-0.950518,0.044016,-0.451816,1.281738,-0.457764,13.031006
11.444643,-0.903521,-0.261057,10.315948,-0.837353,-0.284700,0.264894,0.549316,-0.854492,12.969971
11.454710,-0.918490,0.128732,9.874067,-0.852322,0.105089,-0.176987,-0.518799,0.244141,11.688232
11.464775,-1.084944,-0.162263,10.250085,-1.018776,-0.185906,0.199031,-1.220703,0.915527,9.735107
11.474841,-1.503474,-0.273032,10.273436,-1.437306,-0.296676,0.222382,1.586914,2.044678,12.847900
11.484906,-1.764531,0.314346,10.084230,-1.698363,0.290703,0.033176,0.213623,0.915527,13.336182
11.494972,-1.677711,-0.043110,10.108779,-1.611544,-0.066754,0.057724,-0.427246,0.122070,12.878418
11.505043,-1.858535,0.159269,9.884844,-1.792368,0.135625,-0.166210,1.434326,0.915527,15.319824
11.515109,-1.553170,0.081431,9.945319,-1.487003,0.057787,-0.105736,-0.793457,1.525879,13.610840
11.525175,-1.481918,0.324525,10.227931,-1.415751,0.300882,0.176877,1.861572,2.716064,13.702393
11.535241,-1.988465,0.002994,9.962682,-1.922297,-0.020650,-0.088372,6.195068,3.234863,19.256592
11.545307,-2.044748,-0.003593,10.038724,-1.978580,-0.027236,-0.012330,4.943848,2.014160,19.256592
11.555373,-1.563349,-0.176633,10.030941,-1.497181,-0.200276,-0.020114,-1.586914,-0.823975,18.463135
11.565447,-1.210084,-0.073647,10.179432,-1.143916,-0.097290,0.128378,-0.579834,-0.854492,17.517090
11.575512,-1.175955,0.058079,9.607022,-1.109787,0.034436,-0.444032,-1.708984,0.366211,18.249512
11.585578,-0.564626,-0.296982,10.284214,-0.498458,-0.320626,0.233160,-1.251221,0.030518,18.341064
11.595644,-0.786165,0.001198,10.190209,-0.719998,-0.022446,0.139155,-1.190186,0.640869,18.341064
11.605710,-0.320933,-0.125739,10.012978,-0.254765,-0.149382,-0.038076,1.403809,1.312256,15.197754
11.615777,-0.860411,0.100591,9.990824,-0.794243,0.076947,-0.060230,2.441406,1.312256,14.404297
11.625848,-0.872386,-0.196392,10.093211,-0.806218,-0.220035,0.042157,1.586914,0.701904,9.155273
11.635914,-1.173560,0.053289,9.865085,-1.107392,0.029646,-0.185969,0.305176,0.244141,8.117676
11.645979,-1.026266,-0.105980,10.024354,-0.960098,-0.129623,-0.026700,0.213623,-1.525879,3.204346
11.656044,-1.460363,0.059875,9.964479,-1.394196,0.036232,-0.086575,1.586914,-1.312256,3.295898
11.666110,-1.651366,0.537682,9.988429,-1.585198,0.514039,-0.062625,1.983643,-0.793457,3.143311
11.676176,-1.492097,0.310155,10.005793,-1.425930,0.286512,-0.045261,0.915527,-0.915527,0.030518
11.686244,-1.783092,0.335901,10.062675,-1.716924,0.312258,0.011620,-0.274658,-1.403809,-1.312256
11.696316,-1.456771,0.161664,10.005793,-1.390603,0.138020,-0.045261,-1.159668,-1.586914,-0.610352
11.706381,-1.490301,-0.105980,10.005194,-1.424133,-0.129623,-0.045860,-1.220703,-0.915527,-1.159668
11.716448,-1.648971,-0.059277,10.019564,-1.582803,-0.082920,-0.031490,-1.586914,0.854492,1.434326
11.726514,-1.420845,-0.070054,10.017169,-1.354678,-0.093698,-0.033885,-2.105713,1.190186,2.319336
11.736579,-1.445394,0.019759,10.231523,-1.379227,-0.003884,0.180469,-1.525879,1.312256,4.028320
11.746644,-0.949625,0.068857,10.156080,-0.883458,0.045213,0.105026,1.281738,1.098633,6.561279
11.756711,-1.084345,0.168250,10.134525,-1.018177,0.144607,0.083471,2.777100,1.068115,8.361816
11.766777,-1.253194,0.182021,10.130334,-1.187026,0.158378,0.079280,3.265381,0.305176,8.880615
11.776844,-1.016686,0.160466,10.080637,-0.950518,0.136823,0.029583,3.021240,0.030518,9.552002
11.786909,-1.037043,0.146096,10.042916,-0.970876,0.122453,-0.008139,1.953125,-0.366211,10.528564
11.796975,-1.007704,0.041314,10.045909,-0.941537,0.017671,-0.005145,1.525879,-0.152588,10.650635
11.807041,-0.808918,-0.052092,10.066866,-0.742750,-0.075735,0.015812,0.823975,-0.335693,10.528564
11.817108,-0.846041,0.095801,10.057286,-0.779873,0.072157,0.006232,0.823975,0.152588,9.826660
11.827173,-0.786165,0.027543,10.108180,-0.719998,0.003899,0.057126,-0.274658,0.152588,7.904053
11.837238,-0.646057,-0.099992,10.083032,-0.579889,-0.123635,0.031978,-1.373291,0.213623,5.096436
11.847303,-0.691562,-0.260458,10.090217,-0.625394,-0.284102,0.039163,-1.739502,0.366211,4.211426
11.857369,-0.622106,-0.141905,10.124346,-0.555939,-0.165548,0.073292,-0.671387,0.549316,4.119873
11.867435,-0.578397,0.099992,10.088421,-0.512230,0.076349,0.037367,-0.793457,0.549316,2.807617
11.877501,-0.582589,0.037123,10.075847,-0.516421,0.013479,0.024793,-0.823975,0.640869,2.258301
11.887566,-0.574206,0.169448,10.108180,-0.508038,0.145804,0.057126,-0.366211,0.579834,1.922607
11.897631,-0.666414,0.247885,10.055490,-0.600247,0.224241,0.004435,-0.091553,0.610352,1.220703
11.907698,-0.696951,0.279619,10.078841,-0.630783,0.255975,0.027787,0.335693,0.518799,0.732422
11.917763,-0.816103,0.314346,10.057286,-0.749935,0.290703,0.006232,0.122070,0.488281,0.335693
11.927830,-0.716111,0.263452,10.041718,-0.649943,0.239809,-0.009336,0.030518,0.518799,-0.091553
11.937896,-0.882565,0.196392,10.050699,-0.816397,0.172748,-0.000355,-0.396729,0.396729,-0.671387
11.947962,-0.699346,0.141905,10.042317,-0.633178,0.118262,-0.008737,-0.518799,0.366211,-0.488281
11.958029,-0.581990,0.113165,10.044712,-0.515822,0.089521,-0.006342,-0.518799,0.396729,0.518799
11.968096,-0.601150,0.141306,10.059082,-0.534982,0.117663,0.008028,-0.274658,0.457764,1.190186
11.978163,-0.340093,0.151485,10.047107,-0.273925,0.127842,-0.003947,-0.305176,0.366211,2.532959
11.988230,-0.251477,0.162861,10.051897,-0.185309,0.139218,0.000843,-0.152588,0.427246,3.326416
11.998296,-0.177830,0.167053,10.046508,-0.111663,0.143409,-0.004546,-0.091553,0.427246,4.486084
12.008361,-0.018561,0.191602,10.036329,0.047606,0.167958,-0.014725,-0.183105,0.427246,5.096436
12.018429,0.206570,0.192200,10.026151,0.272738,0.168557,-0.024904,0.366211,0.610352,5.584717
12.028498,0.261057,0.228724,10.035132,0.327225,0.205081,-0.015922,0.122070,0.488281,5.249023
12.038563,0.310155,0.199984,10.036329,0.376323,0.176341,-0.014725,0.274658,0.457764,4.516602
12.048628,0.407752,0.247885,10.036329,0.473920,0.224241,-0.014725,0.183105,0.396729,3.723145
12.058693,0.385598,0.319735,9.996812,0.451766,0.296092,-0.054243,0.061035,0.366211,2.807617
12.068765,0.387993,0.344284,10.009385,0.454161,0.320641,-0.041669,-0.030518,0.152588,-0.427246
12.078830,0.171843,0.235909,10.020163,0.238010,0.212266,-0.030891,-0.061035,0.061035,-1.647949
12.088895,0.016166,0.173639,10.038724,0.082334,0.149996,-0.012330,-0.213623,-0.183105,-2.868652
12.098961,0.001796,0.158670,10.061477,0.067964,0.135027,0.010423,-0.244141,-0.274658,-3.692627
12.109026,-0.150287,0.106578,10.038126,-0.084120,0.082935,-0.012929,-0.366211,-0.396729,-5.004883
12.119091,-0.496368,0.069456,10.045311,-0.430200,0.045812,-0.005744,-0.183105,-0.457764,-6.164551
12.129160,-0.462239,0.120350,10.046508,-0.396071,0.096706,-0.004546,-0.122070,-0.488281,-5.737305
12.139225,-0.529299,0.217947,10.035731,-0.463132,0.194303,-0.015324,-0.244141,-0.396729,-4.486084
12.149290,-0.714315,0.043110,10.075248,-0.648147,0.019467,0.024194,0.030518,-0.274658,-3.387451
12.159354,-0.731678,0.011376,10.053094,-0.665511,-0.012267,0.002040,0.122070,-0.122070,-1.373291
12.169419,-0.727487,0.004790,10.053094,-0.661320,-0.018853,0.002040,0.152588,-0.061035,-0.518799
12.179486,-0.713716,-0.005988,10.067465,-0.647548,-0.029631,0.016410,0.122070,-0.061035,0.274658
12.189559,-0.537083,0.073048,10.054891,-0.470915,0.049405,0.003837,0.152588,0.000000,1.281738
12.199624,-0.453856,0.117356,10.051897,-0.387689,0.093713,0.000843,0.122070,0.061035,1.464844
12.209690,-0.321531,0.138312,10.047107,-0.255364,0.114669,-0.003947,0.061035,0.061035,1.861572
12.219755,-0.272433,0.182021,10.047706,-0.206266,0.158378,-0.003349,0.061035,0.061035,2.014160
12.229820,-0.226329,0.187410,10.050699,-0.160162,0.163767,-0.000355,-0.152588,0.061035,2.716064
12.239885,-0.149090,0.117955,10.046508,-0.082922,0.094311,-0.004546,-0.183105,0.061035,2.655029
12.249956,-0.124541,0.079036,10.043514,-0.058373,0.055392,-0.007540,-0.213623,0.061035,2.441406
12.260021,-0.088017,0.082029,10.038126,-0.021849,0.058386,-0.012929,-0.091553,0.061035,1.617432
12.270087,-0.077239,0.090412,10.041119,-0.011072,0.066769,-0.009935,-0.061035,0.030518,1.220703
12.280152,0.095202,0.116158,10.038126,0.161370,0.092515,-0.012929,-0.030518,0.030518,0.762939
12.290217,0.304766,0.149090,10.032737,0.370934,0.125447,-0.018317,0.152588,0.061035,0.488281
12.300282,0.374821,0.219743,10.020163,0.440988,0.196100,-0.030891,0.305176,-0.091553,-2.410889
12.310352,0.217348,0.213157,10.035132,0.283516,0.189513,-0.015922,0.244141,-0.183105,-4.211426
12.320417,0.212558,0.130529,10.044712,0.278726,0.106885,-0.006342,0.152588,-0.305176,-5.340576
12.330482,0.268242,0.131726,10.035731,0.334410,0.108083,-0.015324,0.305176,-0.335693,-6.530762
12.340547,0.259261,0.109572,10.027947,0.325429,0.085929,-0.023107,0.518799,-0.244141,-7.049561
12.350612,0.115560,0.146096,10.049502,0.181727,0.122453,-0.001552,0.518799,-0.183105,-6.927490
12.360677,0.304167,0.177231,10.018965,0.370335,0.153588,-0.032089,0.457764,-0.244141,-6.164551
12.370747,0.139510,0.177830,10.059681,0.205678,0.154187,0.008627,0.122070,-0.274658,-6.072998
12.380813,0.216151,0.160466,10.039922,0.282318,0.136823,-0.011132,0.244141,-0.244141,-5.126953
12.390878,0.277224,0.174836,10.028546,0.343391,0.151193,-0.022509,0.305176,-0.274658,-4.608154
12.400943,0.132924,0.223336,10.056687,0.199091,0.199692,0.005633,0.427246,-0.305176,-4.455566
12.411008,0.062271,0.208965,10.062076,0.128438,0.185322,0.011022,0.396729,-0.335693,-4.241943
12.421073,0.025148,0.251477,10.045311,0.091315,0.227834,-0.005744,-0.274658,-0.488281,-4.058838
12.431139,0.033530,0.179626,10.047107,0.099698,0.155983,-0.003947,-0.427246,-0.396729,-3.753662
12.441210,0.031135,0.126337,10.041119,0.097303,0.102694,-0.009935,0.244141,-0.091553,-2.960205
12.451275,-0.033530,0.175435,10.049502,0.032637,0.151792,-0.001552,1.556396,0.305176,-1.586914
12.461340,-0.208367,0.165855,10.040521,-0.142199,0.142212,-0.010534,1.068115,0.244141,-1.617432
12.471406,-0.155078,0.136516,10.066267,-0.088910,0.112873,0.015213,0.885010,0.244141,0.091553
12.481470,-0.280217,0.194595,10.039922,-0.214050,0.170952,-0.011132,0.640869,0.213623,0.305176
12.491535,-0.401166,0.156874,10.043514,-0.334998,0.133230,-0.007540,0.091553,0.244141,2.380371
12.501606,-0.325124,0.192799,10.040521,-0.258956,0.169156,-0.010534,-0.061035,0.213623,3.417969
12.511672,-0.211959,0.310155,10.034533,-0.145792,0.286512,-0.016521,0.305176,0.427246,6.805420
12.521737,-0.308359,0.274230,10.029144,-0.242191,0.250586,-0.021910,0.427246,0.549316,7.904053
12.531804,-0.236508,0.338297,10.027348,-0.170341,0.314653,-0.023706,0.518799,0.610352,8.636475
12.541869,-0.314346,0.085622,10.051298,-0.248179,0.061979,0.000244,0.213623,0.610352,8.819580
12.551941,-0.213157,0.187410,10.051298,-0.146989,0.163767,0.000244,0.244141,0.518799,8.453369
12.562021,-0.125739,0.195194,10.024354,-0.059571,0.171551,-0.026700,0.335693,0.518799,8.605957
12.572088,-0.049098,0.226329,10.036329,0.017070,0.202686,-0.014725,0.549316,0.579834,8.514404
12.582155,0.056882,0.261057,10.021959,0.123049,0.237414,-0.029095,0.305176,0.518799,7.720947
12.592220,-0.055085,0.174836,10.042916,0.011082,0.151193,-0.008139,-0.091553,0.396729,6.683350
12.602287,-0.112566,0.102986,10.048903,-0.046398,0.079343,-0.002151,-0.457764,0.305176,5.859375
12.612351,0.022154,0.156275,10.042916,0.088322,0.132632,-0.008139,-0.366211,0.274658,4.852295
12.622424,0.094603,0.246088,10.049502,0.160771,0.222445,-0.001552,-0.335693,0.335693,4.394531
12.632490,-0.132924,0.053289,10.053094,-0.066756,0.029646,0.002040,0.000000,0.305176,3.845215
12.642556,-0.134720,-0.024549,10.062076,-0.068552,-0.048192,0.011022,-0.091553,0.213623,3.204346
12.652622,-0.128134,-0.008383,10.053094,-0.061966,-0.032026,0.002040,-0.274658,0.061035,2.319336
