time,ax_raw,ay_raw,az_raw,ax,ay,az,gx,gy,gz
0.001871,0.067061,-0.279020,10.063273,0.004249,0.007475,0.013652,0.030518,0.030518,0.000000
0.011937,0.049098,-0.273631,10.063872,-0.013714,0.012864,0.014251,0.000000,0.030518,0.000000
0.022001,0.043110,-0.274230,10.063273,-0.019701,0.012265,0.013652,0.000000,0.030518,0.030518
0.032067,0.043110,-0.271835,10.068662,-0.019701,0.014660,0.019041,0.000000,0.030518,0.000000
0.042204,0.055684,-0.288600,10.065668,-0.007127,-0.002105,0.016047,-0.030518,0.061035,0.000000
0.052271,0.058678,-0.290396,10.065070,-0.004134,-0.003902,0.015449,-0.030518,0.061035,0.000000
0.062337,0.061672,-0.290995,10.062076,-0.001140,-0.004500,0.012455,0.000000,0.061035,-0.030518
0.072402,0.065264,-0.295186,10.056088,0.002453,-0.008692,0.006467,0.000000,0.061035,-0.030518
0.082468,0.054487,-0.295785,10.063273,-0.008325,-0.009290,0.013652,0.000000,0.061035,0.000000
0.092537,0.044907,-0.292192,10.066866,-0.017905,-0.005698,0.017245,0.000000,0.030518,0.030518
0.102607,0.038320,-0.285007,10.075248,-0.024491,0.001487,0.025627,0.030518,0.061035,-0.030518
0.112673,0.030536,-0.273631,10.069261,-0.032275,0.012864,0.019640,0.000000,0.030518,-0.030518
0.122736,0.028141,-0.268242,10.065668,-0.034670,0.018252,0.016047,0.000000,0.000000,-0.030518
0.132819,0.034129,-0.270038,10.059082,-0.028683,0.016456,0.009461,0.030518,0.000000,-0.061035
0.142884,0.049697,-0.277822,10.061477,-0.013115,0.008672,0.011856,0.061035,-0.030518,-0.091553
0.152952,0.073647,-0.294587,10.052496,0.010835,-0.008093,0.002875,0.030518,-0.030518,-0.122070
0.163028,0.085622,-0.298779,10.050699,0.022810,-0.012284,0.001079,0.030518,0.000000,-0.091553
0.173092,0.097597,-0.305365,10.049502,0.034785,-0.018871,-0.000119,0.030518,0.000000,-0.030518
0.183156,0.101788,-0.307760,10.050101,0.038977,-0.021266,0.000480,0.000000,0.000000,0.000000
0.193229,0.098795,-0.302371,10.053693,0.035983,-0.015877,0.004072,-0.030518,0.061035,0.000000
0.203295,0.085023,-0.287402,10.044712,0.022212,-0.000908,-0.004909,-0.030518,0.061035,0.000000
0.213359,0.071252,-0.275427,10.052496,0.008440,0.011067,0.002875,-0.030518,0.061035,0.000000
0.223429,0.057480,-0.266446,10.054891,-0.005331,0.020049,0.005270,0.000000,0.061035,0.000000
0.233493,0.049697,-0.259261,10.060280,-0.013115,0.027234,0.010659,0.030518,0.061035,0.000000
0.243558,0.043110,-0.262853,10.060280,-0.019701,0.023641,0.010659,0.030518,0.061035,-0.091553
0.253623,0.047302,-0.276625,10.059082,-0.015510,0.009870,0.009461,0.000000,0.061035,-0.122070
0.265230,0.058678,-0.283211,10.048304,-0.004134,0.003283,-0.001317,-0.061035,0.061035,-0.122070
0.275308,0.060474,-0.291594,10.050699,-0.002337,-0.005099,0.001079,-0.030518,0.061035,-0.091553
0.285375,0.066462,-0.298180,10.053094,0.003650,-0.011685,0.003474,0.030518,0.030518,-0.030518
0.295441,0.070054,-0.310155,10.048304,0.007243,-0.023661,-0.001317,0.030518,0.030518,0.000000
0.305507,0.072449,-0.305964,10.047706,0.009638,-0.019469,-0.001915,0.030518,0.061035,0.030518
0.315577,0.066462,-0.295186,10.045311,0.003650,-0.008692,-0.004310,0.000000,0.061035,0.061035
0.325643,0.056882,-0.289199,10.048903,-0.005930,-0.002704,-0.000718,-0.030518,0.030518,0.061035
0.335709,0.055085,-0.282612,10.054292,-0.007726,0.003882,0.004671,0.000000,0.030518,0.030518
0.345776,0.052690,-0.279619,10.057286,-0.010121,0.006876,0.007665,-0.030518,0.000000,0.000000
0.355843,0.052690,-0.274230,10.054292,-0.010121,0.012265,0.004671,-0.030518,0.000000,-0.030518
0.365908,0.059277,-0.277224,10.045909,-0.003535,0.009271,-0.003712,0.000000,0.000000,-0.030518
0.375973,0.061672,-0.283211,10.040521,-0.001140,0.003283,-0.009100,-0.030518,0.000000,-0.030518
0.386038,0.056283,-0.277224,10.045311,-0.006529,0.009271,-0.004310,-0.030518,0.030518,-0.030518
0.396114,0.059875,-0.282612,10.044712,-0.002936,0.003882,-0.004909,-0.030518,0.030518,-0.030518
0.406181,0.064666,-0.295785,10.045909,0.001854,-0.009290,-0.003712,0.000000,0.030518,-0.030518
0.416248,0.063468,-0.299377,10.044113,0.000656,-0.012883,-0.005508,-0.030518,0.030518,-0.030518
0.426313,0.062869,-0.299377,10.044113,0.000058,-0.012883,-0.005508,-0.030518,0.000000,-0.030518
0.436379,0.056882,-0.293989,10.049502,-0.005930,-0.007494,-0.000119,-0.030518,0.030518,-0.061035
0.446446,0.056283,-0.286804,10.048304,-0.006529,-0.000309,-0.001317,-0.030518,0.030518,-0.030518
0.456512,0.062869,-0.278421,10.055490,0.000058,0.008073,0.005869,0.000000,0.030518,-0.030518
0.466578,0.067659,-0.280217,10.052496,0.004848,0.006277,0.002875,0.000000,0.030518,-0.061035
0.476644,0.077838,-0.273631,10.063273,0.015027,0.012864,0.013652,0.000000,0.000000,-0.061035
0.486709,0.082029,-0.272433,10.065668,0.019218,0.014061,0.016047,0.000000,0.000000,-0.030518
0.496776,0.083227,-0.270637,10.065070,0.020415,0.015857,0.015449,0.000000,0.000000,-0.030518
0.506841,0.075443,-0.271835,10.057885,0.012631,0.014660,0.008264,0.030518,0.000000,-0.030518
0.516915,0.062271,-0.270038,10.057286,-0.000541,0.016456,0.007665,0.000000,0.000000,-0.030518
0.527133,0.050894,-0.273631,10.058483,-0.011917,0.012864,0.008862,0.000000,0.000000,-0.061035
0.537203,0.047302,-0.274828,10.065070,-0.015510,0.011666,0.015449,0.000000,-0.030518,-0.030518
0.547269,0.038919,-0.280217,10.061477,-0.023893,0.006277,0.011856,0.030518,0.030518,-0.030518
0.557336,0.031135,-0.286205,10.061477,-0.031676,0.000290,0.011856,0.061035,0.030518,-0.061035
0.567401,0.019759,-0.293390,10.058483,-0.043053,-0.006895,0.008862,0.030518,0.000000,-0.061035
0.577470,0.019160,-0.295186,10.058483,-0.043651,-0.008692,0.008862,0.030518,0.030518,-0.061035
0.587536,0.024549,-0.298779,10.055490,-0.038263,-0.012284,0.005869,0.061035,0.030518,-0.030518
0.597601,0.037722,-0.298180,10.047107,-0.025090,-0.011685,-0.002514,0.061035,0.000000,0.000000
0.607667,0.044907,-0.290995,10.047107,-0.017905,-0.004500,-0.002514,0.030518,0.000000,0.030518
0.617732,0.067061,-0.286804,10.051897,0.004249,-0.000309,0.002276,0.061035,0.000000,0.000000
0.627798,0.062869,-0.278421,10.053693,0.000058,0.008073,0.004072,0.061035,0.000000,-0.030518
0.637872,0.071851,-0.271236,10.056088,0.009039,0.015259,0.006467,0.061035,-0.030518,-0.030518
0.647938,0.081431,-0.264051,10.050699,0.018619,0.022444,0.001079,0.061035,-0.030518,-0.061035
0.658006,0.084424,-0.258662,10.052496,0.021613,0.027832,0.002875,0.061035,-0.030518,-0.061035
0.668072,0.090412,-0.268841,10.054292,0.027600,0.017654,0.004671,0.061035,-0.030518,-0.091553
0.678138,0.091609,-0.268841,10.057885,0.028798,0.017654,0.008264,0.000000,-0.030518,-0.061035
0.688203,0.080832,-0.291594,10.064471,0.018020,-0.005099,0.014850,0.030518,-0.030518,-0.030518
0.698270,0.073647,-0.296982,10.061477,0.010835,-0.010488,0.011856,0.030518,-0.030518,-0.030518
0.708336,0.071851,-0.303569,10.059082,0.009039,-0.017074,0.009461,0.030518,0.000000,-0.030518
0.718401,0.052092,-0.295785,10.050699,-0.010720,-0.009290,0.001079,0.030518,0.000000,-0.030518
0.728467,0.049697,-0.295186,10.056088,-0.013115,-0.008692,0.006467,0.030518,0.000000,-0.061035
0.738533,0.050894,-0.289797,10.057286,-0.011917,-0.003303,0.007665,0.030518,-0.030518,-0.091553
0.748598,0.048499,-0.281415,10.056088,-0.014312,0.005080,0.006467,0.030518,0.000000,-0.091553
0.758665,0.050894,-0.279020,10.053693,-0.011917,0.007475,0.004072,0.000000,0.000000,-0.091553
0.768738,0.055684,-0.279020,10.050101,-0.007127,0.007475,0.000480,0.000000,0.000000,-0.091553
0.778810,0.064666,-0.276026,10.053693,0.001854,0.010468,0.004072,0.030518,0.030518,-0.061035
0.788885,0.069456,-0.280816,10.060280,0.006644,0.005678,0.010659,0.030518,0.061035,-0.061035
0.798951,0.069456,-0.283211,10.060878,0.006644,0.003283,0.011257,0.030518,0.061035,0.000000
0.809017,0.073647,-0.280217,10.060280,0.010835,0.006277,0.010659,0.030518,0.061035,-0.030518
0.819084,0.076042,-0.283810,10.060280,0.013230,0.002685,0.010659,0.030518,0.091553,0.000000
0.829128,0.076641,-0.295186,10.068063,0.013829,-0.008692,0.018442,0.000000,0.030518,0.000000
0.839193,0.068857,-0.293989,10.068063,0.006045,-0.007494,0.018442,0.000000,0.000000,0.000000
0.849259,0.068857,-0.287402,10.066267,0.006045,-0.000908,0.016646,0.061035,0.030518,-0.061035
0.859324,0.071252,-0.285606,10.061477,0.008440,0.000888,0.011856,0.061035,0.030518,-0.030518
0.869391,0.064067,-0.282612,10.057286,0.001255,0.003882,0.007665,0.061035,0.030518,-0.030518
0.879457,0.058079,-0.278421,10.067465,-0.004732,0.008073,0.017844,0.061035,0.000000,0.000000
0.889534,0.056283,-0.273631,10.060280,-0.006529,0.012864,0.010659,0.030518,0.000000,0.030518
0.899601,0.052092,-0.275427,10.065070,-0.010720,0.011067,0.015449,0.000000,0.000000,0.030518
0.909668,0.048499,-0.274828,10.069860,-0.014312,0.011666,0.020239,-0.030518,0.000000,0.030518
0.919733,0.055684,-0.268841,10.063872,-0.007127,0.017654,0.014251,-0.030518,0.030518,0.030518
0.929799,0.056882,-0.275427,10.068063,-0.005930,0.011067,0.018442,0.000000,0.000000,0.000000
0.939864,0.058079,-0.280217,10.069860,-0.004732,0.006277,0.020239,0.030518,0.000000,0.000000
0.949931,0.069456,-0.291594,10.063872,0.006644,-0.005099,0.014251,0.030518,0.000000,0.000000
0.959996,0.073647,-0.300575,10.056687,0.010835,-0.014080,0.007066,0.030518,0.000000,0.000000
0.970061,0.086819,-0.308958,10.058483,0.024008,-0.022463,0.008862,-0.030518,-0.030518,0.000000
0.980127,0.086819,-0.303569,10.062076,0.024008,-0.017074,0.012455,-0.030518,0.000000,0.000000
0.990195,0.083826,-0.294587,10.064471,0.021014,-0.008093,0.014850,0.000000,0.000000,0.000000
1.000262,0.071851,-0.290396,10.065070,0.009039,-0.003902,0.015449,0.000000,0.030518,0.030518
1.010338,0.067659,-0.289797,10.054292,0.004848,-0.003303,0.004671,0.030518,0.000000,-0.030518
1.020405,0.046703,-0.283211,10.049502,-0.016109,0.003283,-0.000119,0.030518,0.030518,0.000000
1.030470,0.041913,-0.280816,10.053693,-0.020899,0.005678,0.004072,0.000000,0.061035,0.030518
1.040535,0.026944,-0.278421,10.058483,-0.035868,0.008073,0.008862,0.030518,0.030518,0.000000
1.050600,0.027543,-0.276625,10.061477,-0.035269,0.009870,0.011856,0.030518,0.030518,0.000000
1.060666,0.034728,-0.279020,10.060878,-0.028084,0.007475,0.011257,0.030518,0.030518,-0.030518
1.070732,0.035925,-0.275427,10.056088,-0.026886,0.011067,0.006467,0.030518,0.061035,-0.030518
1.080797,0.034728,-0.273631,10.058483,-0.028084,0.012864,0.008862,-0.030518,0.030518,-0.061035
1.090883,0.050295,-0.274230,10.062675,-0.012516,0.012265,0.013054,-0.030518,0.000000,-0.030518
1.100948,0.057480,-0.273631,10.063872,-0.005331,0.012864,0.014251,0.000000,0.000000,-0.030518
1.111013,0.062271,-0.287402,10.060280,-0.000541,-0.000908,0.010659,0.000000,-0.030518,-0.061035
1.121079,0.059277,-0.293989,10.058483,-0.003535,-0.007494,0.008862,-0.030518,0.000000,-0.091553
1.131153,0.064067,-0.303569,10.072853,0.001255,-0.017074,0.023232,0.000000,0.000000,-0.061035
1.141220,0.061672,-0.307161,10.071057,-0.001140,-0.020667,0.021436,-0.030518,0.000000,-0.061035
1.151289,0.064067,-0.306563,10.066866,0.001255,-0.020068,0.017245,0.030518,-0.030518,-0.061035
1.161354,0.064666,-0.295186,10.060878,0.001854,-0.008692,0.011257,0.000000,0.000000,-0.061035
1.171425,0.064067,-0.290995,10.058483,0.001255,-0.004500,0.008862,0.000000,-0.030518,-0.030518
1.181491,0.067659,-0.282014,10.068063,0.004848,0.004481,0.018442,0.030518,0.000000,-0.030518
1.191557,0.062869,-0.285007,10.070458,0.000058,0.001487,0.020837,0.000000,0.000000,-0.061035
1.201628,0.050894,-0.282014,10.062675,-0.011917,0.004481,0.013054,0.061035,-0.030518,-0.061035
1.211693,0.049098,-0.281415,10.065070,-0.013714,0.005080,0.015449,0.030518,-0.030518,-0.030518
1.221759,0.046703,-0.282014,10.058483,-0.016109,0.004481,0.008862,0.030518,0.000000,-0.091553
1.231825,0.049697,-0.279020,10.066866,-0.013115,0.007475,0.017245,0.030518,0.000000,-0.122070
1.241892,0.051493,-0.280217,10.069261,-0.011319,0.006277,0.019640,0.030518,0.000000,-0.122070
1.251958,0.053289,-0.284409,10.066267,-0.009522,0.002086,0.016646,0.030518,0.000000,-0.091553
1.262023,0.056283,-0.294587,10.059681,-0.006529,-0.008093,0.010060,0.000000,-0.030518,-0.091553
1.272091,0.074844,-0.308958,10.053693,0.012033,-0.022463,0.004072,0.061035,-0.030518,-0.061035
1.282157,0.077838,-0.313149,10.052496,0.015027,-0.026654,0.002875,0.061035,-0.030518,-0.030518
1.292222,0.082029,-0.311353,10.056687,0.019218,-0.024858,0.007066,0.061035,0.000000,-0.030518
1.302288,0.086819,-0.307161,10.058483,0.024008,-0.020667,0.008862,0.030518,0.061035,0.000000
1.312358,0.085622,-0.302970,10.062076,0.022810,-0.016475,0.012455,0.030518,0.061035,-0.030518
1.322424,0.077239,-0.289199,10.069261,0.014428,-0.002704,0.019640,0.061035,0.000000,0.000000
1.332491,0.068258,-0.286205,10.069860,0.005446,0.000290,0.020239,0.061035,0.000000,-0.030518
1.342557,0.062869,-0.274828,10.064471,0.000058,0.011666,0.014850,0.061035,0.000000,-0.030518
1.352623,0.062869,-0.274828,10.060878,0.000058,0.011666,0.011257,0.061035,0.030518,-0.030518
1.362705,0.067659,-0.277822,10.058483,0.004848,0.008672,0.008862,0.061035,0.061035,0.000000
1.372799,0.074246,-0.270637,10.058483,0.011434,0.015857,0.008862,0.030518,0.030518,-0.030518
1.382892,0.080233,-0.268841,10.069860,0.017422,0.017654,0.020239,0.030518,0.030518,-0.030518
1.392959,0.076042,-0.271236,10.066866,0.013230,0.015259,0.017245,0.061035,0.030518,-0.030518
1.403034,0.074246,-0.267643,10.061477,0.011434,0.018851,0.011856,0.091553,0.030518,-0.030518
1.413103,0.070653,-0.264051,10.060878,0.007841,0.022444,0.011257,0.061035,0.000000,-0.030518
1.423175,0.064666,-0.262853,10.055490,0.001854,0.023641,0.005869,0.061035,0.030518,-0.030518
1.433240,0.059875,-0.267045,10.063273,-0.002936,0.019450,0.013652,0.030518,0.030518,0.000000
1.443313,0.061672,-0.269440,10.061477,-0.001140,0.017055,0.011856,0.061035,0.000000,-0.030518
1.453379,0.060474,-0.270637,10.063273,-0.002337,0.015857,0.013652,0.030518,0.030518,-0.061035
1.463445,0.063468,-0.280217,10.053693,0.000656,0.006277,0.004072,0.000000,0.000000,-0.061035
1.473511,0.064666,-0.281415,10.053094,0.001854,0.005080,0.003474,0.030518,0.000000,-0.061035
1.483576,0.070054,-0.293989,10.056088,0.007243,-0.007494,0.006467,0.000000,-0.030518,-0.091553
1.493640,0.067061,-0.300575,10.052496,0.004249,-0.014080,0.002875,0.000000,0.000000,-0.091553
1.503705,0.063468,-0.300575,10.050101,0.000656,-0.014080,0.000480,0.000000,0.030518,-0.061035
1.513777,0.052092,-0.296982,10.055490,-0.010720,-0.010488,0.005869,0.000000,0.030518,-0.030518
1.523841,0.044907,-0.292192,10.054891,-0.017905,-0.005698,0.005270,-0.030518,0.061035,-0.030518
1.533913,0.041314,-0.285007,10.062675,-0.021498,0.001487,0.013054,0.000000,0.030518,-0.061035
1.543989,0.043709,-0.282014,10.061477,-0.019103,0.004481,0.011856,-0.030518,0.000000,-0.061035
1.554058,0.055085,-0.277224,10.055490,-0.007726,0.009271,0.005869,0.000000,0.030518,-0.091553
1.564123,0.049697,-0.271236,10.051897,-0.013115,0.015259,0.002276,0.000000,0.030518,-0.091553
1.574196,0.053888,-0.271236,10.052496,-0.008924,0.015259,0.002875,0.000000,0.030518,-0.061035
1.584261,0.059277,-0.266446,10.062675,-0.003535,0.020049,0.013054,-0.030518,-0.030518,-0.091553
1.594326,0.064666,-0.268242,10.066267,0.001854,0.018252,0.016646,-0.030518,-0.030518,-0.061035
1.604392,0.080233,-0.274230,10.053693,0.017422,0.012265,0.004072,-0.030518,0.000000,-0.061035
1.614458,0.086221,-0.279619,10.047706,0.023409,0.006876,-0.001915,-0.030518,0.000000,-0.030518
1.624524,0.086819,-0.288001,10.056687,0.024008,-0.001507,0.007066,0.000000,0.030518,-0.061035
1.634597,0.083227,-0.290396,10.059681,0.020415,-0.003902,0.010060,-0.030518,0.030518,-0.030518
1.644663,0.079634,-0.287402,10.063872,0.016823,-0.000908,0.014251,0.000000,0.030518,-0.030518
1.654728,0.063468,-0.277224,10.065070,0.000656,0.009271,0.015449,0.000000,0.000000,0.000000
1.664793,0.053289,-0.276625,10.067465,-0.009522,0.009870,0.017844,0.000000,-0.030518,0.000000
1.674858,0.060474,-0.283211,10.060280,-0.002337,0.003283,0.010659,-0.030518,0.030518,-0.091553
1.684921,0.061073,-0.281415,10.064471,-0.001739,0.005080,0.014850,0.000000,0.030518,-0.091553
1.694993,0.071252,-0.279020,10.062076,0.008440,0.007475,0.012455,0.000000,0.030518,-0.061035
1.705059,0.070653,-0.274828,10.062675,0.007841,0.011666,0.013054,0.030518,0.030518,-0.061035
1.715123,0.080233,-0.269440,10.064471,0.017422,0.017055,0.014850,0.000000,0.030518,0.030518
1.725189,0.070653,-0.261057,10.071057,0.007841,0.025437,0.021436,-0.061035,0.030518,0.030518
1.735254,0.060474,-0.255668,10.069261,-0.002337,0.030826,0.019640,-0.061035,0.030518,0.030518
1.745319,0.047900,-0.253273,10.065668,-0.014911,0.033221,0.016047,-0.061035,0.030518,0.061035
1.755385,0.043709,-0.259261,10.061477,-0.019103,0.027234,0.011856,-0.061035,0.061035,0.030518
1.765459,0.035327,-0.270637,10.050101,-0.027485,0.015857,0.000480,-0.061035,0.061035,0.030518
1.775525,0.037123,-0.280816,10.056687,-0.025689,0.005678,0.007066,-0.061035,0.061035,0.000000
1.785756,0.040715,-0.283211,10.055490,-0.022096,0.003283,0.005869,-0.030518,0.030518,-0.061035
1.795823,0.036524,-0.310754,10.044712,-0.026288,-0.024259,-0.004909,-0.030518,0.030518,-0.061035
1.805888,0.042512,-0.325723,10.046508,-0.020300,-0.039228,-0.003113,-0.030518,0.000000,-0.091553
1.815953,0.057480,-0.331111,10.053094,-0.005331,-0.044617,0.003474,-0.030518,0.000000,-0.061035
1.826026,0.064067,-0.332309,10.053693,0.001255,-0.045814,0.004072,0.000000,0.030518,-0.061035
1.836092,0.064067,-0.329914,10.070458,0.001255,-0.043419,0.020837,0.030518,0.030518,-0.061035
1.846158,0.065264,-0.317939,10.074650,0.002453,-0.031444,0.025029,0.061035,0.030518,-0.030518
1.856222,0.067061,-0.307161,10.075248,0.004249,-0.020667,0.025627,0.030518,0.030518,-0.030518
1.866287,0.077838,-0.278421,10.063872,0.015027,0.008073,0.014251,-0.030518,0.030518,0.000000
1.876352,0.082029,-0.265847,10.056687,0.019218,0.020647,0.007066,-0.030518,0.030518,-0.030518
1.886426,0.076042,-0.249082,10.062675,0.013230,0.037412,0.013054,-0.030518,0.030518,0.000000
1.896492,0.079036,-0.245490,10.057286,0.016224,0.041005,0.007665,0.000000,0.000000,-0.030518
1.906558,0.077838,-0.228126,10.065070,0.015027,0.058369,0.015449,0.030518,0.030518,-0.030518
1.916622,0.074246,-0.229323,10.067465,0.011434,0.057171,0.017844,0.030518,0.000000,-0.030518
1.926710,0.056882,-0.241298,10.079440,-0.005930,0.045196,0.029819,-0.030518,0.000000,-0.061035
1.936801,0.056283,-0.251477,10.077643,-0.006529,0.035017,0.028022,-0.030518,0.000000,-0.030518
1.946914,0.047302,-0.264051,10.072853,-0.015510,0.022444,0.023232,-0.030518,0.030518,-0.030518
1.957008,0.035327,-0.289797,10.069261,-0.027485,-0.003303,0.019640,-0.061035,0.000000,-0.061035
1.967103,0.040117,-0.303569,10.067465,-0.022695,-0.017074,0.017844,-0.091553,0.000000,-0.061035
1.977197,0.031734,-0.313149,10.071057,-0.031078,-0.026654,0.021436,-0.030518,0.030518,-0.061035
1.987293,0.033530,-0.322130,10.068063,-0.029281,-0.035636,0.018442,-0.061035,0.030518,-0.091553
1.997390,0.040117,-0.319136,10.062675,-0.022695,-0.032642,0.013054,-0.091553,0.000000,-0.091553
2.007504,0.043709,-0.311951,10.063273,-0.019103,-0.025457,0.013652,-0.061035,0.000000,-0.091553
2.017603,0.049098,-0.300575,10.062675,-0.013714,-0.014080,0.013054,-0.030518,0.000000,-0.122070
2.027732,0.063468,-0.286205,10.051897,0.000656,0.000290,0.002276,0.000000,0.000000,-0.122070
2.037825,0.073048,-0.277224,10.053693,0.010236,0.009271,0.004072,0.030518,0.000000,-0.122070
2.047916,0.091011,-0.264051,10.047107,0.028199,0.022444,-0.002514,0.030518,0.000000,-0.122070
2.058007,0.085023,-0.254471,10.056687,0.022212,0.032024,0.007066,0.061035,-0.030518,-0.122070
2.068113,0.061672,-0.256866,10.063273,-0.001140,0.029629,0.013652,0.000000,0.030518,-0.091553
2.078204,0.058678,-0.252076,10.063273,-0.004134,0.034419,0.013652,-0.030518,0.030518,-0.122070
2.088294,0.055085,-0.250280,10.066866,-0.007726,0.036215,0.017245,0.000000,0.000000,-0.091553
2.098384,0.050295,-0.249681,10.067465,-0.012516,0.036814,0.017844,-0.030518,0.000000,-0.122070
2.108475,0.050295,-0.251477,10.066866,-0.012516,0.035017,0.017245,-0.030518,-0.030518,-0.152588
2.118564,0.047900,-0.258063,10.061477,-0.014911,0.028431,0.011856,-0.030518,0.000000,-0.122070
2.128651,0.050295,-0.256267,10.066866,-0.012516,0.030227,0.017245,-0.061035,0.000000,-0.122070
2.138741,0.055085,-0.270637,10.062675,-0.007726,0.015857,0.013054,-0.061035,-0.030518,-0.061035
2.148835,0.061073,-0.282612,10.065070,-0.001739,0.003882,0.015449,-0.061035,-0.030518,-0.091553
2.158926,0.067659,-0.300575,10.069860,0.004848,-0.014080,0.020239,-0.030518,0.000000,-0.030518
2.169014,0.080832,-0.305964,10.066866,0.018020,-0.019469,0.017245,-0.061035,-0.061035,0.000000
2.179105,0.079634,-0.308958,10.066267,0.016823,-0.022463,0.016646,-0.030518,0.000000,0.030518
2.189195,0.078437,-0.302970,10.074051,0.015625,-0.016475,0.024430,-0.030518,0.000000,0.030518
2.199284,0.080233,-0.299377,10.067465,0.017422,-0.012883,0.017844,0.000000,0.000000,0.030518
2.209376,0.076641,-0.295785,10.062076,0.013829,-0.009290,0.012455,0.030518,-0.030518,0.000000
2.219466,0.075443,-0.293390,10.057885,0.012631,-0.006895,0.008264,0.030518,0.000000,-0.061035
2.229552,0.071851,-0.292192,10.062076,0.009039,-0.005698,0.012455,0.000000,-0.030518,-0.152588
2.239641,0.082029,-0.296982,10.063273,0.019218,-0.010488,0.013652,-0.030518,0.000000,-0.152588
2.249732,0.085622,-0.296982,10.065070,0.022810,-0.010488,0.015449,0.000000,0.000000,-0.152588
2.259821,0.078437,-0.298779,10.061477,0.015625,-0.012284,0.011856,0.000000,0.030518,-0.122070
2.269914,0.074246,-0.300575,10.054891,0.011434,-0.014080,0.005270,0.000000,0.000000,-0.091553
2.280005,0.053888,-0.288001,10.065668,-0.008924,-0.001507,0.016047,0.000000,0.030518,-0.061035
2.290094,0.040715,-0.278421,10.074650,-0.022096,0.008073,0.025029,0.000000,0.030518,-0.030518
2.300184,0.021555,-0.262853,10.075847,-0.041256,0.023641,0.026226,0.000000,0.000000,0.000000
2.310275,0.009580,-0.255070,10.069261,-0.053232,0.031425,0.019640,-0.030518,0.000000,-0.061035
2.320364,0.017364,-0.246088,10.067465,-0.045448,0.040406,0.017844,-0.030518,0.030518,-0.091553
2.330454,0.032932,-0.251477,10.075248,-0.029880,0.035017,0.025627,-0.030518,0.000000,-0.122070
2.340545,0.052092,-0.255070,10.080038,-0.010720,0.031425,0.030417,-0.030518,0.000000,-0.152588
2.350634,0.092807,-0.275427,10.080038,0.029995,0.011067,0.030417,-0.030518,-0.030518,-0.122070
2.360723,0.100591,-0.286205,10.079440,0.037779,0.000290,0.029819,-0.061035,0.000000,-0.091553
2.370810,0.123344,-0.293989,10.066866,0.060532,-0.007494,0.017245,-0.091553,0.061035,-0.061035
2.380900,0.116158,-0.289199,10.063872,0.053347,-0.002704,0.014251,-0.091553,0.030518,-0.030518
2.390991,0.115560,-0.290396,10.053693,0.052748,-0.003902,0.004072,-0.030518,0.091553,0.000000
2.401083,0.085023,-0.284409,10.048903,0.022212,0.002086,-0.000718,-0.030518,0.091553,0.000000
2.411173,0.062271,-0.279020,10.058483,-0.000541,0.007475,0.008862,-0.030518,0.091553,-0.030518
2.421276,0.041913,-0.277224,10.054891,-0.020899,0.009271,0.005270,0.030518,0.091553,-0.030518
2.431369,0.034728,-0.282612,10.057286,-0.028084,0.003882,0.007665,0.030518,0.061035,-0.030518
2.441460,0.041913,-0.292192,10.052496,-0.020899,-0.005698,0.002875,0.030518,0.061035,-0.061035
2.451553,0.052092,-0.298779,10.051897,-0.010720,-0.012284,0.002276,-0.030518,0.030518,-0.061035
2.461658,0.082628,-0.323926,10.047706,0.019817,-0.037432,-0.001915,-0.030518,0.061035,-0.030518
2.471748,0.106578,-0.336500,10.052496,0.043767,-0.050006,0.002875,-0.030518,0.091553,0.030518
2.481840,0.129331,-0.344883,10.053693,0.066519,-0.058388,0.004072,0.000000,0.091553,0.061035
2.491933,0.152084,-0.351469,10.054292,0.089272,-0.064975,0.004671,0.030518,0.122070,0.122070
2.502023,0.158071,-0.345482,10.054891,0.095260,-0.058987,0.005270,0.030518,0.122070,0.213623
2.512114,0.138911,-0.317939,10.052496,0.076100,-0.031444,0.002875,0.030518,0.152588,0.244141
2.522206,0.129930,-0.307760,10.054891,0.067118,-0.021266,0.005270,0.061035,0.152588,0.244141
2.532296,0.091011,-0.275427,10.062076,0.028199,0.011067,0.012455,0.122070,0.122070,0.213623
2.542391,0.067061,-0.262255,10.063273,0.004249,0.024240,0.013652,0.122070,0.122070,0.152588
2.552481,0.044907,-0.252076,10.069860,-0.017905,0.034419,0.020239,0.122070,0.091553,0.061035
2.562926,0.020358,-0.241897,10.057286,-0.042454,0.044598,0.007665,0.091553,0.122070,0.061035
2.573014,0.019160,-0.248483,10.049502,-0.043651,0.038011,-0.000119,0.091553,0.122070,0.061035
2.583103,0.032932,-0.264051,10.054891,-0.029880,0.022444,0.005270,0.091553,0.122070,0.061035
2.593207,0.038919,-0.275427,10.054292,-0.023893,0.011067,0.004671,0.061035,0.152588,0.061035
2.603299,0.068857,-0.286804,10.052496,0.006045,-0.000309,0.002875,0.152588,0.122070,0.122070
2.613393,0.077838,-0.295785,10.047107,0.015027,-0.009290,-0.002514,0.122070,0.122070,0.152588
2.623498,0.077239,-0.302371,10.047107,0.014428,-0.015877,-0.002514,0.091553,0.122070,0.213623
2.633670,0.074246,-0.286205,10.056088,0.011434,0.000290,0.006467,0.091553,0.122070,0.244141
2.643759,0.058079,-0.282612,10.060878,-0.004732,0.003882,0.011257,0.091553,0.091553,0.213623
2.653862,0.021555,-0.264650,10.059681,-0.041256,0.021845,0.010060,0.061035,0.122070,0.183105
2.663965,0.002395,-0.254471,10.059681,-0.060417,0.032024,0.010060,0.061035,0.091553,0.122070
2.674055,-0.022154,-0.248483,10.057286,-0.084966,0.038011,0.007665,0.061035,0.061035,0.030518
2.684157,-0.029339,-0.249082,10.058483,-0.092151,0.037412,0.008862,0.061035,0.030518,-0.030518
2.694261,-0.019160,-0.260458,10.062675,-0.081972,0.026036,0.013054,0.000000,0.030518,-0.213623
2.704350,0.000599,-0.267643,10.059681,-0.062213,0.018851,0.010060,0.000000,0.030518,-0.244141
2.714456,0.020956,-0.277224,10.051298,-0.041855,0.009271,0.001677,0.000000,-0.030518,-0.213623
2.724558,0.057480,-0.293989,10.059681,-0.005331,-0.007494,0.010060,-0.030518,-0.030518,-0.152588
2.734650,0.069456,-0.299377,10.060280,0.006644,-0.012883,0.010659,-0.030518,-0.030518,-0.061035
2.744751,0.086819,-0.293989,10.057885,0.024008,-0.007494,0.008264,-0.030518,0.000000,0.000000
2.754869,0.090412,-0.288600,10.049502,0.027600,-0.002105,-0.000119,0.000000,0.000000,0.030518
2.764959,0.091011,-0.282612,10.053094,0.028199,0.003882,0.003474,0.030518,0.000000,0.091553
2.775063,0.089813,-0.285007,10.057286,0.027002,0.001487,0.007665,0.030518,0.000000,0.091553
2.785172,0.091011,-0.282014,10.063273,0.028199,0.004481,0.013652,0.030518,0.000000,0.030518
2.795259,0.099393,-0.293390,10.059681,0.036582,-0.006895,0.010060,0.061035,0.030518,0.030518
2.805366,0.100591,-0.298779,10.059681,0.037779,-0.012284,0.010060,0.030518,0.030518,0.000000
2.815470,0.099393,-0.295186,10.053693,0.036582,-0.008692,0.004072,0.030518,0.061035,-0.030518
2.825560,0.091609,-0.296384,10.054292,0.028798,-0.009889,0.004671,0.030518,0.061035,-0.030518
2.835663,0.079036,-0.293989,10.060878,0.016224,-0.007494,0.011257,0.030518,0.030518,-0.061035
2.845766,0.074246,-0.290396,10.060280,0.011434,-0.003902,0.010659,0.061035,0.030518,-0.091553
2.855854,0.059277,-0.280217,10.061477,-0.003535,0.006277,0.011856,0.061035,0.061035,-0.061035
2.865958,0.038919,-0.272433,10.059681,-0.023893,0.014061,0.010060,0.030518,0.061035,-0.030518
2.876060,0.021555,-0.271236,10.057885,-0.041256,0.015259,0.008264,0.030518,0.091553,0.000000
2.886185,0.012574,-0.261656,10.067465,-0.050238,0.024839,0.017844,0.030518,0.030518,-0.030518
2.896291,0.008981,-0.261656,10.069261,-0.053830,0.024839,0.019640,0.000000,0.030518,-0.030518
2.906401,0.022154,-0.271236,10.069261,-0.040658,0.015259,0.019640,0.030518,0.030518,-0.030518
2.916491,0.032333,-0.279619,10.063273,-0.030479,0.006876,0.013652,0.061035,0.030518,-0.061035
2.926600,0.052690,-0.292791,10.061477,-0.010121,-0.006297,0.011856,0.030518,0.030518,-0.061035
2.936693,0.068258,-0.299976,10.064471,0.005446,-0.013482,0.014850,0.030518,0.030518,-0.030518
2.946782,0.068258,-0.304167,10.062076,0.005446,-0.017673,0.012455,0.030518,0.030518,-0.030518
2.957521,0.071851,-0.300575,10.058483,0.009039,-0.014080,0.008862,0.030518,0.061035,-0.091553
2.967671,0.077838,-0.302371,10.055490,0.015027,-0.015877,0.005869,0.000000,0.061035,-0.122070
2.977968,0.076641,-0.301174,10.051298,0.013829,-0.014679,0.001677,-0.030518,0.061035,-0.122070
2.988090,0.072449,-0.298779,10.053693,0.009638,-0.012284,0.004072,0.000000,0.030518,-0.122070
2.998179,0.069456,-0.288600,10.051897,0.006644,-0.002105,0.002276,0.000000,0.030518,-0.122070
3.008265,0.069456,-0.289199,10.054292,0.006644,-0.002704,0.004671,-0.030518,0.030518,-0.122070
3.018356,0.071252,-0.285606,10.052496,0.008440,0.000888,0.002875,0.000000,0.000000,-0.122070
3.028447,0.063468,-0.279619,10.063872,0.000656,0.006876,0.014251,0.000000,0.000000,-0.122070
3.038528,0.063468,-0.280217,10.060878,0.000656,0.006277,0.011257,0.030518,0.030518,-0.030518
3.048606,0.059875,-0.282612,10.064471,-0.002936,0.003882,0.014850,0.030518,0.000000,-0.030518
3.058684,0.046703,-0.279619,10.059681,-0.016109,0.006876,0.010060,0.030518,0.000000,0.000000
3.068765,0.028740,-0.273631,10.059681,-0.034071,0.012864,0.010060,0.030518,0.061035,0.000000
3.078844,0.020358,-0.268841,10.057286,-0.042454,0.017654,0.007665,0.000000,0.030518,-0.030518
3.088921,0.015568,-0.282014,10.060280,-0.047244,0.004481,0.010659,0.030518,0.030518,-0.091553
3.098998,0.034728,-0.290995,10.057286,-0.028084,-0.004500,0.007665,0.000000,0.061035,-0.122070
3.109076,0.044907,-0.299976,10.057885,-0.017905,-0.013482,0.008264,0.000000,0.000000,-0.122070
3.119153,0.073048,-0.313748,10.048903,0.010236,-0.027253,-0.000718,0.030518,0.000000,-0.122070
3.129230,0.082628,-0.313748,10.051897,0.019817,-0.027253,0.002276,0.030518,0.000000,-0.091553
3.139322,0.094005,-0.301772,10.048903,0.031193,-0.015278,-0.000718,0.091553,0.030518,-0.122070
3.149418,0.089214,-0.296982,10.047706,0.026403,-0.010488,-0.001915,0.030518,0.030518,-0.122070
3.159513,0.073647,-0.279020,10.049502,0.010835,0.007475,-0.000119,0.000000,0.030518,-0.091553
3.169607,0.066462,-0.267045,10.054292,0.003650,0.019450,0.004671,0.030518,0.030518,-0.091553
3.179700,0.059277,-0.257465,10.062675,-0.003535,0.029030,0.013054,0.000000,0.061035,-0.030518
3.189793,0.038320,-0.247286,10.072255,-0.024491,0.039209,0.022634,0.000000,0.030518,-0.030518
3.199888,0.042512,-0.243693,10.068662,-0.020300,0.042801,0.019041,0.000000,0.030518,-0.030518
3.209982,0.052690,-0.246687,10.059082,-0.010121,0.039807,0.009461,0.000000,0.030518,-0.061035
3.220075,0.056882,-0.255070,10.056687,-0.005930,0.031425,0.007066,0.000000,0.000000,-0.061035
3.230170,0.073048,-0.279020,10.059681,0.010236,0.007475,0.010060,-0.030518,0.030518,-0.091553
3.240259,0.078437,-0.286205,10.052496,0.015625,0.000290,0.002875,0.000000,0.061035,-0.091553
3.250349,0.084424,-0.290396,10.048903,0.021613,-0.003902,-0.000718,0.030518,0.061035,-0.061035
3.260438,0.092208,-0.310155,10.057286,0.029397,-0.023661,0.007665,0.030518,0.061035,-0.030518
3.270528,0.086221,-0.311353,10.053693,0.023409,-0.024858,0.004072,0.030518,0.091553,-0.030518
3.280615,0.059875,-0.302371,10.050101,-0.002936,-0.015877,0.000480,0.061035,0.091553,-0.030518
3.290704,0.046104,-0.290995,10.056687,-0.016708,-0.004500,0.007066,0.030518,0.061035,-0.030518
3.300792,0.013173,-0.281415,10.069860,-0.049639,0.005080,0.020239,0.030518,0.061035,-0.091553
3.310881,0.007185,-0.276625,10.069860,-0.055627,0.009870,0.020239,0.000000,0.030518,-0.091553
3.320970,0.035327,-0.279619,10.065668,-0.027485,0.006876,0.016047,0.000000,0.061035,-0.091553
3.331058,0.053289,-0.282612,10.069860,-0.009522,0.003882,0.020239,0.000000,0.030518,-0.091553
3.341147,0.073647,-0.283211,10.066267,0.010835,0.003283,0.016646,0.000000,0.000000,-0.030518
3.351235,0.110171,-0.277822,10.057885,0.047359,0.008672,0.008264,0.030518,0.000000,0.000000
3.361322,0.114362,-0.277224,10.054292,0.051551,0.009271,0.004671,0.000000,0.030518,0.030518
3.371621,0.103585,-0.273631,10.047107,0.040773,0.012864,-0.002514,0.000000,0.000000,0.030518
3.381714,0.092208,-0.268242,10.054292,0.029397,0.018252,0.004671,0.030518,0.000000,0.030518
3.391803,0.069456,-0.260458,10.068662,0.006644,0.026036,0.019041,0.061035,0.000000,0.000000
3.401892,0.065863,-0.260458,10.074051,0.003051,0.026036,0.024430,0.061035,0.030518,-0.030518
3.411982,0.058678,-0.267045,10.070458,-0.004134,0.019450,0.020837,0.030518,0.061035,-0.091553
3.422074,0.057480,-0.281415,10.067465,-0.005331,0.005080,0.017844,0.061035,0.061035,-0.091553
3.432162,0.061672,-0.292791,10.063273,-0.001140,-0.006297,0.013652,0.030518,0.030518,-0.122070
3.442253,0.065863,-0.310754,10.058483,0.003051,-0.024259,0.008862,0.000000,0.030518,-0.061035
3.452346,0.064067,-0.314945,10.060878,0.001255,-0.028451,0.011257,0.000000,0.061035,-0.061035
3.462440,0.049697,-0.307161,10.057885,-0.013115,-0.020667,0.008264,0.000000,0.030518,-0.030518
3.472540,0.044907,-0.289797,10.060878,-0.017905,-0.003303,0.011257,0.030518,0.061035,0.000000
3.482628,0.043110,-0.275427,10.061477,-0.019701,0.011067,0.011856,0.061035,0.000000,0.030518
3.492776,0.040715,-0.265847,10.069261,-0.022096,0.020647,0.019640,0.091553,0.000000,0.061035
3.502868,0.046104,-0.259860,10.065668,-0.016708,0.026635,0.016047,0.122070,0.061035,0.030518
3.512956,0.061672,-0.254471,10.057885,-0.001140,0.032024,0.008264,0.091553,0.030518,0.030518
3.523047,0.063468,-0.255668,10.061477,0.000656,0.030826,0.011856,0.061035,0.030518,0.030518
3.533140,0.076042,-0.267045,10.066267,0.013230,0.019450,0.016646,0.030518,0.000000,-0.030518
3.543230,0.083826,-0.279619,10.065668,0.021014,0.006876,0.016047,0.000000,0.000000,-0.030518
3.553318,0.090412,-0.299976,10.065070,0.027600,-0.013482,0.015449,0.030518,0.030518,-0.030518
3.563422,0.089813,-0.304167,10.060878,0.027002,-0.017673,0.011257,0.030518,0.061035,-0.061035
3.573511,0.085622,-0.304167,10.055490,0.022810,-0.017673,0.005869,0.061035,0.061035,-0.030518
3.583611,0.079634,-0.296384,10.063273,0.016823,-0.009889,0.013652,0.030518,0.030518,0.000000
3.593711,0.068857,-0.292192,10.061477,0.006045,-0.005698,0.011856,0.061035,0.061035,-0.030518
3.603799,0.044308,-0.288001,10.058483,-0.018504,-0.001507,0.008862,0.030518,0.030518,0.000000
3.613900,0.036524,-0.283810,10.059681,-0.026288,0.002685,0.010060,0.030518,0.030518,0.000000
3.624001,0.033530,-0.268841,10.058483,-0.029281,0.017654,0.008862,0.000000,0.030518,0.030518
3.634090,0.032932,-0.266446,10.063273,-0.029880,0.020049,0.013652,0.030518,0.000000,0.030518
3.644191,0.026345,-0.261656,10.063273,-0.036466,0.024839,0.013652,0.030518,-0.030518,0.030518
3.654291,0.035327,-0.262853,10.059681,-0.027485,0.023641,0.010060,0.030518,-0.061035,0.000000
3.664379,0.043110,-0.261057,10.053094,-0.019701,0.025437,0.003474,0.030518,0.000000,-0.030518
3.674483,0.055085,-0.275427,10.054292,-0.007726,0.011067,0.004671,0.030518,0.000000,-0.091553
3.684583,0.065264,-0.285606,10.062675,0.002453,0.000888,0.013054,0.030518,-0.030518,-0.091553
3.694675,0.081431,-0.290396,10.069860,0.018619,-0.003902,0.020239,0.030518,0.000000,-0.122070
3.704775,0.086221,-0.298180,10.062675,0.023409,-0.011685,0.013054,0.030518,-0.030518,-0.091553
3.714875,0.088017,-0.296384,10.057286,0.025205,-0.009889,0.007665,0.000000,0.000000,-0.091553
3.724976,0.083826,-0.299377,10.053693,0.021014,-0.012883,0.004072,0.000000,0.000000,-0.061035
3.735064,0.077838,-0.288600,10.063872,0.015027,-0.002105,0.014251,-0.030518,0.000000,-0.061035
3.745168,0.066462,-0.279020,10.072853,0.003650,0.007475,0.023232,-0.030518,0.000000,-0.030518
3.755270,0.063468,-0.268841,10.065070,0.000656,0.017654,0.015449,-0.030518,0.030518,-0.030518
3.765357,0.062869,-0.263452,10.059082,0.000058,0.023042,0.009461,-0.030518,0.030518,-0.030518
3.775458,0.063468,-0.268242,10.058483,0.000656,0.018252,0.008862,-0.030518,0.030518,-0.061035
3.785569,0.070054,-0.286205,10.062675,0.007243,0.000290,0.013054,-0.030518,0.030518,-0.091553
3.795660,0.072449,-0.292192,10.059681,0.009638,-0.005698,0.010060,-0.030518,0.030518,-0.091553
3.805766,0.076641,-0.292192,10.056088,0.013829,-0.005698,0.006467,-0.030518,0.030518,-0.091553
3.815866,0.067061,-0.295785,10.057286,0.004249,-0.009290,0.007665,0.030518,0.000000,-0.122070
3.825958,0.061073,-0.295785,10.056088,-0.001739,-0.009290,0.006467,0.030518,0.030518,-0.122070
3.836062,0.046703,-0.301174,10.069860,-0.016109,-0.014679,0.020239,0.000000,0.030518,-0.122070
3.846165,0.044907,-0.298779,10.068662,-0.017905,-0.012284,0.019041,-0.030518,0.000000,-0.091553
3.856256,0.056283,-0.300575,10.065668,-0.006529,-0.014080,0.016047,-0.061035,-0.030518,-0.091553
3.866360,0.061073,-0.297581,10.061477,-0.001739,-0.011087,0.011856,-0.030518,0.000000,-0.122070
3.876462,0.070054,-0.295785,10.066866,0.007243,-0.009290,0.017245,-0.122070,-0.061035,-0.152588
3.886554,0.087418,-0.285606,10.063872,0.024607,0.000888,0.014251,-0.122070,-0.061035,-0.122070
3.896657,0.090412,-0.283810,10.066866,0.027600,0.002685,0.017245,-0.122070,-0.061035,-0.122070
3.906760,0.085622,-0.268242,10.062076,0.022810,0.018252,0.012455,-0.183105,-0.091553,-0.091553
3.916850,0.088017,-0.257465,10.053094,0.025205,0.029030,0.003474,-0.152588,-0.061035,-0.061035
3.926951,0.086221,-0.256866,10.057286,0.023409,0.029629,0.007665,-0.122070,-0.091553,-0.061035
3.937050,0.087418,-0.250878,10.053094,0.024607,0.035616,0.003474,-0.122070,-0.091553,-0.061035
3.947140,0.077838,-0.249681,10.063273,0.015027,0.036814,0.013652,-0.122070,-0.091553,-0.030518
3.957235,0.054487,-0.238304,10.068063,-0.008325,0.048190,0.018442,-0.152588,-0.091553,0.000000
3.967333,0.035327,-0.227527,10.069860,-0.027485,0.058968,0.020239,-0.152588,-0.122070,-0.030518
3.977424,0.004191,-0.210762,10.073452,-0.058620,0.075733,0.023831,-0.152588,-0.152588,-0.061035
3.987533,0.004191,-0.219144,10.067465,-0.058620,0.067350,0.017844,-0.183105,-0.183105,-0.061035
3.997638,0.035925,-0.268242,10.054891,-0.026886,0.018252,0.005270,-0.091553,-0.091553,-0.091553
4.007728,0.055684,-0.296384,10.058483,-0.007127,-0.009889,0.008862,-0.091553,-0.091553,-0.091553
4.017821,0.083227,-0.319136,10.052496,0.020415,-0.032642,0.002875,-0.061035,-0.091553,-0.061035
4.027925,0.128134,-0.355062,10.048304,0.065322,-0.068567,-0.001317,-0.091553,-0.061035,-0.030518
4.038016,0.137115,-0.368234,10.044712,0.074303,-0.081740,-0.004909,-0.030518,-0.061035,0.030518
4.048107,0.118553,-0.371228,10.045311,0.055742,-0.084734,-0.004310,-0.061035,0.000000,0.030518
4.058202,0.108973,-0.361049,10.045909,0.046162,-0.074555,-0.003712,-0.030518,0.000000,0.030518
4.068291,0.076641,-0.325723,10.051897,0.013829,-0.039228,0.002276,-0.030518,0.000000,0.030518
4.078382,0.069456,-0.308958,10.062675,0.006644,-0.022463,0.013054,-0.030518,0.030518,0.030518
4.088470,0.050894,-0.282612,10.065070,-0.011917,0.003882,0.015449,-0.030518,0.030518,0.000000
4.098560,0.049697,-0.266446,10.060878,-0.013115,0.020049,0.011257,-0.030518,0.030518,0.000000
4.108651,0.056283,-0.256267,10.061477,-0.006529,0.030227,0.011856,0.000000,0.030518,-0.061035
4.118742,0.064666,-0.252076,10.060280,0.001854,0.034419,0.010659,-0.030518,0.061035,-0.061035
4.128832,0.070653,-0.253273,10.059681,0.007841,0.033221,0.010060,-0.030518,0.000000,-0.061035
4.138923,0.070054,-0.264051,10.063273,0.007243,0.022444,0.013652,-0.030518,0.030518,-0.030518
4.149014,0.067659,-0.279020,10.063872,0.004848,0.007475,0.014251,-0.061035,0.030518,0.000000
4.159101,0.065264,-0.289797,10.057885,0.002453,-0.003303,0.008264,-0.091553,0.030518,0.030518
4.169191,0.061672,-0.298180,10.052496,-0.001140,-0.011685,0.002875,-0.061035,0.000000,0.030518
4.179279,0.061672,-0.305964,10.057885,-0.001140,-0.019469,0.008264,-0.061035,0.030518,0.030518
4.189366,0.065264,-0.326321,10.053094,0.002453,-0.039827,0.003474,-0.030518,0.061035,0.000000
4.199454,0.063468,-0.331111,10.051298,0.000656,-0.044617,0.001677,-0.030518,0.091553,0.000000
4.209545,0.076641,-0.329315,10.041718,0.013829,-0.042821,-0.007903,0.030518,0.061035,0.000000
4.219634,0.078437,-0.329315,10.036928,0.015625,-0.042821,-0.012693,0.030518,0.061035,-0.061035
4.229725,0.080832,-0.324525,10.044113,0.018020,-0.038031,-0.005508,0.091553,0.061035,-0.091553
4.239815,0.078437,-0.320334,10.048304,0.015625,-0.033839,-0.001317,0.061035,0.061035,-0.061035
4.249905,0.070653,-0.314346,10.047107,0.007841,-0.027852,-0.002514,0.061035,0.030518,-0.030518
4.259995,0.064067,-0.288001,10.054292,0.001255,-0.001507,0.004671,0.030518,0.030518,-0.030518
4.270085,0.056283,-0.280816,10.054891,-0.006529,0.005678,0.005270,0.000000,0.030518,0.000000
4.280174,0.058079,-0.274828,10.067465,-0.004732,0.011666,0.017844,-0.061035,0.000000,0.000000
4.290265,0.052092,-0.263452,10.071057,-0.010720,0.023042,0.021436,-0.091553,-0.030518,-0.030518
4.300355,0.060474,-0.262853,10.072255,-0.002337,0.023641,0.022634,-0.091553,-0.030518,0.000000
4.310444,0.060474,-0.267643,10.069261,-0.002337,0.018851,0.019640,-0.091553,0.000000,0.000000
4.320531,0.067061,-0.268841,10.064471,0.004249,0.017654,0.014850,-0.122070,0.000000,0.030518
4.330621,0.090412,-0.279619,10.066866,0.027600,0.006876,0.017245,-0.152588,-0.030518,0.030518
4.340710,0.101788,-0.289797,10.072853,0.038977,-0.003303,0.023232,-0.122070,-0.030518,0.030518
4.350800,0.117955,-0.300575,10.075847,0.055143,-0.014080,0.026226,-0.183105,0.030518,0.030518
4.360892,0.124541,-0.302970,10.059082,0.061729,-0.016475,0.009461,-0.183105,0.061035,0.030518
4.370980,0.119751,-0.301772,10.053094,0.056939,-0.015278,0.003474,-0.183105,0.000000,0.030518
4.381070,0.107776,-0.300575,10.057286,0.044964,-0.014080,0.007665,-0.183105,0.061035,0.061035
4.391160,0.089813,-0.299377,10.060878,0.027002,-0.012883,0.011257,-0.152588,0.091553,0.061035
4.401249,0.055085,-0.282612,10.063872,-0.007726,0.003882,0.014251,-0.122070,0.122070,0.030518
4.411340,0.040715,-0.279619,10.056687,-0.022096,0.006876,0.007066,-0.152588,0.091553,0.030518
4.421429,0.014969,-0.277224,10.045311,-0.047843,0.009271,-0.004310,-0.183105,0.122070,0.000000
4.431518,0.017364,-0.279020,10.053094,-0.045448,0.007475,0.003474,-0.183105,0.061035,0.000000
4.441605,0.013173,-0.283211,10.051298,-0.049639,0.003283,0.001677,-0.183105,0.030518,0.000000
4.451694,0.016765,-0.286205,10.048304,-0.046046,0.000290,-0.001317,-0.152588,0.061035,0.000000
4.461784,0.031734,-0.299377,10.047706,-0.031078,-0.012883,-0.001915,-0.122070,0.030518,0.000000
4.471872,0.032932,-0.307161,10.052496,-0.029880,-0.020667,0.002875,-0.122070,0.030518,0.030518
4.481962,0.035925,-0.311951,10.049502,-0.026886,-0.025457,-0.000119,-0.122070,0.000000,0.061035
4.492050,0.043110,-0.313748,10.047107,-0.019701,-0.027253,-0.002514,-0.122070,0.000000,0.061035
4.502172,0.046104,-0.308958,10.049502,-0.016708,-0.022463,-0.000119,-0.091553,0.000000,0.030518
4.512263,0.059875,-0.302970,10.063273,-0.002936,-0.016475,0.013652,-0.091553,-0.030518,0.061035
4.522352,0.062869,-0.298779,10.062675,0.000058,-0.012284,0.013054,-0.122070,-0.030518,0.000000
4.532442,0.083227,-0.301174,10.068662,0.020415,-0.014679,0.019041,-0.152588,-0.030518,-0.061035
4.542532,0.101788,-0.301174,10.067465,0.038977,-0.014679,0.017844,-0.122070,0.000000,-0.061035
4.552744,0.099992,-0.301772,10.059082,0.037180,-0.015278,0.009461,-0.091553,0.000000,-0.091553
4.562831,0.090412,-0.301174,10.053693,0.027600,-0.014679,0.004072,-0.061035,0.030518,-0.061035
4.572918,0.087418,-0.298180,10.052496,0.024607,-0.011685,0.002875,-0.030518,0.030518,0.000000
4.583019,0.062271,-0.285606,10.064471,-0.000541,0.000888,0.014850,0.000000,0.000000,0.030518
4.593315,0.046104,-0.282612,10.068662,-0.016708,0.003882,0.019041,0.000000,0.030518,0.030518
4.603402,0.023950,-0.283211,10.066866,-0.038861,0.003283,0.017245,-0.061035,0.061035,0.000000
4.613503,0.012574,-0.276026,10.068662,-0.050238,0.010468,0.019041,-0.091553,0.061035,0.000000
4.623604,0.006586,-0.274828,10.065070,-0.056225,0.011666,0.015449,-0.061035,0.030518,-0.030518
4.633692,0.017963,-0.285007,10.071656,-0.044849,0.001487,0.022035,-0.061035,0.091553,-0.030518
4.643793,0.030536,-0.291594,10.069261,-0.032275,-0.005099,0.019640,-0.091553,0.030518,-0.061035
4.653885,0.060474,-0.301174,10.057286,-0.002337,-0.014679,0.007665,-0.091553,0.030518,-0.030518
4.663971,0.068258,-0.299377,10.056687,0.005446,-0.012883,0.007066,-0.061035,0.030518,-0.061035
4.674072,0.091011,-0.301772,10.060280,0.028199,-0.015278,0.010659,-0.061035,0.030518,0.000000
4.684172,0.095801,-0.296982,10.059681,0.032989,-0.010488,0.010060,-0.061035,0.030518,-0.030518
4.694271,0.098196,-0.292791,10.058483,0.035384,-0.006297,0.008862,-0.091553,0.061035,0.030518
4.704373,0.096998,-0.289199,10.064471,0.034187,-0.002704,0.014850,-0.061035,0.061035,0.030518
4.714473,0.095202,-0.285606,10.063273,0.032390,0.000888,0.013652,0.000000,0.030518,0.030518
4.724561,0.070653,-0.275427,10.060280,0.007841,0.011067,0.010659,0.000000,0.030518,0.000000
4.734664,0.067061,-0.271835,10.059082,0.004249,0.014660,0.009461,0.000000,0.061035,0.000000
4.744765,0.054487,-0.279619,10.060878,-0.008325,0.006876,0.011257,0.000000,0.061035,-0.030518
4.754853,0.048499,-0.287402,10.060878,-0.014312,-0.000908,0.011257,-0.030518,0.061035,-0.030518
4.764954,0.041913,-0.301772,10.056687,-0.020899,-0.015278,0.007066,-0.030518,0.061035,-0.061035
4.775054,0.047900,-0.306563,10.058483,-0.014911,-0.020068,0.008862,-0.030518,0.061035,-0.061035
4.785145,0.052092,-0.313748,10.059082,-0.010720,-0.027253,0.009461,-0.030518,0.030518,-0.061035
4.795244,0.059875,-0.323328,10.050101,-0.002936,-0.036833,0.000480,-0.030518,0.030518,-0.061035
4.805348,0.065264,-0.327519,10.047107,0.002453,-0.041024,-0.002514,-0.061035,0.030518,-0.061035
4.815436,0.067061,-0.325723,10.040521,0.004249,-0.039228,-0.009100,-0.091553,0.000000,-0.030518
4.825538,0.065264,-0.319136,10.045311,0.002453,-0.032642,-0.004310,-0.091553,-0.030518,-0.030518
4.835638,0.067659,-0.300575,10.050699,0.004848,-0.014080,0.001079,-0.091553,-0.030518,0.000000
4.845728,0.067061,-0.295785,10.049502,0.004249,-0.009290,-0.000119,-0.091553,-0.030518,-0.030518
4.855832,0.074844,-0.294587,10.048304,0.012033,-0.008093,-0.001317,-0.091553,0.000000,-0.030518
4.865934,0.073048,-0.289797,10.050101,0.010236,-0.003303,0.000480,-0.091553,0.030518,-0.030518
4.876023,0.078437,-0.286205,10.051298,0.015625,0.000290,0.001677,-0.091553,0.000000,-0.061035
4.886126,0.077239,-0.282612,10.054891,0.014428,0.003882,0.005270,0.000000,0.030518,-0.091553
4.896225,0.076641,-0.286205,10.051298,0.013829,0.000290,0.001677,-0.030518,0.030518,-0.122070
4.906316,0.075443,-0.296384,10.046508,0.012631,-0.009889,-0.003113,-0.030518,0.000000,-0.030518
4.916416,0.071851,-0.301174,10.042916,0.009039,-0.014679,-0.006705,-0.030518,0.000000,-0.030518
4.926519,0.068857,-0.302970,10.041119,0.006045,-0.016475,-0.008502,-0.030518,0.030518,-0.030518
4.936609,0.066462,-0.307161,10.055490,0.003650,-0.020667,0.005869,-0.030518,0.000000,-0.061035
4.946712,0.062271,-0.305365,10.053693,-0.000541,-0.018871,0.004072,0.000000,0.000000,0.000000
4.956816,0.054487,-0.299976,10.054292,-0.008325,-0.013482,0.004671,0.000000,0.000000,0.030518
4.966904,0.052690,-0.304167,10.054891,-0.010121,-0.017673,0.005270,0.000000,-0.030518,0.000000
4.977004,0.058678,-0.301174,10.060280,-0.004134,-0.014679,0.010659,0.000000,0.000000,0.000000
4.987107,0.065264,-0.299377,10.059082,0.002453,-0.012883,0.009461,-0.030518,0.030518,0.000000
4.997198,0.072449,-0.296384,10.057286,0.009638,-0.009889,0.007665,0.000000,0.030518,-0.061035
5.007301,0.073048,-0.298180,10.054292,0.010236,-0.011685,0.004671,0.000000,0.061035,-0.030518
5.017403,0.076641,-0.302970,10.047706,0.013829,-0.016475,-0.001915,0.000000,0.000000,-0.091553
5.027490,0.079634,-0.299377,10.047107,0.016823,-0.012883,-0.002514,0.030518,0.000000,-0.061035
5.037594,0.078437,-0.298779,10.054891,0.015625,-0.012284,0.005270,0.030518,0.000000,-0.030518
5.047699,0.076042,-0.306563,10.056088,0.013230,-0.020068,0.006467,-0.030518,0.061035,-0.030518
5.057791,0.069456,-0.302371,10.056687,0.006644,-0.015877,0.007066,-0.030518,0.061035,-0.030518
5.067882,0.055684,-0.297581,10.050699,-0.007127,-0.011087,0.001079,-0.030518,0.091553,0.000000
5.077986,0.051493,-0.297581,10.051897,-0.011319,-0.011087,0.002276,-0.030518,0.091553,0.000000
5.088076,0.053888,-0.299377,10.050699,-0.008924,-0.012883,0.001079,-0.061035,0.030518,-0.061035
5.098167,0.052092,-0.301772,10.051298,-0.010720,-0.015278,0.001677,-0.030518,0.000000,-0.061035
5.108261,0.053888,-0.305964,10.053693,-0.008924,-0.019469,0.004072,-0.061035,0.000000,-0.061035
5.118351,0.049697,-0.305964,10.048903,-0.013115,-0.019469,-0.000718,-0.061035,0.000000,-0.061035
5.128442,0.055684,-0.294587,10.049502,-0.007127,-0.008093,-0.000119,-0.030518,0.000000,-0.122070
5.138547,0.071851,-0.294587,10.054292,0.009039,-0.008093,0.004671,0.030518,0.030518,-0.091553
5.148715,0.072449,-0.295785,10.052496,0.009638,-0.009290,0.002875,0.000000,0.000000,-0.122070
5.158804,0.080233,-0.292791,10.050699,0.017422,-0.006297,0.001079,0.000000,0.000000,-0.061035
5.168893,0.081431,-0.288600,10.049502,0.018619,-0.002105,-0.000119,0.030518,0.000000,-0.030518
5.178980,0.085023,-0.288600,10.056687,0.022212,-0.002105,0.007066,0.030518,0.000000,-0.030518
5.189071,0.074844,-0.282612,10.068662,0.012033,0.003882,0.019041,0.030518,0.000000,0.000000
5.199159,0.074844,-0.284409,10.060280,0.012033,0.002086,0.010659,0.061035,0.000000,0.000000
5.209247,0.074844,-0.279619,10.056687,0.012033,0.006876,0.007066,0.030518,0.000000,-0.030518
5.219334,0.071851,-0.282612,10.056088,0.009039,0.003882,0.006467,0.061035,0.030518,-0.030518
5.229427,0.068258,-0.295785,10.059681,0.005446,-0.009290,0.010060,0.030518,0.030518,-0.061035
5.239518,0.063468,-0.300575,10.054292,0.000656,-0.014080,0.004671,0.030518,0.030518,-0.122070
5.249609,0.057480,-0.297581,10.051298,-0.005331,-0.011087,0.001677,0.000000,0.030518,-0.091553
5.259699,0.049098,-0.304167,10.047706,-0.013714,-0.017673,-0.001915,0.030518,0.061035,-0.091553
5.269788,0.052690,-0.297581,10.042916,-0.010121,-0.011087,-0.006705,0.000000,0.030518,-0.061035
5.279879,0.052092,-0.293989,10.057885,-0.010720,-0.007494,0.008264,0.000000,0.030518,0.000000
5.289969,0.049697,-0.289199,10.057286,-0.013115,-0.002704,0.007665,0.000000,0.000000,0.000000
5.300059,0.057480,-0.300575,10.054292,-0.005331,-0.014080,0.004671,0.000000,0.000000,0.000000
5.310150,0.061073,-0.293989,10.045909,-0.001739,-0.007494,-0.003712,0.030518,0.000000,0.000000
5.320239,0.068258,-0.297581,10.044712,0.005446,-0.011087,-0.004909,0.030518,0.030518,0.000000
5.330328,0.069456,-0.298180,10.054292,0.006644,-0.011685,0.004671,0.030518,0.030518,0.030518
5.340418,0.074844,-0.293390,10.057885,0.012033,-0.006895,0.008264,0.030518,0.061035,0.000000
5.350509,0.077838,-0.285606,10.065070,0.015027,0.000888,0.015449,0.030518,0.061035,-0.030518
5.360598,0.077239,-0.288600,10.064471,0.014428,-0.002105,0.014850,0.030518,0.061035,-0.061035
5.370686,0.077838,-0.285606,10.063273,0.015027,0.000888,0.013652,0.030518,0.061035,-0.061035
5.380777,0.068857,-0.289797,10.067465,0.006045,-0.003303,0.017844,0.000000,0.061035,-0.061035
5.390866,0.067061,-0.292791,10.069261,0.004249,-0.006297,0.019640,0.030518,0.030518,-0.030518
5.400957,0.060474,-0.287402,10.062675,-0.002337,-0.000908,0.013054,0.000000,0.061035,-0.030518
5.411046,0.057480,-0.283211,10.059082,-0.005331,0.003283,0.009461,0.000000,0.030518,0.000000
5.421137,0.059277,-0.293390,10.048304,-0.003535,-0.006895,-0.001317,0.000000,0.030518,0.000000
5.431227,0.056283,-0.294587,10.053094,-0.006529,-0.008093,0.003474,0.030518,0.030518,0.000000
5.441317,0.067659,-0.304167,10.049502,0.004848,-0.017673,-0.000119,0.061035,0.061035,0.000000
5.451407,0.067061,-0.308359,10.048304,0.004249,-0.021864,-0.001317,0.030518,0.061035,-0.030518
5.461498,0.064067,-0.308359,10.045311,0.001255,-0.021864,-0.004310,0.000000,0.061035,0.000000
5.471589,0.068258,-0.305964,10.046508,0.005446,-0.019469,-0.003113,0.000000,0.061035,-0.030518
5.481679,0.074844,-0.301772,10.054891,0.012033,-0.015278,0.005270,0.000000,0.061035,-0.030518
5.491771,0.079036,-0.296384,10.057286,0.016224,-0.009889,0.007665,0.030518,0.061035,-0.030518
5.501861,0.076042,-0.294587,10.059681,0.013230,-0.008093,0.010060,0.030518,0.061035,-0.030518
5.511951,0.059277,-0.297581,10.057286,-0.003535,-0.011087,0.007665,0.030518,0.061035,0.030518
5.522041,0.056882,-0.290396,10.056088,-0.005930,-0.003902,0.006467,0.030518,0.030518,0.030518
5.532131,0.062869,-0.288001,10.057286,0.000058,-0.001507,0.007665,0.030518,0.000000,0.030518
5.542221,0.061672,-0.283810,10.056687,-0.001140,0.002685,0.007066,0.061035,0.000000,0.000000
5.552310,0.069456,-0.287402,10.058483,0.006644,-0.000908,0.008862,0.030518,0.000000,0.000000
5.562398,0.067659,-0.290396,10.056687,0.004848,-0.003902,0.007066,0.030518,0.030518,0.000000
5.572485,0.065863,-0.295186,10.049502,0.003051,-0.008692,-0.000119,0.000000,0.030518,-0.030518
5.582576,0.066462,-0.298779,10.055490,0.003650,-0.012284,0.005869,-0.030518,0.061035,-0.030518
5.592666,0.065863,-0.297581,10.058483,0.003051,-0.011087,0.008862,-0.030518,0.091553,0.000000
5.602756,0.068857,-0.297581,10.050101,0.006045,-0.011087,0.000480,-0.030518,0.091553,-0.030518
5.612845,0.070653,-0.298779,10.048304,0.007841,-0.012284,-0.001317,0.000000,0.091553,-0.030518
5.622932,0.067061,-0.293390,10.047706,0.004249,-0.006895,-0.001915,-0.030518,0.061035,-0.030518
5.633034,0.063468,-0.295785,10.055490,0.000656,-0.009290,0.005869,-0.030518,0.061035,-0.061035
5.643215,0.071252,-0.292791,10.050101,0.008440,-0.006297,0.000480,-0.030518,0.061035,-0.030518
5.653304,0.065264,-0.295785,10.048903,0.002453,-0.009290,-0.000718,-0.030518,0.061035,-0.030518
5.663405,0.064666,-0.290995,10.047706,0.001854,-0.004500,-0.001915,0.000000,0.061035,-0.061035
5.673505,0.062271,-0.281415,10.043514,-0.000541,0.005080,-0.006107,0.000000,0.030518,-0.030518
5.683593,0.060474,-0.285606,10.043514,-0.002337,0.000888,-0.006107,0.000000,0.030518,-0.030518
5.693694,0.063468,-0.286804,10.041718,0.000656,-0.000309,-0.007903,0.030518,0.030518,-0.091553
5.703794,0.059277,-0.292192,10.041119,-0.003535,-0.005698,-0.008502,0.000000,0.030518,-0.061035
5.713883,0.062271,-0.293989,10.034533,-0.000541,-0.007494,-0.015088,0.000000,0.061035,-0.061035
5.723984,0.053888,-0.296384,10.035132,-0.008924,-0.009889,-0.014489,0.000000,0.061035,-0.061035
5.734084,0.045505,-0.294587,10.038126,-0.017306,-0.008093,-0.011495,0.000000,0.061035,-0.061035
5.744170,0.055684,-0.295186,10.033934,-0.007127,-0.008692,-0.015687,0.061035,0.030518,-0.061035
5.754274,0.053888,-0.293989,10.031539,-0.008924,-0.007494,-0.018082,0.030518,0.030518,-0.061035
5.764385,0.051493,-0.295785,10.032737,-0.011319,-0.009290,-0.016884,0.030518,0.061035,-0.061035
5.774471,0.051493,-0.299377,10.045909,-0.011319,-0.012883,-0.003712,0.061035,0.061035,-0.091553
5.784571,0.050894,-0.296982,10.047107,-0.011917,-0.010488,-0.002514,0.061035,0.091553,-0.061035
5.794672,0.056882,-0.292192,10.050101,-0.005930,-0.005698,0.000480,0.030518,0.091553,-0.061035
5.804773,0.056882,-0.296384,10.046508,-0.005930,-0.009889,-0.003113,0.000000,0.061035,-0.030518
5.814860,0.050894,-0.293989,10.043514,-0.011917,-0.007494,-0.006107,0.030518,0.061035,-0.030518
5.824974,0.058079,-0.286804,10.045311,-0.004732,-0.000309,-0.004310,0.030518,0.030518,-0.030518
5.835077,0.065863,-0.288001,10.048903,0.003051,-0.001507,-0.000718,0.000000,0.061035,-0.030518
5.845165,0.065264,-0.290995,10.054292,0.002453,-0.004500,0.004671,0.000000,0.061035,-0.030518
5.855268,0.068258,-0.288600,10.051298,0.005446,-0.002105,0.001677,0.000000,0.030518,-0.061035
5.865372,0.064666,-0.288600,10.046508,0.001854,-0.002105,-0.003113,0.000000,0.061035,-0.030518
5.875462,0.070054,-0.286804,10.044113,0.007243,-0.000309,-0.005508,0.030518,0.030518,-0.030518
5.885565,0.072449,-0.293989,10.060878,0.009638,-0.007494,0.011257,0.030518,0.000000,-0.030518
5.895664,0.073048,-0.292791,10.056687,0.010236,-0.006297,0.007066,0.030518,0.000000,-0.030518
5.905755,0.062271,-0.301174,10.048304,-0.000541,-0.014679,-0.001317,0.030518,0.000000,-0.030518
5.915858,0.058678,-0.304167,10.045311,-0.004134,-0.017673,-0.004310,0.061035,0.030518,0.000000
5.925960,0.056882,-0.307161,10.048304,-0.005930,-0.020667,-0.001317,0.091553,0.000000,0.000000
5.936049,0.067061,-0.309556,10.057286,0.004249,-0.023062,0.007665,0.061035,0.030518,-0.030518
5.946153,0.168250,-0.110770,10.056088,0.105438,0.175725,0.006467,-0.122070,-0.335693,-0.244141
5.956251,0.000000,-0.352667,10.150692,-0.062812,-0.066172,0.101071,-0.122070,0.122070,-0.030518
5.966340,0.014969,-0.337099,10.093810,-0.047843,-0.050605,0.044189,-0.122070,0.244141,0.000000
5.976441,0.115560,-0.268841,9.995614,0.052748,0.017654,-0.054007,0.030518,-0.152588,-0.061035
5.986544,0.052092,-0.298779,10.093810,-0.010720,-0.012284,0.044189,0.061035,-0.061035,-0.061035
5.996635,0.016166,-0.320334,10.089619,-0.046645,-0.033839,0.039998,-0.030518,0.122070,-0.061035
6.006738,0.084424,-0.281415,10.008188,0.021613,0.005080,-0.041433,0.000000,-0.030518,-0.061035
6.016837,0.091011,-0.274230,10.021360,0.028199,0.012265,-0.028260,0.061035,-0.061035,-0.061035
6.026927,0.041913,-0.314945,10.075248,-0.020899,-0.028451,0.025627,0.000000,0.091553,-0.030518
6.037029,0.052690,-0.312550,10.050699,-0.010121,-0.026056,0.001079,0.000000,0.091553,-0.030518
6.047135,0.137115,-0.368833,10.118958,0.074303,-0.082339,0.069337,0.061035,-0.030518,-0.091553
6.057225,0.055684,-0.364642,10.105186,-0.007127,-0.078147,0.055565,-0.091553,0.274658,-0.122070
6.067329,0.108973,-0.276625,10.075248,0.046162,0.009870,0.025627,0.183105,-0.061035,-0.030518
6.077432,0.011975,-0.337099,10.111772,-0.050837,-0.050605,0.062152,-0.091553,0.091553,-0.030518
6.087523,0.013173,-0.348475,10.096205,-0.049639,-0.061981,0.046584,0.000000,0.091553,0.000000
6.097617,0.088616,-0.268242,10.032737,0.025804,0.018252,-0.016884,0.061035,-0.091553,0.000000
6.107723,0.062271,-0.279619,10.023157,-0.000541,0.006876,-0.026464,0.061035,-0.030518,0.000000
6.117815,0.040715,-0.286804,10.074650,-0.022096,-0.000309,0.025029,0.091553,0.122070,0.030518
6.127904,0.071851,-0.279020,10.048903,0.009039,0.007475,-0.000718,0.061035,0.030518,-0.030518
6.138007,0.058079,-0.295785,10.040521,-0.004732,-0.009290,-0.009100,0.000000,0.030518,-0.061035
6.148099,0.055684,-0.301772,10.082433,-0.007127,-0.015278,0.032813,-0.061035,0.152588,-0.030518
6.158187,0.056882,-0.316143,10.029144,-0.005930,-0.029648,-0.020477,0.000000,0.000000,-0.030518
6.168279,0.071252,-0.290995,10.040521,0.008440,-0.004500,-0.009100,0.061035,-0.030518,-0.030518
6.178367,0.054487,-0.322729,10.057885,-0.008325,-0.036234,0.008264,0.061035,0.030518,0.030518
6.188458,0.061672,-0.369432,9.999805,-0.001140,-0.082937,-0.049816,0.457764,0.061035,-0.030518
6.198549,0.090412,-0.314945,10.065070,0.027600,-0.028451,0.015449,0.152588,0.122070,-0.030518
6.208639,0.085023,-0.316741,10.029743,0.022212,-0.030247,-0.019878,0.122070,0.091553,0.030518
6.218729,0.082628,-0.308958,10.039323,0.019817,-0.022463,-0.010298,0.122070,0.091553,0.030518
6.228817,0.086819,-0.310754,10.039323,0.024008,-0.024259,-0.010298,0.122070,0.091553,0.030518
6.238907,0.064067,-0.302970,10.041119,0.001255,-0.016475,-0.008502,0.091553,0.061035,0.000000
6.248995,0.053289,-0.295186,10.057885,-0.009522,-0.008692,0.008264,0.030518,0.061035,0.000000
6.259090,0.054487,-0.282014,10.047706,-0.008325,0.004481,-0.001915,0.030518,0.030518,0.000000
6.269181,0.054487,-0.278421,10.039323,-0.008325,0.008073,-0.010298,0.061035,0.030518,-0.030518
6.279271,0.051493,-0.288600,10.053094,-0.011319,-0.002105,0.003474,0.030518,0.061035,-0.030518
6.289361,0.043110,-0.289199,10.052496,-0.019701,-0.002704,0.002875,0.000000,0.091553,-0.030518
6.299451,0.040117,-0.279020,10.050101,-0.022695,0.007475,0.000480,0.030518,0.030518,0.030518
6.309541,0.052690,-0.302371,10.048903,-0.010121,-0.015877,-0.000718,0.000000,0.030518,0.030518
6.319632,0.050894,-0.302970,10.045311,-0.011917,-0.016475,-0.004310,0.000000,0.061035,0.030518
6.329722,0.058079,-0.304167,10.042916,-0.004732,-0.017673,-0.006705,-0.030518,0.030518,-0.030518
6.339812,0.068258,-0.302970,10.042916,0.005446,-0.016475,-0.006705,-0.030518,0.030518,-0.061035
6.349903,0.067659,-0.317340,10.041119,0.004848,-0.030846,-0.008502,-0.030518,0.061035,-0.030518
6.359991,0.071252,-0.313748,10.042317,0.008440,-0.027253,-0.007304,0.000000,0.061035,-0.061035
6.370186,0.083227,-0.316143,10.036928,0.020415,-0.029648,-0.012693,0.030518,0.000000,-0.030518
6.380274,0.090412,-0.302970,10.040521,0.027600,-0.016475,-0.009100,0.030518,0.000000,0.000000
6.390363,0.081431,-0.301174,10.043514,0.018619,-0.014679,-0.006107,0.000000,0.030518,0.030518
6.400454,0.067659,-0.286804,10.048304,0.004848,-0.000309,-0.001317,0.061035,0.030518,-0.030518
6.410547,0.065264,-0.273032,10.051298,0.002453,0.013462,0.001677,0.061035,0.000000,-0.030518
6.420636,0.047900,-0.270637,10.054891,-0.014911,0.015857,0.005270,0.030518,-0.030518,0.030518
6.430728,0.032932,-0.265248,10.070458,-0.029880,0.021246,0.020837,0.030518,0.000000,0.000000
6.440817,0.030536,-0.246088,10.074051,-0.032275,0.040406,0.024430,0.030518,0.000000,-0.061035
6.450907,0.035925,-0.270637,10.060878,-0.026886,0.015857,0.011257,0.030518,0.000000,-0.030518
6.460998,0.034129,-0.258063,10.062675,-0.028683,0.028431,0.013054,-0.030518,0.030518,-0.030518
6.471088,0.048499,-0.291594,10.053693,-0.014312,-0.005099,0.004072,-0.061035,0.030518,-0.061035
6.481177,0.063468,-0.288600,10.062076,0.000656,-0.002105,0.012455,-0.061035,0.030518,-0.091553
6.491267,0.083826,-0.312550,10.053693,0.021014,-0.026056,0.004072,-0.030518,0.061035,-0.061035
6.501358,0.089214,-0.326920,10.052496,0.026403,-0.040426,0.002875,-0.030518,0.061035,-0.030518
6.511447,0.097597,-0.322130,10.051897,0.034785,-0.035636,0.002276,0.000000,0.091553,-0.061035
6.521538,0.089214,-0.333506,10.038126,0.026403,-0.047012,-0.011495,0.091553,0.091553,-0.061035
6.531628,0.076042,-0.334105,10.044712,0.013230,-0.047611,-0.004909,0.061035,0.061035,-0.030518
6.541745,0.056283,-0.323926,10.053693,-0.006529,-0.037432,0.004072,0.061035,0.030518,-0.030518
6.551836,0.056283,-0.314945,10.053693,-0.006529,-0.028451,0.004072,0.061035,0.030518,-0.030518
6.561926,0.043709,-0.299377,10.051298,-0.019103,-0.012883,0.001677,0.000000,0.061035,-0.030518
6.572014,0.033530,-0.283810,10.053693,-0.029281,0.002685,0.004072,0.000000,0.030518,-0.061035
6.582103,0.044308,-0.275427,10.060878,-0.018504,0.011067,0.011257,0.030518,0.030518,-0.091553
6.592194,0.046703,-0.267643,10.059681,-0.016109,0.018851,0.010060,0.000000,0.000000,-0.091553
6.602283,0.053289,-0.271835,10.062675,-0.009522,0.014660,0.013054,0.000000,0.030518,-0.152588
6.612373,0.068857,-0.285007,10.057286,0.006045,0.001487,0.007665,0.000000,0.000000,-0.122070
6.622463,0.080233,-0.288600,10.054891,0.017422,-0.002105,0.005270,0.000000,0.030518,-0.122070
6.632779,0.098196,-0.296982,10.066866,0.035384,-0.010488,0.017245,0.000000,0.000000,-0.030518
6.642871,0.095202,-0.299976,10.072853,0.032390,-0.013482,0.023232,0.000000,0.000000,0.000000
6.652958,0.091011,-0.304167,10.071656,0.028199,-0.017673,0.022035,-0.061035,0.030518,0.030518
6.663059,0.087418,-0.302970,10.069261,0.024607,-0.016475,0.019640,-0.091553,0.030518,0.030518
6.673244,0.074844,-0.304167,10.066866,0.012033,-0.017673,0.017245,-0.061035,0.030518,0.030518
6.683331,0.063468,-0.301772,10.069860,0.000656,-0.015278,0.020239,-0.061035,0.030518,0.000000
6.693435,0.058079,-0.304766,10.072853,-0.004732,-0.018272,0.023232,-0.030518,0.000000,-0.030518
6.703535,0.059875,-0.305964,10.064471,-0.002936,-0.019469,0.014850,-0.030518,0.000000,-0.061035
6.713624,0.059875,-0.304167,10.068662,-0.002936,-0.017673,0.019041,-0.030518,0.030518,-0.061035
6.723724,0.063468,-0.303569,10.064471,0.000656,-0.017074,0.014850,0.030518,0.030518,-0.030518
6.733815,0.067061,-0.301772,10.068063,0.004249,-0.015278,0.018442,0.030518,0.061035,-0.030518
6.743902,0.067061,-0.305964,10.060878,0.004249,-0.019469,0.011257,0.030518,0.000000,-0.030518
6.754002,0.062869,-0.299377,10.059082,0.000058,-0.012883,0.009461,0.030518,0.000000,-0.030518
6.764104,0.056283,-0.291594,10.062675,-0.006529,-0.005099,0.013054,0.061035,0.000000,0.030518
6.774193,0.052092,-0.271236,10.064471,-0.010720,0.015259,0.014850,0.000000,0.000000,0.030518
6.784296,0.051493,-0.266446,10.068662,-0.011319,0.020049,0.019041,0.030518,-0.030518,0.030518
6.794397,0.059875,-0.270637,10.066267,-0.002936,0.015857,0.016646,0.030518,-0.030518,-0.030518
6.804484,0.068857,-0.270637,10.066866,0.006045,0.015857,0.017245,0.000000,-0.061035,-0.030518
6.814589,0.080832,-0.283211,10.066267,0.018020,0.003283,0.016646,0.000000,-0.030518,-0.061035
6.824690,0.086221,-0.288600,10.063872,0.023409,-0.002105,0.014251,0.000000,-0.030518,-0.030518
6.834782,0.089214,-0.298180,10.070458,0.026403,-0.011685,0.020837,0.030518,0.000000,-0.030518
6.844882,0.094005,-0.313149,10.068662,0.031193,-0.026654,0.019041,0.030518,-0.030518,-0.061035
6.854983,0.093406,-0.324525,10.068662,0.030594,-0.038031,0.019041,0.030518,-0.030518,-0.030518
6.865070,0.080233,-0.319136,10.057885,0.017422,-0.032642,0.008264,0.000000,0.000000,0.000000
6.875162,0.073048,-0.310155,10.062076,0.010236,-0.023661,0.012455,0.000000,0.030518,0.000000
6.885253,0.056882,-0.302970,10.068063,-0.005930,-0.016475,0.018442,0.000000,0.030518,0.000000
6.895343,0.041913,-0.299377,10.065668,-0.020899,-0.012883,0.016047,0.000000,0.000000,0.000000
6.905433,0.026345,-0.292192,10.061477,-0.036466,-0.005698,0.011856,0.000000,0.000000,-0.030518
6.915519,0.019160,-0.285007,10.054891,-0.043651,0.001487,0.005270,0.030518,0.030518,-0.030518
6.925609,0.027543,-0.276625,10.055490,-0.035269,0.009870,0.005869,0.000000,0.000000,-0.030518
6.935698,0.036524,-0.282014,10.066866,-0.026288,0.004481,0.017245,0.000000,-0.030518,-0.030518
6.945786,0.047900,-0.289797,10.068662,-0.014911,-0.003303,0.019041,0.000000,-0.030518,-0.030518
6.955873,0.060474,-0.301772,10.059082,-0.002337,-0.015278,0.009461,0.000000,0.000000,-0.061035
6.965959,0.072449,-0.302970,10.053693,0.009638,-0.016475,0.004072,0.000000,0.000000,-0.030518
6.976053,0.098196,-0.307161,10.054292,0.035384,-0.020667,0.004671,-0.030518,0.061035,0.000000
6.986147,0.094603,-0.301174,10.057885,0.031792,-0.014679,0.008264,-0.030518,0.061035,0.000000
6.996241,0.095202,-0.299976,10.062076,0.032390,-0.013482,0.012455,-0.030518,0.061035,-0.030518
7.006338,0.088017,-0.307161,10.054292,0.025205,-0.020667,0.004671,-0.030518,0.030518,-0.030518
7.016434,0.079634,-0.304167,10.055490,0.016823,-0.017673,0.005869,-0.030518,0.061035,-0.030518
7.026531,0.070054,-0.295785,10.058483,0.007243,-0.009290,0.008862,-0.030518,0.030518,-0.030518
7.036623,0.058079,-0.293989,10.057885,-0.004732,-0.007494,0.008264,-0.030518,0.000000,-0.061035
7.046719,0.051493,-0.291594,10.057885,-0.011319,-0.005099,0.008264,0.000000,0.061035,-0.030518
7.056814,0.056283,-0.297581,10.056687,-0.006529,-0.011087,0.007066,0.000000,0.030518,-0.030518
7.066910,0.055085,-0.291594,10.050101,-0.007726,-0.005099,0.000480,0.030518,0.030518,0.000000
7.077007,0.049098,-0.283810,10.057286,-0.013714,0.002685,0.007665,0.030518,0.061035,-0.030518
7.087102,0.047900,-0.282612,10.061477,-0.014911,0.003882,0.011856,0.030518,0.061035,0.000000
7.097198,0.050295,-0.288600,10.059082,-0.012516,-0.002105,0.009461,0.091553,0.030518,0.030518
7.107293,0.059875,-0.287402,10.059681,-0.002936,-0.000908,0.010060,0.030518,0.061035,0.030518
7.117389,0.064666,-0.282612,10.057885,0.001854,0.003882,0.008264,0.030518,0.061035,0.030518
7.127485,0.062869,-0.283211,10.056687,0.000058,0.003283,0.007066,-0.030518,0.030518,0.030518
7.137582,0.064067,-0.288001,10.067465,0.001255,-0.001507,0.017844,-0.061035,0.030518,0.030518
7.147678,0.069456,-0.285606,10.070458,0.006644,0.000888,0.020837,-0.030518,0.061035,0.030518
7.157770,0.072449,-0.288001,10.069261,0.009638,-0.001507,0.019640,0.000000,0.030518,0.000000
7.167860,0.078437,-0.292192,10.067465,0.015625,-0.005698,0.017844,0.030518,0.000000,0.000000
7.177952,0.082628,-0.296982,10.072255,0.019817,-0.010488,0.022634,0.030518,0.030518,-0.030518
7.188038,0.088017,-0.297581,10.073452,0.025205,-0.011087,0.023831,0.000000,0.000000,-0.061035
7.198130,0.082029,-0.292192,10.072853,0.019218,-0.005698,0.023232,0.030518,0.000000,-0.061035
7.208230,0.077239,-0.292791,10.071057,0.014428,-0.006297,0.021436,0.000000,0.030518,-0.030518
7.218319,0.068258,-0.289199,10.058483,0.005446,-0.002704,0.008862,0.000000,0.030518,0.000000
7.228406,0.055085,-0.284409,10.061477,-0.007726,0.002086,0.011856,0.000000,0.000000,0.030518
7.238493,0.047900,-0.282014,10.068662,-0.014911,0.004481,0.019041,0.030518,-0.030518,0.000000
7.248583,0.047900,-0.281415,10.070458,-0.014911,0.005080,0.020837,0.061035,0.000000,0.030518
7.258672,0.046703,-0.277822,10.062675,-0.016109,0.008672,0.013054,0.000000,-0.030518,-0.030518
7.268760,0.050894,-0.276026,10.059681,-0.011917,0.010468,0.010060,-0.030518,0.000000,-0.030518
7.278849,0.068857,-0.278421,10.062675,0.006045,0.008073,0.013054,-0.030518,0.000000,-0.061035
7.288937,0.078437,-0.284409,10.062675,0.015625,0.002086,0.013054,-0.030518,0.000000,-0.061035
7.299027,0.085622,-0.291594,10.062076,0.022810,-0.005099,0.012455,0.000000,0.000000,-0.030518
7.309148,0.083826,-0.298180,10.056687,0.021014,-0.011685,0.007066,-0.030518,-0.030518,-0.030518
7.319238,0.082029,-0.300575,10.053693,0.019218,-0.014080,0.004072,-0.061035,0.000000,0.000000
7.329331,0.070653,-0.308958,10.056088,0.007841,-0.022463,0.006467,0.000000,-0.030518,0.030518
7.339420,0.071252,-0.314945,10.059082,0.008440,-0.028451,0.009461,-0.030518,0.030518,0.030518
7.349509,0.068857,-0.311951,10.068063,0.006045,-0.025457,0.018442,0.000000,0.000000,0.000000
7.359612,0.067061,-0.306563,10.064471,0.004249,-0.020068,0.014850,0.030518,0.030518,0.030518
7.369698,0.061073,-0.298180,10.063872,-0.001739,-0.011685,0.014251,0.030518,0.000000,0.000000
7.379789,0.053289,-0.285007,10.066267,-0.009522,0.001487,0.016646,0.030518,0.030518,0.030518
7.389886,0.057480,-0.280217,10.068063,-0.005331,0.006277,0.018442,0.000000,0.000000,0.000000
7.399981,0.057480,-0.279020,10.068063,-0.005331,0.007475,0.018442,0.000000,0.061035,-0.030518
7.410076,0.054487,-0.282014,10.068662,-0.008325,0.004481,0.019041,0.000000,0.030518,-0.030518
7.420171,0.063468,-0.287402,10.061477,0.000656,-0.000908,0.011856,0.000000,0.030518,-0.030518
7.430267,0.064666,-0.292192,10.063872,0.001854,-0.005698,0.014251,-0.030518,0.030518,0.000000
7.440362,0.061672,-0.296982,10.069860,-0.001140,-0.010488,0.020239,0.000000,-0.030518,0.000000
7.450458,0.072449,-0.299377,10.070458,0.009638,-0.012883,0.020837,-0.030518,-0.030518,0.000000
7.460554,0.076641,-0.298180,10.068063,0.013829,-0.011685,0.018442,-0.030518,0.000000,0.000000
7.470649,0.077838,-0.305365,10.056088,0.015027,-0.018871,0.006467,0.030518,0.030518,0.030518
7.480744,0.079634,-0.302970,10.063273,0.016823,-0.016475,0.013652,0.030518,0.000000,0.030518
7.490840,0.071851,-0.305964,10.054891,0.009039,-0.019469,0.005270,0.061035,0.030518,0.030518
7.500935,0.070054,-0.305365,10.042916,0.007243,-0.018871,-0.006705,0.091553,0.030518,0.000000
7.511031,0.068857,-0.305365,10.028546,0.006045,-0.018871,-0.021075,0.091553,0.061035,-0.030518
7.521155,0.070653,-0.302371,10.010583,0.007841,-0.015877,-0.039038,0.152588,0.061035,0.000000
7.531250,0.064666,-0.300575,10.004595,0.001854,-0.014080,-0.045026,0.274658,0.000000,0.000000
7.541343,0.042512,-0.301174,10.039323,-0.020300,-0.014679,-0.010298,0.244141,0.030518,0.000000
7.551439,0.032333,-0.296384,10.087224,-0.030479,-0.009889,0.037603,0.213623,-0.030518,-0.030518
7.561547,0.014969,-0.281415,10.118359,-0.047843,0.005080,0.068738,0.091553,0.030518,-0.030518
7.571640,0.004790,-0.267643,10.096804,-0.058022,0.018851,0.047183,0.030518,0.000000,-0.061035
7.581731,0.017364,-0.247286,10.067465,-0.045448,0.039209,0.017844,0.030518,0.030518,-0.061035
7.591821,0.029938,-0.240699,10.057885,-0.032874,0.045795,0.008264,0.061035,0.030518,-0.152588
7.601910,0.049697,-0.247286,10.040521,-0.013115,0.039209,-0.009100,0.091553,0.000000,-0.152588
7.611999,0.073048,-0.264650,10.035731,0.010236,0.021845,-0.013890,0.122070,-0.030518,-0.152588
7.622089,0.081431,-0.275427,10.035731,0.018619,0.011067,-0.013890,0.152588,0.000000,-0.152588
7.632178,0.090412,-0.307760,10.047706,0.027600,-0.021266,-0.001915,0.213623,-0.030518,-0.152588
7.642269,0.089813,-0.328716,10.054891,0.027002,-0.042222,0.005270,0.183105,-0.061035,-0.122070
7.652357,0.073048,-0.336500,10.053693,0.010236,-0.050006,0.004072,0.183105,-0.061035,-0.091553
7.662446,0.060474,-0.341889,10.047706,-0.002337,-0.055395,-0.001915,0.183105,-0.061035,-0.122070
7.672533,0.045505,-0.346679,10.042916,-0.017306,-0.060185,-0.006705,0.183105,-0.030518,-0.091553
7.682627,0.023950,-0.340692,10.047107,-0.038861,-0.054197,-0.002514,0.152588,-0.030518,-0.122070
7.692723,0.020956,-0.335901,10.042916,-0.041855,-0.049407,-0.006705,0.152588,0.000000,-0.152588
7.702816,0.029938,-0.312550,10.050101,-0.032874,-0.026056,0.000480,0.183105,-0.030518,-0.152588
7.712909,0.037722,-0.298180,10.057286,-0.025090,-0.011685,0.007665,0.152588,-0.061035,-0.152588
7.723005,0.065264,-0.280816,10.065668,0.002453,0.005678,0.016047,0.183105,-0.122070,-0.152588
7.733097,0.068258,-0.265847,10.077643,0.005446,0.020647,0.028022,0.183105,-0.122070,-0.183105
7.743190,0.072449,-0.259860,10.081236,0.009638,0.026635,0.031615,0.152588,-0.091553,-0.122070
7.753283,0.091011,-0.244891,10.074650,0.028199,0.041604,0.025029,0.183105,-0.061035,-0.091553
7.763373,0.094603,-0.239502,10.078841,0.031792,0.046993,0.029220,0.152588,-0.091553,-0.091553
7.773468,0.106578,-0.238903,10.074650,0.043767,0.047591,0.025029,0.091553,-0.030518,-0.061035
7.783556,0.117356,-0.244891,10.077045,0.054544,0.041604,0.027424,0.122070,0.000000,-0.091553
7.793646,0.125739,-0.271236,10.069261,0.062927,0.015259,0.019640,0.091553,0.000000,-0.061035
7.803733,0.128134,-0.282612,10.065668,0.065322,0.003882,0.016047,0.091553,0.000000,-0.030518
7.813819,0.130529,-0.293390,10.065668,0.067717,-0.006895,0.016047,0.061035,0.030518,-0.061035
7.823905,0.112566,-0.312550,10.063872,0.049754,-0.026056,0.014251,0.061035,0.030518,-0.030518
7.833995,0.100591,-0.316143,10.062076,0.037779,-0.029648,0.012455,0.091553,0.030518,-0.061035
7.844083,0.066462,-0.323328,10.056088,0.003650,-0.036833,0.006467,0.091553,0.030518,0.000000
7.854173,0.049098,-0.323926,10.052496,-0.013714,-0.037432,0.002875,0.091553,0.030518,0.000000
7.864260,0.020956,-0.310754,10.047107,-0.041855,-0.024259,-0.002514,0.091553,0.030518,0.000000
7.874346,0.014969,-0.296384,10.051298,-0.047843,-0.009889,0.001677,0.061035,0.030518,-0.061035
7.884437,0.007784,-0.276625,10.060280,-0.055028,0.009870,0.010659,0.122070,0.030518,-0.061035
7.894529,0.004790,-0.258063,10.062675,-0.058022,0.028431,0.013054,0.091553,0.030518,-0.091553
7.904622,0.007784,-0.249681,10.054891,-0.055028,0.036814,0.005270,0.091553,0.000000,-0.122070
7.914714,0.018561,-0.249082,10.048903,-0.044250,0.037412,-0.000718,0.091553,0.000000,-0.091553
7.924806,0.025148,-0.249681,10.054891,-0.037664,0.036814,0.005270,0.122070,-0.030518,-0.152588
7.934901,0.055085,-0.254471,10.071057,-0.007726,0.032024,0.021436,0.091553,0.000000,-0.213623
7.944993,0.077239,-0.264051,10.068662,0.014428,0.022444,0.019041,0.091553,0.000000,-0.183105
7.955089,0.104183,-0.292791,10.055490,0.041372,-0.006297,0.005869,0.091553,-0.061035,-0.152588
7.965196,0.119152,-0.299377,10.056687,0.056341,-0.012883,0.007066,0.091553,-0.030518,-0.152588
7.975322,0.127535,-0.316741,10.060878,0.064723,-0.030247,0.011257,0.091553,-0.030518,-0.152588
7.985414,0.125739,-0.328716,10.057885,0.062927,-0.042222,0.008264,0.091553,-0.030518,-0.122070
7.995510,0.126936,-0.337099,10.061477,0.064124,-0.050605,0.011856,0.122070,0.000000,-0.061035
8.005598,0.116757,-0.346080,10.048304,0.053946,-0.059586,-0.001317,0.122070,0.000000,-0.030518
8.015685,0.107776,-0.337099,10.047107,0.044964,-0.050605,-0.002514,0.152588,0.000000,0.000000
8.025772,0.091609,-0.315544,10.051897,0.028798,-0.029049,0.002276,0.122070,0.061035,0.030518
8.035860,0.086221,-0.299976,10.056687,0.023409,-0.013482,0.007066,0.152588,0.061035,0.000000
8.045965,0.078437,-0.289797,10.064471,0.015625,-0.003303,0.014850,0.152588,0.061035,0.030518
8.056057,0.049697,-0.270637,10.068063,-0.013115,0.015857,0.018442,0.122070,0.030518,0.000000
8.066146,0.049098,-0.258063,10.068063,-0.013714,0.028431,0.018442,0.122070,0.030518,0.000000
8.076234,0.040715,-0.246687,10.070458,-0.022096,0.039807,0.020837,0.091553,0.030518,-0.030518
8.086324,0.038320,-0.245490,10.075248,-0.024491,0.041005,0.025627,0.122070,0.030518,0.000000
8.096410,0.040715,-0.249082,10.075248,-0.022096,0.037412,0.025627,0.030518,0.000000,0.030518
8.106498,0.054487,-0.259261,10.071656,-0.008325,0.027234,0.022035,0.000000,0.000000,0.030518
8.116589,0.062869,-0.265847,10.062076,0.000058,0.020647,0.012455,0.030518,0.030518,0.030518
8.126678,0.071851,-0.285606,10.062675,0.009039,0.000888,0.013054,0.000000,0.030518,0.000000
8.136766,0.073048,-0.294587,10.060280,0.010236,-0.008093,0.010659,-0.030518,0.030518,-0.030518
8.146856,0.078437,-0.307161,10.058483,0.015625,-0.020667,0.008862,-0.030518,0.000000,-0.061035
8.156945,0.069456,-0.311951,10.054292,0.006644,-0.025457,0.004671,-0.030518,0.030518,-0.030518
8.167035,0.046104,-0.304167,10.044712,-0.016708,-0.017673,-0.004909,-0.030518,0.030518,0.000000
8.177186,0.034129,-0.297581,10.055490,-0.028683,-0.011087,0.005869,0.000000,0.030518,0.000000
8.187275,0.020358,-0.291594,10.070458,-0.042454,-0.005099,0.020837,0.030518,0.030518,-0.030518
8.197364,0.017364,-0.286205,10.066866,-0.045448,0.000290,0.017245,-0.030518,0.030518,-0.091553
8.207476,0.017963,-0.279020,10.064471,-0.044849,0.007475,0.014850,0.000000,0.000000,-0.061035
8.217565,0.017963,-0.271835,10.061477,-0.044849,0.014660,0.011856,0.000000,-0.030518,-0.091553
8.227654,0.025746,-0.270038,10.073452,-0.037065,0.016456,0.023831,0.000000,-0.030518,-0.091553
8.237743,0.041314,-0.276026,10.078841,-0.021498,0.010468,0.029220,0.000000,0.000000,-0.091553
8.247831,0.060474,-0.282612,10.080637,-0.002337,0.003882,0.031016,0.000000,0.000000,-0.091553
8.257920,0.095202,-0.300575,10.069261,0.032390,-0.014080,0.019640,0.000000,0.030518,-0.061035
8.268007,0.107177,-0.298779,10.065070,0.044365,-0.012284,0.015449,0.000000,0.000000,0.000000
8.278093,0.114961,-0.305365,10.061477,0.052149,-0.018871,0.011856,0.000000,0.091553,0.030518
8.288184,0.119751,-0.305964,10.070458,0.056939,-0.019469,0.020837,0.000000,0.061035,0.030518
8.298279,0.112566,-0.310754,10.071057,0.049754,-0.024259,0.021436,0.030518,0.061035,0.030518
8.308374,0.092208,-0.299377,10.066866,0.029397,-0.012883,0.017245,0.000000,0.061035,0.000000
8.318466,0.081431,-0.287402,10.062675,0.018619,-0.000908,0.013054,0.030518,0.061035,0.000000
8.328561,0.070653,-0.276026,10.073452,0.007841,0.010468,0.023831,0.000000,0.091553,0.030518
8.338657,0.064067,-0.279619,10.074650,0.001255,0.006876,0.025029,0.000000,0.061035,0.030518
8.348751,0.061672,-0.282014,10.071057,-0.001140,0.004481,0.021436,-0.030518,0.091553,0.030518
8.358844,0.050295,-0.285606,10.073452,-0.012516,0.000888,0.023831,0.000000,0.061035,0.000000
8.368950,0.044907,-0.288001,10.067465,-0.017905,-0.001507,0.017844,0.030518,0.061035,0.000000
8.379052,0.042512,-0.287402,10.066267,-0.020300,-0.000908,0.016646,0.030518,0.061035,0.000000
8.389168,0.046703,-0.283211,10.066866,-0.016109,0.003283,0.017245,0.000000,0.030518,0.000000
8.399259,0.046104,-0.277822,10.068063,-0.016708,0.008672,0.018442,-0.030518,0.030518,0.030518
8.409348,0.047302,-0.278421,10.066866,-0.015510,0.008073,0.017245,-0.030518,0.000000,0.030518
8.419438,0.046703,-0.277822,10.056687,-0.016109,0.008672,0.007066,0.000000,0.030518,0.030518
8.429527,0.057480,-0.282612,10.069261,-0.005331,0.003882,0.019640,0.030518,0.030518,0.030518
8.439616,0.067659,-0.275427,10.072255,0.004848,0.011067,0.022634,0.000000,0.061035,0.000000
8.449705,0.089813,-0.288600,10.066866,0.027002,-0.002105,0.017245,-0.030518,0.030518,0.000000
8.459796,0.097597,-0.296384,10.066267,0.034785,-0.009889,0.016646,-0.030518,0.030518,0.000000
8.469885,0.101190,-0.307760,10.072853,0.038378,-0.021266,0.023232,0.000000,0.030518,0.000000
8.479985,0.100591,-0.307161,10.073452,0.037779,-0.020667,0.023831,0.030518,0.061035,-0.030518
8.490074,0.098196,-0.310155,10.067465,0.035384,-0.023661,0.017844,0.030518,0.091553,-0.030518
8.500164,0.083826,-0.298779,10.057885,0.021014,-0.012284,0.008264,0.000000,0.061035,-0.030518
8.510255,0.076641,-0.295785,10.059681,0.013829,-0.009290,0.010060,-0.030518,0.061035,-0.061035
8.520345,0.058079,-0.284409,10.053094,-0.004732,0.002086,0.003474,0.000000,0.061035,-0.061035
8.530434,0.048499,-0.276625,10.062076,-0.014312,0.009870,0.012455,0.030518,0.030518,-0.030518
8.540524,0.028740,-0.268242,10.062076,-0.034071,0.018252,0.012455,0.061035,0.030518,-0.030518
8.550613,0.020956,-0.267045,10.059681,-0.041855,0.019450,0.010060,0.030518,0.030518,-0.030518
8.560716,0.024549,-0.268242,10.062675,-0.038263,0.018252,0.013054,0.000000,0.061035,0.000000
8.570801,0.027543,-0.271236,10.064471,-0.035269,0.015259,0.014850,0.000000,0.061035,-0.030518
8.580888,0.034728,-0.277822,10.068662,-0.028084,0.008672,0.019041,0.030518,0.061035,0.000000
8.590984,0.058678,-0.295186,10.061477,-0.004134,-0.008692,0.011856,0.030518,0.030518,0.000000
8.601078,0.069456,-0.306563,10.060878,0.006644,-0.020068,0.011257,0.061035,0.030518,0.000000
8.611174,0.082628,-0.314346,10.051897,0.019817,-0.027852,0.002276,0.030518,0.030518,-0.030518
8.621270,0.095202,-0.314346,10.056687,0.032390,-0.027852,0.007066,0.030518,0.030518,-0.030518
8.631362,0.099393,-0.310754,10.069261,0.036582,-0.024259,0.019640,0.030518,0.030518,0.000000
8.641458,0.095202,-0.307760,10.064471,0.032390,-0.021266,0.014850,0.061035,0.061035,0.000000
8.651553,0.087418,-0.304167,10.063273,0.024607,-0.017673,0.013652,0.030518,0.061035,-0.030518
8.661649,0.079036,-0.293989,10.069261,0.016224,-0.007494,0.019640,0.000000,0.030518,-0.030518
8.671745,0.072449,-0.286804,10.065070,0.009638,-0.000309,0.015449,0.000000,0.030518,-0.030518
8.681840,0.061672,-0.282612,10.066866,-0.001140,0.003882,0.017245,0.000000,0.030518,0.000000
8.691935,0.055684,-0.279619,10.069261,-0.007127,0.006876,0.019640,0.000000,0.030518,-0.030518
8.702032,0.047900,-0.273631,10.064471,-0.014911,0.012864,0.014850,0.061035,0.030518,-0.030518
8.712127,0.043709,-0.276625,10.063872,-0.019103,0.009870,0.014251,0.030518,0.000000,0.000000
8.722226,0.038320,-0.275427,10.066267,-0.024491,0.011067,0.016646,0.030518,0.030518,0.000000
8.732322,0.046104,-0.267643,10.077643,-0.016708,0.018851,0.028022,0.061035,0.061035,0.000000
8.742418,0.050295,-0.264650,10.075847,-0.012516,0.021845,0.026226,0.030518,0.061035,0.000000
8.752514,0.056283,-0.270637,10.071656,-0.006529,0.015857,0.022035,0.000000,0.061035,-0.030518
8.762618,0.060474,-0.274230,10.068063,-0.002337,0.012265,0.018442,-0.030518,0.061035,-0.030518
8.772708,0.073048,-0.277822,10.067465,0.010236,0.008672,0.017844,0.030518,0.061035,-0.030518
8.782806,0.074844,-0.286205,10.075248,0.012033,0.000290,0.025627,0.000000,0.030518,-0.030518
8.792902,0.076641,-0.289797,10.078841,0.013829,-0.003303,0.029220,0.000000,0.061035,-0.061035
8.802989,0.082628,-0.299377,10.074650,0.019817,-0.012883,0.025029,0.000000,0.030518,-0.061035
8.813079,0.082628,-0.300575,10.068063,0.019817,-0.014080,0.018442,0.000000,0.030518,-0.030518
8.823169,0.076042,-0.295186,10.071057,0.013230,-0.008692,0.021436,0.030518,0.000000,-0.061035
8.833259,0.065264,-0.287402,10.077045,0.002453,-0.000908,0.027424,0.030518,0.000000,-0.061035
8.843349,0.060474,-0.289797,10.075248,-0.002337,-0.003303,0.025627,0.030518,0.061035,-0.030518
8.853435,0.047900,-0.291594,10.076446,-0.014911,-0.005099,0.026825,0.030518,0.030518,0.000000
8.863524,0.045505,-0.282014,10.063872,-0.017306,0.004481,0.014251,0.030518,0.000000,0.030518
8.873613,0.049098,-0.274828,10.069261,-0.013714,0.011666,0.019640,0.030518,0.030518,0.030518
8.883702,0.049098,-0.266446,10.073452,-0.013714,0.020049,0.023831,0.030518,0.000000,0.030518
8.893796,0.056283,-0.263452,10.062076,-0.006529,0.023042,0.012455,0.030518,0.030518,0.000000
8.904026,0.059277,-0.274230,10.063273,-0.003535,0.012265,0.013652,0.000000,0.030518,0.000000
8.914125,0.071252,-0.274828,10.067465,0.008440,0.011666,0.017844,0.030518,0.061035,0.000000
8.924222,0.083227,-0.282014,10.068662,0.020415,0.004481,0.019041,0.000000,0.061035,0.000000
8.934314,0.080832,-0.290396,10.068063,0.018020,-0.003902,0.018442,0.000000,0.030518,0.030518
8.944410,0.083826,-0.287402,10.066267,0.021014,-0.000908,0.016646,0.000000,0.030518,-0.030518
8.954505,0.083227,-0.284409,10.068063,0.020415,0.002086,0.018442,0.000000,0.030518,0.000000
8.964599,0.081431,-0.289797,10.071656,0.018619,-0.003303,0.022035,0.030518,0.030518,0.000000
8.974693,0.080233,-0.286205,10.069261,0.017422,0.000290,0.019640,0.030518,0.000000,-0.030518
8.984789,0.079634,-0.284409,10.077045,0.016823,0.002086,0.027424,0.030518,0.000000,-0.061035
8.994881,0.079634,-0.281415,10.077045,0.016823,0.005080,0.027424,0.030518,0.030518,-0.061035
9.004987,0.066462,-0.279619,10.067465,0.003650,0.006876,0.017844,0.030518,0.000000,-0.030518
9.015078,0.069456,-0.275427,10.065070,0.006644,0.011067,0.015449,0.030518,0.030518,-0.030518
9.025167,0.071851,-0.274230,10.066267,0.009039,0.012265,0.016646,0.030518,-0.030518,-0.030518
9.035256,0.071851,-0.274230,10.071057,0.009039,0.012265,0.021436,0.000000,0.000000,0.000000
9.045344,0.065863,-0.279020,10.069860,0.003051,0.007475,0.020239,0.000000,0.000000,0.000000
9.055433,0.070653,-0.281415,10.068063,0.007841,0.005080,0.018442,0.000000,0.000000,-0.030518
9.065522,0.071851,-0.282612,10.060878,0.009039,0.003882,0.011257,0.030518,0.000000,-0.030518
9.075611,0.063468,-0.282612,10.075248,0.000656,0.003882,0.025627,0.030518,0.030518,-0.061035
9.085700,0.067061,-0.282014,10.075248,0.004249,0.004481,0.025627,0.030518,0.000000,-0.061035
9.095793,0.068258,-0.287402,10.063872,0.005446,-0.000908,0.014251,0.061035,0.000000,-0.061035
9.105907,0.068857,-0.286804,10.065070,0.006045,-0.000309,0.015449,0.061035,0.030518,-0.061035
9.116005,0.065264,-0.297581,10.060878,0.002453,-0.011087,0.011257,0.061035,0.000000,-0.061035
9.126100,0.064067,-0.290995,10.066866,0.001255,-0.004500,0.017245,0.061035,0.000000,-0.030518
9.136193,0.059875,-0.290396,10.072255,-0.002936,-0.003902,0.022634,0.061035,0.000000,-0.030518
9.146289,0.061073,-0.285606,10.074650,-0.001739,0.000888,0.025029,0.091553,0.030518,-0.061035
9.156385,0.058678,-0.282612,10.072255,-0.004134,0.003882,0.022634,0.091553,0.061035,-0.061035
9.166476,0.062271,-0.276625,10.069860,-0.000541,0.009870,0.020239,0.091553,0.030518,-0.030518
9.176568,0.059875,-0.271236,10.067465,-0.002936,0.015259,0.017844,0.061035,0.030518,-0.030518
9.186664,0.053888,-0.267643,10.067465,-0.008924,0.018851,0.017844,0.061035,0.000000,-0.061035
9.196752,0.064666,-0.265248,10.067465,0.001854,0.021246,0.017844,0.000000,0.000000,-0.061035
9.206867,0.065863,-0.267045,10.064471,0.003051,0.019450,0.014850,-0.030518,0.030518,-0.030518
9.217011,0.067061,-0.288600,10.063273,0.004249,-0.002105,0.013652,-0.030518,0.030518,0.000000
9.227112,0.068258,-0.296982,10.062675,0.005446,-0.010488,0.013054,-0.030518,0.030518,-0.030518
9.237199,0.074844,-0.296982,10.068063,0.012033,-0.010488,0.018442,0.030518,0.030518,-0.030518
9.247289,0.077838,-0.302371,10.065070,0.015027,-0.015877,0.015449,0.030518,0.030518,-0.030518
9.257375,0.076641,-0.305964,10.062076,0.013829,-0.019469,0.012455,0.000000,0.061035,-0.030518
9.267464,0.067659,-0.305365,10.061477,0.004848,-0.018871,0.011856,0.000000,0.030518,-0.030518
9.277549,0.062869,-0.298180,10.063872,0.000058,-0.011685,0.014251,0.030518,0.030518,-0.061035
9.287638,0.054487,-0.286804,10.071057,-0.008325,-0.000309,0.021436,0.030518,0.030518,-0.030518
9.297724,0.060474,-0.280217,10.063872,-0.002337,0.006277,0.014251,0.061035,0.000000,0.000000
9.307808,0.055684,-0.274828,10.053693,-0.007127,0.011666,0.004072,0.030518,-0.030518,0.000000
9.317892,0.065264,-0.267643,10.054292,0.002453,0.018851,0.004671,0.030518,0.030518,0.000000
9.327982,0.067659,-0.271835,10.060280,0.004848,0.014660,0.010659,0.030518,0.000000,-0.030518
9.338066,0.072449,-0.273032,10.065668,0.009638,0.013462,0.016047,0.030518,0.000000,-0.030518
9.348151,0.068258,-0.267045,10.069261,0.005446,0.019450,0.019640,0.061035,-0.030518,-0.061035
9.358575,0.061672,-0.276026,10.072853,-0.001140,0.010468,0.023232,0.091553,-0.030518,-0.030518
9.368655,0.058678,-0.277822,10.067465,-0.004134,0.008672,0.017844,0.061035,-0.030518,-0.030518
9.378741,0.058079,-0.286205,10.072853,-0.004732,0.000290,0.023232,0.061035,-0.030518,-0.030518
9.388825,0.054487,-0.289199,10.069261,-0.008325,-0.002704,0.019640,0.061035,0.030518,-0.030518
9.398918,0.056283,-0.299377,10.061477,-0.006529,-0.012883,0.011856,0.061035,0.061035,0.000000
9.409025,0.058079,-0.301174,10.059681,-0.004732,-0.014679,0.010060,0.061035,0.061035,-0.030518
9.419123,0.061672,-0.305365,10.053693,-0.001140,-0.018871,0.004072,0.030518,0.061035,-0.030518
9.429219,0.066462,-0.299976,10.063872,0.003650,-0.013482,0.014251,0.061035,0.091553,0.000000
9.439314,0.065863,-0.297581,10.064471,0.003051,-0.011087,0.014850,0.061035,0.122070,0.030518
9.449410,0.059277,-0.285606,10.066267,-0.003535,0.000888,0.016646,0.061035,0.091553,0.000000
9.459505,0.052092,-0.278421,10.065070,-0.010720,0.008073,0.015449,0.061035,0.091553,0.030518
9.469600,0.044907,-0.272433,10.062675,-0.017905,0.014061,0.013054,0.091553,0.091553,0.000000
9.479695,0.049098,-0.261656,10.061477,-0.013714,0.024839,0.011856,0.091553,0.122070,0.030518
9.489791,0.054487,-0.260458,10.063872,-0.008325,0.026036,0.014251,0.061035,0.091553,0.000000
9.499880,0.059875,-0.256866,10.067465,-0.002936,0.029629,0.017844,0.030518,0.091553,-0.030518
9.509969,0.059277,-0.259860,10.063273,-0.003535,0.026635,0.013652,0.000000,0.061035,-0.030518
9.520056,0.068258,-0.264051,10.062675,0.005446,0.022444,0.013054,0.000000,0.061035,-0.030518
9.530175,0.070054,-0.264051,10.072255,0.007243,0.022444,0.022634,0.030518,0.061035,-0.030518
9.540268,0.071252,-0.275427,10.065070,0.008440,0.011067,0.015449,-0.030518,0.091553,-0.061035
9.550355,0.073647,-0.275427,10.059681,0.010835,0.011067,0.010060,-0.030518,0.030518,-0.030518
9.560459,0.074844,-0.279619,10.062076,0.012033,0.006876,0.012455,0.030518,0.061035,-0.030518
9.570542,0.083227,-0.295785,10.044712,0.020415,-0.009290,-0.004909,0.030518,0.030518,-0.030518
9.580631,0.073647,-0.292192,10.050699,0.010835,-0.005698,0.001079,0.061035,0.000000,-0.030518
9.590718,0.068258,-0.298180,10.053094,0.005446,-0.011685,0.003474,0.061035,0.061035,-0.030518
9.600807,0.069456,-0.296384,10.054292,0.006644,-0.009889,0.004671,0.061035,0.061035,-0.030518
9.610898,0.067659,-0.292791,10.047706,0.004848,-0.006297,-0.001915,0.122070,0.000000,-0.030518
9.620989,0.066462,-0.293989,10.050699,0.003650,-0.007494,0.001079,0.122070,0.000000,-0.030518
9.631079,0.068258,-0.296982,10.051897,0.005446,-0.010488,0.002276,0.091553,0.000000,-0.061035
9.641169,0.068258,-0.283810,10.053693,0.005446,0.002685,0.004072,0.091553,-0.030518,-0.030518
9.651258,0.068857,-0.277822,10.050699,0.006045,0.008672,0.001079,0.091553,0.030518,0.030518
9.661347,0.080233,-0.275427,10.053094,0.017422,0.011067,0.003474,0.061035,0.030518,0.000000
9.671436,0.079634,-0.270637,10.054292,0.016823,0.015857,0.004671,0.061035,0.061035,0.000000
9.681525,0.074246,-0.271835,10.063872,0.011434,0.014660,0.014251,0.030518,0.030518,0.000000
9.691615,0.071851,-0.271835,10.057286,0.009039,0.014660,0.007665,0.030518,0.030518,0.000000
9.701709,0.072449,-0.279020,10.054292,0.009638,0.007475,0.004671,0.000000,0.061035,-0.030518
9.711804,0.069456,-0.278421,10.051298,0.006644,0.008073,0.001677,0.000000,0.061035,-0.030518
9.721917,0.066462,-0.285007,10.049502,0.003650,0.001487,-0.000119,0.000000,0.061035,0.000000
9.732014,0.062271,-0.295785,10.059082,-0.000541,-0.009290,0.009461,0.030518,0.061035,-0.030518
9.742110,0.060474,-0.305365,10.056687,-0.002337,-0.018871,0.007066,0.030518,0.061035,0.000000
9.752205,0.059875,-0.307760,10.047706,-0.002936,-0.021266,-0.001915,0.000000,0.030518,0.000000
9.762311,0.060474,-0.309556,10.048903,-0.002337,-0.023062,-0.000718,0.030518,0.061035,0.000000
9.772404,0.055684,-0.297581,10.050101,-0.007127,-0.011087,0.000480,0.030518,0.061035,0.000000
9.782497,0.062869,-0.295785,10.056687,0.000058,-0.009290,0.007066,0.030518,0.030518,0.000000
9.792600,0.064666,-0.287402,10.052496,0.001854,-0.000908,0.002875,0.000000,0.061035,-0.061035
9.802690,0.058079,-0.282014,10.043514,-0.004732,0.004481,-0.006107,0.030518,0.061035,-0.030518
9.812778,0.053888,-0.283211,10.040521,-0.008924,0.003283,-0.009100,0.030518,0.030518,-0.061035
9.822882,0.051493,-0.282014,10.042317,-0.011319,0.004481,-0.007304,0.030518,0.061035,-0.061035
9.832970,0.053289,-0.276625,10.050699,-0.009522,0.009870,0.001079,0.000000,0.030518,-0.030518
9.843059,0.065863,-0.268841,10.052496,0.003051,0.017654,0.002875,0.030518,0.030518,0.000000
9.853148,0.064067,-0.270637,10.048903,0.001255,0.015857,-0.000718,0.030518,0.061035,0.030518
9.863238,0.065863,-0.268242,10.044712,0.003051,0.018252,-0.004909,0.030518,0.030518,-0.030518
9.873326,0.062869,-0.266446,10.047706,0.000058,0.020049,-0.001915,0.000000,0.030518,0.000000
9.883415,0.060474,-0.268242,10.053693,-0.002337,0.018252,0.004072,0.000000,0.000000,-0.030518
9.893504,0.058678,-0.272433,10.052496,-0.004134,0.014061,0.002875,0.030518,0.000000,-0.061035
9.903611,0.062869,-0.272433,10.054891,0.000058,0.014061,0.005270,0.030518,0.000000,-0.030518
9.913708,0.071851,-0.273032,10.050101,0.009039,0.013462,0.000480,0.030518,0.030518,-0.030518
9.924309,0.068258,-0.277822,10.050101,0.005446,0.008672,0.000480,0.030518,0.030518,-0.030518
9.934406,0.070653,-0.279619,10.066866,0.007841,0.006876,0.017245,0.030518,0.030518,0.000000
9.944496,0.071851,-0.285007,10.068662,0.009039,0.001487,0.019041,0.030518,0.030518,0.000000
9.954593,0.071851,-0.289199,10.065668,0.009039,-0.002704,0.016047,0.030518,0.000000,-0.030518
9.964703,0.077239,-0.289199,10.062675,0.014428,-0.002704,0.013054,-0.030518,0.061035,-0.030518
9.974793,0.077239,-0.283211,10.060878,0.014428,0.003283,0.011257,-0.030518,0.061035,0.000000
9.984883,0.068857,-0.271835,10.066267,0.006045,0.014660,0.016646,0.000000,0.061035,0.000000
9.994979,0.065863,-0.272433,10.065668,0.003051,0.014061,0.016047,-0.030518,0.061035,-0.030518
10.005068,0.077239,-0.268242,10.063872,0.014428,0.018252,0.014251,-0.030518,0.091553,0.000000
10.015158,0.076641,-0.264650,10.061477,0.013829,0.021845,0.011856,0.000000,0.091553,-0.030518
10.025259,0.072449,-0.262853,10.063273,0.009638,0.023641,0.013652,0.000000,0.061035,0.030518
10.035349,0.076641,-0.262853,10.068662,0.013829,0.023641,0.019041,0.000000,0.061035,0.030518
10.045438,0.078437,-0.268841,10.071057,0.015625,0.017654,0.021436,-0.030518,0.061035,0.030518
10.055527,0.071252,-0.270038,10.062675,0.008440,0.016456,0.013054,0.000000,0.061035,0.030518
10.065615,0.072449,-0.277224,10.059082,0.009638,0.009271,0.009461,-0.030518,0.061035,0.030518
10.075704,0.073647,-0.286804,10.063872,0.010835,-0.000309,0.014251,-0.030518,0.061035,0.030518
10.085793,0.073048,-0.289199,10.066267,0.010236,-0.002704,0.016646,0.000000,0.030518,0.030518
10.095881,0.060474,-0.291594,10.060280,-0.002337,-0.005099,0.010659,0.000000,0.061035,0.030518
10.105975,0.063468,-0.285606,10.052496,0.000656,0.000888,0.002875,0.030518,0.061035,0.030518
10.116071,0.058678,-0.283211,10.051897,-0.004134,0.003283,0.002276,0.000000,0.061035,0.030518
10.126166,0.050894,-0.276625,10.057286,-0.011917,0.009870,0.007665,0.000000,0.061035,0.030518
10.136271,0.052092,-0.276625,10.064471,-0.010720,0.009870,0.014850,0.000000,0.030518,0.030518
10.146362,0.057480,-0.276625,10.067465,-0.005331,0.009870,0.017844,0.000000,0.000000,0.000000
10.156457,0.055085,-0.284409,10.068662,-0.007726,0.002086,0.019041,-0.030518,0.000000,0.000000
10.166556,0.057480,-0.284409,10.059082,-0.005331,0.002086,0.009461,0.000000,0.000000,-0.030518
10.176657,0.058079,-0.285007,10.063872,-0.004732,0.001487,0.014251,-0.030518,-0.030518,0.000000
10.186754,0.065264,-0.288001,10.063872,0.002453,-0.001507,0.014251,-0.061035,0.030518,0.030518
10.196851,0.065264,-0.289199,10.059681,0.002453,-0.002704,0.010060,-0.061035,0.061035,0.000000
10.206943,0.059277,-0.297581,10.051897,-0.003535,-0.011087,0.002276,-0.030518,0.061035,0.000000
10.217033,0.052690,-0.293989,10.044113,-0.010121,-0.007494,-0.005508,0.000000,0.061035,-0.030518
10.227123,0.053289,-0.291594,10.051298,-0.009522,-0.005099,0.001677,0.030518,0.030518,-0.030518
10.237213,0.062869,-0.279020,10.056687,0.000058,0.007475,0.007066,0.030518,0.000000,-0.030518
10.247303,0.055085,-0.277822,10.054292,-0.007726,0.008672,0.004671,0.061035,-0.030518,-0.030518
10.257392,0.052092,-0.279020,10.052496,-0.010720,0.007475,0.002875,0.061035,0.000000,-0.091553
10.267482,0.067659,-0.271835,10.047706,0.004848,0.014660,-0.001915,0.061035,0.030518,-0.091553
10.277571,0.068857,-0.271835,10.050699,0.006045,0.014660,0.001079,0.030518,0.000000,-0.061035
10.287661,0.074844,-0.269440,10.065070,0.012033,0.017055,0.015449,0.061035,0.000000,-0.061035
10.297752,0.074844,-0.271236,10.063872,0.012033,0.015259,0.014251,0.061035,0.030518,-0.061035
10.307842,0.072449,-0.280217,10.054891,0.009638,0.006277,0.005270,0.030518,0.030518,0.000000
10.317939,0.071851,-0.277224,10.051298,0.009039,0.009271,0.001677,0.030518,0.030518,0.000000
10.328034,0.068258,-0.279619,10.059082,0.005446,0.006876,0.009461,0.030518,0.030518,-0.030518
10.338130,0.066462,-0.285606,10.069261,0.003650,0.000888,0.019640,0.061035,0.061035,-0.061035
10.348225,0.064666,-0.289797,10.061477,0.001854,-0.003303,0.011856,0.061035,0.061035,-0.030518
10.358321,0.067061,-0.302970,10.053094,0.004249,-0.016475,0.003474,0.061035,0.061035,-0.061035
10.368414,0.064067,-0.300575,10.051298,0.001255,-0.014080,0.001677,0.061035,0.030518,-0.030518
10.378510,0.061672,-0.299377,10.053693,-0.001140,-0.012883,0.004072,0.061035,0.061035,-0.030518
10.388605,0.061672,-0.291594,10.053693,-0.001140,-0.005099,0.004072,0.061035,0.061035,0.000000
10.398700,0.064666,-0.293989,10.047706,0.001854,-0.007494,-0.001915,0.000000,0.030518,-0.030518
10.408795,0.077239,-0.288600,10.053094,0.014428,-0.002105,0.003474,0.030518,0.030518,-0.030518
10.418890,0.078437,-0.292192,10.050101,0.015625,-0.005698,0.000480,0.061035,0.000000,-0.030518
10.428982,0.071851,-0.286205,10.051897,0.009039,0.000290,0.002276,0.091553,0.030518,-0.030518
10.439080,0.069456,-0.280816,10.049502,0.006644,0.005678,-0.000119,0.091553,0.000000,-0.030518
10.449174,0.074246,-0.279619,10.049502,0.011434,0.006876,-0.000119,0.061035,0.030518,-0.061035
10.459272,0.073647,-0.275427,10.051897,0.010835,0.011067,0.002276,0.000000,0.030518,-0.061035
10.469368,0.076641,-0.282612,10.049502,0.013829,0.003882,-0.000119,-0.030518,0.000000,-0.061035
10.479466,0.077838,-0.284409,10.060280,0.015027,0.002086,0.010659,-0.030518,0.030518,-0.030518
10.489563,0.077838,-0.287402,10.065668,0.015027,-0.000908,0.016047,0.000000,0.061035,-0.030518
10.499660,0.067659,-0.288001,10.066267,0.004848,-0.001507,0.016646,0.030518,0.061035,-0.030518
10.509752,0.067659,-0.287402,10.062675,0.004848,-0.000908,0.013054,0.000000,0.061035,-0.030518
10.519842,0.067061,-0.302970,10.056687,0.004249,-0.016475,0.007066,0.030518,0.061035,0.000000
10.529932,0.069456,-0.295785,10.062675,0.006644,-0.009290,0.013054,0.030518,0.030518,0.000000
10.540021,0.067659,-0.293390,10.060878,0.004848,-0.006895,0.011257,0.030518,0.030518,0.030518
10.550110,0.069456,-0.291594,10.057885,0.006644,-0.005099,0.008264,0.030518,0.030518,0.030518
10.560201,0.065863,-0.290396,10.053094,0.003051,-0.003902,0.003474,0.030518,0.030518,0.000000
10.570288,0.066462,-0.285606,10.053094,0.003650,0.000888,0.003474,0.030518,0.030518,0.030518
10.580378,0.069456,-0.281415,10.055490,0.006644,0.005080,0.005869,0.000000,0.000000,0.030518
10.590468,0.070653,-0.268841,10.058483,0.007841,0.017654,0.008862,0.030518,0.030518,0.000000
10.600558,0.067659,-0.267045,10.057885,0.004848,0.019450,0.008264,0.030518,0.030518,-0.030518
10.610652,0.068857,-0.268242,10.051298,0.006045,0.018252,0.001677,0.000000,0.000000,-0.030518
10.620748,0.069456,-0.271835,10.054292,0.006644,0.014660,0.004671,0.000000,0.000000,-0.030518
10.630844,0.071851,-0.270637,10.062076,0.009039,0.015857,0.012455,0.030518,0.030518,-0.030518
10.640939,0.075443,-0.274230,10.060280,0.012631,0.012265,0.010659,0.030518,0.061035,-0.061035
10.651034,0.070054,-0.277822,10.059082,0.007243,0.008672,0.009461,0.000000,0.061035,-0.030518
10.661131,0.062271,-0.292791,10.050699,-0.000541,-0.006297,0.001079,0.030518,0.091553,-0.061035
10.671227,0.068857,-0.290995,10.044712,0.006045,-0.004500,-0.004909,0.030518,0.091553,-0.030518
10.681323,0.065264,-0.293390,10.055490,0.002453,-0.006895,0.005869,0.030518,0.030518,-0.030518
10.691419,0.067659,-0.289199,10.057286,0.004848,-0.002704,0.007665,0.030518,0.030518,0.000000
10.701515,0.061672,-0.282612,10.044712,-0.001140,0.003882,-0.004909,0.030518,0.030518,-0.030518
10.711612,0.062271,-0.277224,10.042317,-0.000541,0.009271,-0.007304,0.030518,0.030518,-0.030518
10.721708,0.059875,-0.274230,10.041119,-0.002936,0.012265,-0.008502,0.030518,0.030518,0.000000
10.731803,0.067061,-0.270038,10.063273,0.004249,0.016456,0.013652,0.000000,0.061035,0.000000
10.741895,0.073048,-0.271835,10.061477,0.010236,0.014660,0.011856,0.030518,0.030518,-0.061035
10.751990,0.076641,-0.269440,10.054891,0.013829,0.017055,0.005270,0.000000,0.000000,-0.061035
10.762084,0.074246,-0.271236,10.059082,0.011434,0.015259,0.009461,0.000000,0.061035,-0.030518
10.772176,0.075443,-0.270038,10.060878,0.012631,0.016456,0.011257,-0.030518,0.091553,-0.030518
10.782284,0.068258,-0.271835,10.065668,0.005446,0.014660,0.016047,0.000000,0.091553,-0.061035
10.792387,0.067659,-0.275427,10.061477,0.004848,0.011067,0.011856,0.000000,0.091553,0.000000
10.802482,0.064666,-0.286205,10.063273,0.001854,0.000290,0.013652,0.000000,0.091553,-0.030518
10.812577,0.064666,-0.284409,10.068063,0.001854,0.002086,0.018442,0.030518,0.091553,-0.030518
10.822687,0.062869,-0.286205,10.071656,0.000058,0.000290,0.022035,0.030518,0.061035,0.030518
10.832784,0.062271,-0.288600,10.071057,-0.000541,-0.002105,0.021436,0.030518,0.061035,0.000000
10.842877,0.052092,-0.283211,10.068662,-0.010720,0.003283,0.019041,0.061035,0.061035,-0.061035
10.852973,0.043110,-0.277822,10.066866,-0.019701,0.008672,0.017245,0.030518,0.061035,-0.061035
10.863069,0.046703,-0.271236,10.063273,-0.016109,0.015259,0.013652,0.030518,0.061035,-0.061035
10.873165,0.052690,-0.265847,10.070458,-0.010121,0.020647,0.020837,0.061035,0.030518,-0.061035
10.883261,0.054487,-0.270038,10.074650,-0.008325,0.016456,0.025029,0.030518,0.030518,-0.091553
10.893356,0.064067,-0.273631,10.068063,0.001255,0.012864,0.018442,0.000000,0.030518,-0.030518
10.903448,0.074246,-0.277822,10.062675,0.011434,0.008672,0.013054,0.000000,0.000000,-0.030518
10.913540,0.080233,-0.285007,10.055490,0.017422,0.001487,0.005869,0.000000,0.061035,0.000000
10.923629,0.076641,-0.287402,10.057286,0.013829,-0.000908,0.007665,0.030518,0.061035,-0.030518
10.933719,0.072449,-0.286205,10.061477,0.009638,0.000290,0.011856,0.000000,0.061035,0.000000
10.943808,0.071252,-0.288001,10.059681,0.008440,-0.001507,0.010060,0.030518,0.030518,-0.030518
10.953897,0.071851,-0.296982,10.060878,0.009039,-0.010488,0.011257,0.061035,0.030518,0.000000
10.963983,0.068258,-0.302371,10.052496,0.005446,-0.015877,0.002875,0.030518,0.000000,0.000000
10.974070,0.064067,-0.302371,10.055490,0.001255,-0.015877,0.005869,0.030518,0.061035,0.030518
10.984159,0.055085,-0.293390,10.063273,-0.007726,-0.006895,0.013652,0.061035,0.061035,-0.030518
10.994249,0.054487,-0.288600,10.059681,-0.008325,-0.002105,0.010060,0.061035,0.061035,-0.061035
11.004340,0.069456,-0.284409,10.054292,0.006644,0.002086,0.004671,0.061035,0.061035,-0.061035
11.014430,0.067061,-0.283810,10.053693,0.004249,0.002685,0.004072,0.030518,0.091553,-0.061035
11.024525,0.075443,-0.279020,10.057286,0.012631,0.007475,0.007665,0.030518,0.030518,-0.030518
11.034634,0.070653,-0.273631,10.063273,0.007841,0.012864,0.013652,0.030518,0.030518,-0.030518
11.044733,0.073048,-0.276625,10.057885,0.010236,0.009870,0.008264,0.061035,0.061035,0.000000
11.054827,0.072449,-0.281415,10.056687,0.009638,0.005080,0.007066,0.030518,0.061035,-0.061035
11.064922,0.066462,-0.277822,10.060280,0.003650,0.008672,0.010659,0.030518,0.030518,-0.061035
11.075018,0.065264,-0.282014,10.063872,0.002453,0.004481,0.014251,0.061035,0.030518,0.000000
11.085146,0.064067,-0.293989,10.060280,0.001255,-0.007494,0.010659,0.030518,0.000000,-0.030518
11.095242,0.068258,-0.299976,10.054891,0.005446,-0.013482,0.005270,0.030518,0.030518,0.000000
11.105336,0.076042,-0.305964,10.055490,0.013230,-0.019469,0.005869,0.000000,0.000000,-0.030518
11.115431,0.074246,-0.308359,10.050101,0.011434,-0.021864,0.000480,0.030518,0.030518,0.000000
11.125527,0.073647,-0.306563,10.054292,0.010835,-0.020068,0.004671,0.000000,0.000000,0.000000
11.135623,0.074844,-0.296384,10.057286,0.012033,-0.009889,0.007665,0.000000,0.000000,0.000000
11.145720,0.058079,-0.276026,10.062076,-0.004732,0.010468,0.012455,0.030518,0.061035,-0.030518
11.155831,0.060474,-0.266446,10.065070,-0.002337,0.020049,0.015449,0.061035,0.061035,-0.030518
11.165936,0.057480,-0.264650,10.061477,-0.005331,0.021845,0.011856,0.061035,0.091553,-0.061035
11.176029,0.058678,-0.265248,10.063273,-0.004134,0.021246,0.013652,0.061035,0.061035,-0.061035
11.186121,0.056882,-0.267045,10.065668,-0.005930,0.019450,0.016047,0.000000,0.061035,-0.061035
11.196216,0.061073,-0.271835,10.075248,-0.001739,0.014660,0.025627,0.000000,0.061035,-0.061035
11.206311,0.053289,-0.278421,10.069860,-0.009522,0.008073,0.020239,0.030518,0.000000,-0.061035
11.216397,0.065264,-0.295785,10.062076,0.002453,-0.009290,0.012455,0.000000,0.030518,-0.030518
11.226481,0.070653,-0.293390,10.059681,0.007841,-0.006895,0.010060,0.000000,0.000000,-0.061035
11.236571,0.069456,-0.296982,10.068662,0.006644,-0.010488,0.019041,-0.030518,0.000000,-0.061035
11.246661,0.066462,-0.299976,10.059681,0.003650,-0.013482,0.010060,0.000000,-0.030518,-0.061035
11.256749,0.070653,-0.299976,10.057885,0.007841,-0.013482,0.008264,0.000000,-0.030518,-0.030518
11.266838,0.070054,-0.301174,10.056687,0.007243,-0.014679,0.007066,-0.030518,0.030518,-0.030518
11.276927,0.076042,-0.301772,10.063273,0.013230,-0.015278,0.013652,-0.030518,0.061035,0.000000
11.287016,0.076641,-0.294587,10.063273,0.013829,-0.008093,0.013652,0.030518,0.030518,0.000000
11.297105,0.074246,-0.288600,10.065668,0.011434,-0.002105,0.016047,0.030518,0.000000,0.000000
11.307194,0.075443,-0.283211,10.061477,0.012631,0.003283,0.011856,0.000000,0.000000,-0.030518
11.317288,0.071851,-0.280217,10.062675,0.009039,0.006277,0.013054,0.000000,0.000000,-0.061035
11.327391,0.074246,-0.275427,10.072255,0.011434,0.011067,0.022634,0.000000,0.000000,-0.030518
11.337487,0.069456,-0.273032,10.075248,0.006644,0.013462,0.025627,0.000000,0.061035,-0.030518
11.347586,0.071252,-0.283211,10.071057,0.008440,0.003283,0.021436,0.061035,0.061035,0.000000
11.357682,0.068258,-0.285606,10.064471,0.005446,0.000888,0.014850,0.030518,0.061035,0.000000
11.367779,0.071252,-0.288600,10.062675,0.008440,-0.002105,0.013054,0.000000,0.061035,0.030518
11.377872,0.067061,-0.286804,10.067465,0.004249,-0.000309,0.017844,0.030518,0.000000,0.030518
11.387964,0.071851,-0.284409,10.064471,0.009039,0.002086,0.014850,0.030518,0.030518,0.030518
11.398061,0.066462,-0.287402,10.069261,0.003650,-0.000908,0.019640,0.061035,0.061035,0.030518
11.408185,0.065863,-0.280816,10.065668,0.003051,0.005678,0.016047,0.030518,0.061035,0.000000
11.418277,0.067061,-0.280217,10.065070,0.004249,0.006277,0.015449,0.030518,0.091553,-0.030518
11.428367,0.066462,-0.257465,10.063273,0.003650,0.029030,0.013652,0.000000,0.122070,-0.061035
11.438457,0.070054,-0.251477,10.060878,0.007243,0.035017,0.011257,0.000000,0.122070,-0.061035
11.448547,0.069456,-0.244891,10.065668,0.006644,0.041604,0.016047,0.000000,0.091553,-0.061035
11.458636,0.065264,-0.250280,10.063872,0.002453,0.036215,0.014251,0.000000,0.061035,-0.030518
11.468725,0.069456,-0.256866,10.062675,0.006644,0.029629,0.013054,0.000000,0.061035,-0.061035
11.478814,0.068857,-0.264051,10.069261,0.006045,0.022444,0.019640,0.000000,0.061035,-0.061035
11.488915,0.073048,-0.266446,10.071656,0.010236,0.020049,0.022035,-0.030518,0.030518,-0.061035
11.499004,0.073048,-0.276625,10.065070,0.010236,0.009870,0.015449,-0.030518,0.061035,-0.061035
11.509094,0.074844,-0.280816,10.060280,0.012033,0.005678,0.010659,0.000000,0.030518,-0.061035
11.519181,0.079036,-0.293390,10.059681,0.016224,-0.006895,0.010060,0.030518,0.030518,-0.030518
11.529270,0.078437,-0.299976,10.062076,0.015625,-0.013482,0.012455,0.030518,0.061035,-0.030518
11.539384,0.069456,-0.307161,10.063273,0.006644,-0.020667,0.013652,0.000000,0.061035,-0.061035
11.549478,0.076042,-0.311353,10.068063,0.013230,-0.024858,0.018442,0.000000,0.061035,-0.030518
11.559565,0.070653,-0.306563,10.061477,0.007841,-0.020068,0.011856,0.000000,0.061035,-0.030518
11.569655,0.067659,-0.297581,10.066866,0.004848,-0.011087,0.017245,0.030518,0.061035,-0.030518
11.579743,0.067659,-0.299377,10.072255,0.004848,-0.012883,0.022634,0.000000,0.061035,-0.030518
11.589833,0.068258,-0.283810,10.069261,0.005446,0.002685,0.019640,-0.030518,0.061035,0.000000
11.599923,0.067659,-0.285007,10.063273,0.004848,0.001487,0.013652,-0.030518,0.061035,-0.030518
11.610012,0.070653,-0.279020,10.054891,0.007841,0.007475,0.005270,-0.030518,0.030518,0.000000
11.620101,0.069456,-0.277822,10.056088,0.006644,0.008672,0.006467,-0.030518,0.061035,-0.030518
11.630190,0.071851,-0.274230,10.065668,0.009039,0.012265,0.016047,0.000000,0.030518,-0.061035
11.640277,0.075443,-0.269440,10.070458,0.012631,0.017055,0.020837,0.030518,0.030518,-0.030518
11.650366,0.071252,-0.276625,10.068662,0.008440,0.009870,0.019041,0.030518,0.061035,0.000000
11.660454,0.068258,-0.281415,10.060280,0.005446,0.005080,0.010659,0.000000,0.030518,0.000000
11.670540,0.061073,-0.283810,10.062675,-0.001739,0.002685,0.013054,0.000000,0.000000,-0.061035
11.680629,0.059875,-0.291594,10.064471,-0.002936,-0.005099,0.014850,0.030518,0.000000,0.030518
11.690717,0.062271,-0.292192,10.065668,-0.000541,-0.005698,0.016047,0.000000,-0.030518,0.000000
11.700806,0.062271,-0.296982,10.058483,-0.000541,-0.010488,0.008862,0.000000,0.000000,-0.030518
11.710895,0.068857,-0.299377,10.055490,0.006045,-0.012883,0.005869,0.030518,0.000000,-0.030518
11.720987,0.076641,-0.305365,10.056088,0.013829,-0.018871,0.006467,0.000000,0.030518,-0.061035
11.731083,0.077239,-0.296384,10.065070,0.014428,-0.009889,0.015449,0.030518,0.030518,-0.030518
11.741180,0.080832,-0.288001,10.069860,0.018020,-0.001507,0.020239,0.000000,0.030518,-0.030518
11.751275,0.088017,-0.271236,10.066866,0.025205,0.015259,0.017245,0.061035,0.030518,-0.061035
11.761369,0.080233,-0.265847,10.068662,0.017422,0.020647,0.019041,0.061035,0.030518,-0.030518
11.771462,0.076641,-0.264650,10.068063,0.013829,0.021845,0.018442,0.000000,0.000000,0.000000
11.781555,0.071851,-0.275427,10.075248,0.009039,0.011067,0.025627,-0.061035,0.030518,-0.030518
11.791669,0.068258,-0.271835,10.075248,0.005446,0.014660,0.025627,-0.030518,0.000000,-0.030518
11.801761,0.074246,-0.277224,10.066866,0.011434,0.009271,0.017245,-0.030518,0.030518,-0.030518
11.811863,0.074844,-0.281415,10.063872,0.012033,0.005080,0.014251,-0.030518,0.000000,0.030518
11.821952,0.074844,-0.291594,10.068662,0.012033,-0.005099,0.019041,0.000000,0.061035,0.030518
11.832042,0.075443,-0.291594,10.071656,0.012631,-0.005099,0.022035,0.030518,0.030518,0.030518
11.842131,0.079634,-0.292192,10.072853,0.016823,-0.005698,0.023232,0.030518,0.061035,0.030518
11.852219,0.073048,-0.289199,10.072255,0.010236,-0.002704,0.022634,0.030518,0.061035,0.000000
11.862309,0.071851,-0.288600,10.069261,0.009039,-0.002105,0.019640,0.061035,0.030518,-0.030518
11.872398,0.064067,-0.279619,10.067465,0.001255,0.006876,0.017844,0.030518,0.000000,-0.030518
11.882487,0.062271,-0.274230,10.072853,-0.000541,0.012265,0.023232,0.030518,0.000000,-0.030518
11.892575,0.071851,-0.270038,10.072853,0.009039,0.016456,0.023232,-0.030518,0.030518,-0.061035
11.902665,0.074844,-0.269440,10.074051,0.012033,0.017055,0.024430,0.000000,0.030518,-0.061035
11.912754,0.071851,-0.267045,10.068063,0.009039,0.019450,0.018442,0.030518,0.030518,-0.061035
11.922848,0.071252,-0.258662,10.062076,0.008440,0.027832,0.012455,0.030518,0.030518,-0.061035
11.932944,0.074246,-0.256267,10.065668,0.011434,0.030227,0.016047,0.000000,0.000000,-0.061035
11.943039,0.073048,-0.260458,10.066267,0.010236,0.026036,0.016646,0.000000,0.000000,-0.030518
11.953134,0.073048,-0.271236,10.068662,0.010236,0.015259,0.019041,0.030518,0.000000,-0.030518
11.963228,0.070653,-0.273631,10.060878,0.007841,0.012864,0.011257,0.061035,0.030518,-0.061035
11.973342,0.074246,-0.275427,10.060280,0.011434,0.011067,0.010659,0.030518,0.030518,-0.061035
11.983440,0.070054,-0.294587,10.058483,0.007243,-0.008093,0.008862,-0.030518,0.030518,-0.061035
11.993538,0.066462,-0.289199,10.048903,0.003650,-0.002704,-0.000718,-0.030518,0.030518,-0.061035
12.003633,0.068258,-0.288600,10.045909,0.005446,-0.002105,-0.003712,0.030518,0.030518,-0.061035
12.013728,0.052690,-0.291594,10.050101,-0.010121,-0.005099,0.000480,0.030518,0.030518,-0.061035
12.023817,0.052092,-0.290995,10.052496,-0.010720,-0.004500,0.002875,0.030518,0.030518,-0.061035
12.033906,0.046104,-0.283211,10.059082,-0.016708,0.003283,0.009461,0.000000,0.030518,-0.030518
12.043997,0.045505,-0.282612,10.063273,-0.017306,0.003882,0.013652,0.000000,0.030518,-0.030518
12.054086,0.052092,-0.275427,10.054292,-0.010720,0.011067,0.004671,0.000000,0.000000,0.030518
12.064175,0.058678,-0.271236,10.050101,-0.004134,0.015259,0.000480,0.000000,0.030518,0.000000
12.074265,0.063468,-0.274230,10.048304,0.000656,0.012265,-0.001317,-0.030518,-0.030518,0.000000
12.084353,0.076641,-0.278421,10.064471,0.013829,0.008073,0.014850,-0.061035,-0.030518,0.000000
12.094442,0.077239,-0.278421,10.062076,0.014428,0.008073,0.012455,0.000000,0.000000,0.000000
12.104531,0.073647,-0.277822,10.060280,0.010835,0.008672,0.010659,0.030518,0.030518,0.000000
12.114620,0.079036,-0.282612,10.060280,0.016224,0.003882,0.010659,0.030518,0.061035,0.030518
12.124711,0.076042,-0.285007,10.064471,0.013230,0.001487,0.014850,0.061035,0.030518,-0.061035
12.134807,0.076042,-0.280217,10.068662,0.013230,0.006277,0.019041,0.030518,0.000000,-0.030518
12.144916,0.067659,-0.276026,10.068662,0.004848,0.010468,0.019041,0.030518,0.061035,-0.061035
12.155014,0.062869,-0.274230,10.065070,0.000058,0.012265,0.015449,0.030518,0.030518,-0.061035
12.165107,0.065863,-0.269440,10.067465,0.003051,0.017055,0.017844,0.030518,0.061035,-0.030518
12.175199,0.069456,-0.268242,10.066866,0.006644,0.018252,0.017245,0.061035,0.030518,-0.061035
12.185293,0.069456,-0.265847,10.069860,0.006644,0.020647,0.020239,0.030518,0.030518,-0.030518
12.195388,0.071252,-0.265248,10.069860,0.008440,0.021246,0.020239,0.061035,0.030518,-0.061035
12.205484,0.071252,-0.266446,10.069860,0.008440,0.020049,0.020239,0.000000,0.061035,-0.030518
12.215583,0.070054,-0.270637,10.059082,0.007243,0.015857,0.009461,0.000000,0.061035,-0.061035
12.225675,0.067061,-0.279619,10.065668,0.004249,0.006876,0.016047,0.000000,0.091553,-0.061035
12.235762,0.065264,-0.280816,10.071656,0.002453,0.005678,0.022035,0.000000,0.030518,-0.030518
12.245851,0.064067,-0.286205,10.072853,0.001255,0.000290,0.023232,-0.030518,0.000000,-0.030518
12.255940,0.058079,-0.289797,10.073452,-0.004732,-0.003303,0.023831,0.000000,-0.030518,-0.030518
12.266029,0.052092,-0.293390,10.064471,-0.010720,-0.006895,0.014850,-0.030518,-0.030518,0.000000
12.276118,0.050894,-0.288600,10.063872,-0.011917,-0.002105,0.014251,-0.030518,-0.030518,-0.030518
12.286207,0.066462,-0.293989,10.060878,0.003650,-0.007494,0.011257,-0.030518,0.030518,-0.030518
12.296297,0.070054,-0.292791,10.062076,0.007243,-0.006297,0.012455,0.000000,0.030518,-0.061035
12.306386,0.070653,-0.288600,10.056088,0.007841,-0.002105,0.006467,-0.030518,0.030518,-0.030518
12.316476,0.073647,-0.289199,10.058483,0.010835,-0.002704,0.008862,0.000000,0.061035,-0.030518
12.326572,0.077838,-0.286804,10.056687,0.015027,-0.000309,0.007066,0.000000,0.030518,0.000000
12.336668,0.083227,-0.286804,10.060280,0.020415,-0.000309,0.010659,-0.061035,0.030518,0.000000
12.346764,0.081431,-0.288600,10.057885,0.018619,-0.002105,0.008264,-0.061035,0.061035,0.000000
12.356859,0.079634,-0.288001,10.060878,0.016823,-0.001507,0.011257,-0.030518,0.030518,0.030518
12.366957,0.075443,-0.284409,10.061477,0.012631,0.002086,0.011856,0.000000,0.030518,0.000000
12.377089,0.074246,-0.277224,10.057286,0.011434,0.009271,0.007665,0.000000,0.061035,0.000000
12.389344,0.072449,-0.277822,10.066267,0.009638,0.008672,0.016646,0.000000,0.061035,0.000000
12.399484,0.067061,-0.280816,10.056088,0.004249,0.005678,0.006467,0.000000,0.030518,-0.030518
12.409592,0.069456,-0.277822,10.059082,0.006644,0.008672,0.009461,0.000000,0.030518,0.000000
12.419696,0.067659,-0.280217,10.058483,0.004848,0.006277,0.008862,0.000000,0.061035,-0.030518
12.429783,0.074246,-0.291594,10.059681,0.011434,-0.005099,0.010060,-0.030518,0.030518,-0.030518
12.439871,0.075443,-0.298779,10.065668,0.012631,-0.012284,0.016047,0.000000,0.000000,-0.030518
12.449962,0.070054,-0.280217,10.068063,0.007243,0.006277,0.018442,-0.030518,0.030518,-0.030518
12.460063,0.071252,-0.280217,10.069860,0.008440,0.006277,0.020239,-0.030518,0.030518,-0.061035
12.470139,0.068258,-0.276625,10.065668,0.005446,0.009870,0.016047,-0.061035,0.030518,-0.091553
12.480216,0.064067,-0.279020,10.065070,0.001255,0.007475,0.015449,-0.030518,0.000000,-0.061035
12.490289,0.060474,-0.278421,10.065668,-0.002337,0.008073,0.016047,0.000000,0.030518,-0.061035
12.500364,0.063468,-0.285606,10.066267,0.000656,0.000888,0.016646,0.030518,0.030518,-0.030518
12.510439,0.067061,-0.278421,10.063273,0.004249,0.008073,0.013652,0.030518,0.000000,-0.030518
12.520514,0.068857,-0.276026,10.054891,0.006045,0.010468,0.005270,0.000000,0.000000,-0.030518
12.532014,0.062869,-0.274230,10.060280,0.000058,0.012265,0.010659,-0.030518,0.061035,-0.030518
12.542097,0.060474,-0.272433,10.064471,-0.002337,0.014061,0.014850,0.000000,0.030518,-0.061035
12.552177,0.060474,-0.263452,10.065070,-0.002337,0.023042,0.015449,-0.030518,0.030518,-0.061035
12.562254,0.058079,-0.262255,10.054891,-0.004732,0.024240,0.005270,0.000000,0.000000,-0.030518
12.572331,0.054487,-0.259261,10.054292,-0.008325,0.027234,0.004671,0.000000,0.000000,-0.030518
12.582409,0.062271,-0.262853,10.060878,-0.000541,0.023641,0.011257,0.000000,0.030518,-0.061035
12.592487,0.064666,-0.267045,10.060878,0.001854,0.019450,0.011257,-0.030518,0.000000,-0.061035
12.602566,0.074246,-0.273631,10.060280,0.011434,0.012864,0.010659,-0.030518,0.000000,-0.091553
12.612701,0.079036,-0.281415,10.056687,0.016224,0.005080,0.007066,-0.061035,0.000000,-0.061035
12.622880,0.080832,-0.285007,10.053693,0.018020,0.001487,0.004072,-0.061035,0.000000,-0.030518
12.632972,0.086819,-0.298779,10.059681,0.024008,-0.012284,0.010060,-0.091553,0.000000,0.000000
12.643064,0.083826,-0.304167,10.060878,0.021014,-0.017673,0.011257,-0.091553,0.030518,0.000000
12.653154,0.078437,-0.307161,10.057885,0.015625,-0.020667,0.008264,-0.061035,0.030518,0.000000
12.663242,0.070054,-0.305365,10.059681,0.007243,-0.018871,0.010060,-0.061035,0.030518,-0.030518
12.673331,0.073647,-0.299377,10.054891,0.010835,-0.012883,0.005270,-0.061035,0.030518,0.000000
12.683421,0.067659,-0.290995,10.056687,0.004848,-0.004500,0.007066,-0.061035,0.000000,-0.030518
12.693516,0.067061,-0.292192,10.051298,0.004249,-0.005698,0.001677,-0.091553,-0.030518,0.000000
12.703608,0.062271,-0.290396,10.042317,-0.000541,-0.003902,-0.007304,-0.091553,-0.030518,-0.030518
