time,ax_raw,ay_raw,az_raw,ax,ay,az,gx,gy,gz
0.001484,-0.157473,-0.825084,10.054292,-0.007208,0.000996,-0.009870,0.000000,0.091553,0.000000
0.011570,-0.156874,-0.823288,10.060878,-0.006609,0.002792,-0.003283,0.061035,0.091553,0.000000
0.021663,-0.155078,-0.829276,10.054292,-0.004812,-0.003195,-0.009870,0.030518,0.091553,0.030518
0.031755,-0.150287,-0.826282,10.047706,-0.000022,-0.000201,-0.016456,0.030518,0.091553,0.030518
0.041848,-0.150287,-0.820294,10.045909,-0.000022,0.005786,-0.018252,0.030518,0.091553,0.030518
0.051939,-0.150886,-0.825683,10.052496,-0.000621,0.000397,-0.011666,0.030518,0.091553,-0.030518
0.062030,-0.150287,-0.830473,10.058483,-0.000022,-0.004393,-0.005678,0.061035,0.122070,-0.091553
0.072120,-0.144899,-0.835263,10.060878,0.005366,-0.009183,-0.003283,0.000000,0.091553,-0.061035
0.082210,-0.150287,-0.833467,10.054891,-0.000022,-0.007386,-0.009271,-0.030518,0.091553,-0.030518
0.092300,-0.147892,-0.834066,10.057885,0.002373,-0.007985,-0.006277,0.030518,0.091553,-0.030518
0.102390,-0.150886,-0.840053,10.058483,-0.000621,-0.013973,-0.005678,0.030518,0.091553,0.000000
0.112480,-0.149090,-0.838257,10.056687,0.001175,-0.012176,-0.007475,0.061035,0.091553,0.030518
0.122571,-0.153880,-0.835263,10.060280,-0.003615,-0.009183,-0.003882,0.030518,0.061035,0.000000
0.132660,-0.156275,-0.832868,10.057885,-0.006010,-0.006788,-0.006277,0.030518,0.061035,-0.030518
0.142750,-0.163460,-0.828078,10.057286,-0.013195,-0.001998,-0.006876,0.000000,0.061035,0.000000
0.152840,-0.161065,-0.821492,10.052496,-0.010800,0.004589,-0.011666,0.030518,0.061035,0.000000
0.162930,-0.158071,-0.825084,10.053094,-0.007806,0.000996,-0.011067,0.000000,0.061035,0.000000
0.173020,-0.155078,-0.828677,10.044712,-0.004812,-0.002596,-0.019450,0.000000,0.061035,0.000000
0.183110,-0.156275,-0.832269,10.042317,-0.006010,-0.006189,-0.021845,0.000000,0.061035,0.030518
0.193200,-0.154479,-0.832868,10.051897,-0.004214,-0.006788,-0.012265,0.061035,0.091553,0.030518
0.203290,-0.155676,-0.832868,10.054292,-0.005411,-0.006788,-0.009870,0.000000,0.091553,0.030518
0.213380,-0.157473,-0.838257,10.050699,-0.007208,-0.012176,-0.013462,0.000000,0.061035,0.000000
0.223470,-0.153281,-0.834066,10.047706,-0.003016,-0.007985,-0.016456,0.030518,0.091553,0.000000
0.233605,-0.152682,-0.833467,10.050699,-0.002417,-0.007386,-0.013462,0.030518,0.061035,0.000000
0.243702,-0.154479,-0.832269,10.057286,-0.004214,-0.006189,-0.006876,0.061035,0.091553,0.030518
0.253794,-0.152084,-0.831671,10.059082,-0.001819,-0.005590,-0.005080,0.061035,0.091553,0.000000
0.263886,-0.149689,-0.831072,10.060280,0.000576,-0.004991,-0.003882,0.030518,0.061035,-0.030518
0.273981,-0.153281,-0.837658,10.054891,-0.003016,-0.011578,-0.009271,0.030518,0.091553,0.000000
0.284073,-0.154479,-0.833467,10.051897,-0.004214,-0.007386,-0.012265,0.000000,0.091553,0.000000
0.294165,-0.152682,-0.831671,10.056088,-0.002417,-0.005590,-0.008073,0.030518,0.091553,0.000000
0.304261,-0.153880,-0.829276,10.060280,-0.003615,-0.003195,-0.003882,0.061035,0.061035,0.030518
0.314357,-0.154479,-0.830473,10.056088,-0.004214,-0.004393,-0.008073,0.061035,0.030518,0.030518
0.324449,-0.156275,-0.834066,10.057286,-0.006010,-0.007985,-0.006876,0.030518,0.030518,0.030518
0.334537,-0.150287,-0.829874,10.059082,-0.000022,-0.003794,-0.005080,0.091553,0.061035,0.030518
0.344622,-0.151485,-0.827479,10.066267,-0.001220,-0.001399,0.002105,0.061035,0.061035,0.000000
0.354708,-0.150886,-0.828677,10.066267,-0.000621,-0.002596,0.002105,0.030518,0.030518,-0.030518
0.364793,-0.149090,-0.829874,10.059681,0.001175,-0.003794,-0.004481,0.030518,0.000000,-0.030518
0.374879,-0.149689,-0.828078,10.057286,0.000576,-0.001998,-0.006876,0.030518,0.030518,-0.030518
0.384964,-0.149090,-0.830473,10.056088,0.001175,-0.004393,-0.008073,0.000000,0.061035,-0.030518
0.395050,-0.150886,-0.822689,10.069261,-0.000621,0.003391,0.005099,0.030518,0.030518,-0.030518
0.405135,-0.153880,-0.819695,10.070458,-0.003615,0.006385,0.006297,0.030518,0.061035,-0.030518
0.415221,-0.150287,-0.822689,10.065668,-0.000022,0.003391,0.001507,0.000000,0.061035,-0.030518
0.425307,-0.147892,-0.824485,10.062675,0.002373,0.001595,-0.001487,0.091553,0.061035,-0.030518
0.435435,-0.141905,-0.831671,10.065070,0.008360,-0.005590,0.000908,0.091553,0.030518,-0.030518
0.445529,-0.150886,-0.832868,10.071057,-0.000621,-0.006788,0.006895,0.061035,0.061035,0.030518
0.455623,-0.152682,-0.835862,10.066866,-0.002417,-0.009781,0.002704,0.091553,0.091553,0.030518
0.465714,-0.149689,-0.838856,10.061477,0.000576,-0.012775,-0.002685,0.091553,0.061035,0.030518
0.475808,-0.147892,-0.838856,10.057885,0.002373,-0.012775,-0.006277,0.061035,0.061035,0.030518
0.485899,-0.149689,-0.834664,10.050699,0.000576,-0.008584,-0.013462,0.061035,0.061035,0.030518
0.495994,-0.154479,-0.836461,10.054891,-0.004214,-0.010380,-0.009271,0.061035,0.061035,0.030518
0.506087,-0.153880,-0.829874,10.054292,-0.003615,-0.003794,-0.009870,0.061035,0.091553,0.030518
0.516182,-0.150886,-0.837059,10.059681,-0.000621,-0.010979,-0.004481,0.030518,0.091553,0.000000
0.526273,-0.144899,-0.831671,10.052496,0.005366,-0.005590,-0.011666,0.030518,0.091553,0.030518
0.536369,-0.148491,-0.832868,10.051897,0.001774,-0.006788,-0.012265,0.030518,0.061035,0.030518
0.546457,-0.161664,-0.824485,10.063872,-0.011399,0.001595,-0.000290,0.030518,0.061035,0.030518
0.556547,-0.159868,-0.825084,10.062675,-0.009603,0.000996,-0.001487,0.000000,0.061035,0.030518
0.566633,-0.152682,-0.828078,10.059082,-0.002417,-0.001998,-0.005080,0.000000,0.122070,0.030518
0.576721,-0.156874,-0.832269,10.056088,-0.006609,-0.006189,-0.008073,0.000000,0.122070,0.061035
0.586807,-0.154479,-0.826880,10.062675,-0.004214,-0.000800,-0.001487,0.000000,0.061035,0.030518
0.596896,-0.149090,-0.826282,10.070458,0.001175,-0.000201,0.006297,0.000000,0.061035,0.030518
0.606982,-0.149689,-0.827479,10.071656,0.000576,-0.001399,0.007494,0.000000,0.061035,0.030518
0.617070,-0.140707,-0.828677,10.066866,0.009558,-0.002596,0.002704,0.000000,0.091553,0.000000
0.627156,-0.141905,-0.828677,10.065668,0.008360,-0.002596,0.001507,0.030518,0.061035,-0.030518
0.637246,-0.150886,-0.825683,10.065668,-0.000621,0.000397,0.001507,0.030518,0.091553,-0.030518
0.647332,-0.155078,-0.827479,10.071656,-0.004812,-0.001399,0.007494,0.030518,0.091553,-0.030518
0.657421,-0.139510,-0.826880,10.068662,0.010755,-0.000800,0.004500,0.000000,0.091553,-0.030518
0.667509,-0.143701,-0.829874,10.066267,0.006564,-0.003794,0.002105,0.030518,0.091553,-0.030518
0.677598,-0.145497,-0.822689,10.062076,0.004768,0.003391,-0.002086,0.030518,0.091553,0.000000
0.687686,-0.146096,-0.826880,10.062675,0.004169,-0.000800,-0.001487,0.000000,0.061035,0.000000
0.697775,-0.152682,-0.829276,10.071057,-0.002417,-0.003195,0.006895,0.000000,0.061035,0.000000
0.707863,-0.150287,-0.825683,10.066866,-0.000022,0.000397,0.002704,0.000000,0.061035,0.030518
0.717951,-0.153281,-0.830473,10.065668,-0.003016,-0.004393,0.001507,0.030518,0.061035,0.030518
0.728040,-0.149689,-0.838257,10.060878,0.000576,-0.012176,-0.003283,0.000000,0.061035,0.030518
0.738131,-0.145497,-0.843047,10.062675,0.004768,-0.016966,-0.001487,0.000000,0.091553,0.030518
0.748229,-0.146695,-0.838856,10.058483,0.003570,-0.012775,-0.005678,-0.030518,0.061035,0.000000
0.758325,-0.143102,-0.838856,10.061477,0.007163,-0.012775,-0.002685,0.000000,0.061035,-0.030518
0.768419,-0.146695,-0.841849,10.062076,0.003570,-0.015769,-0.002086,0.000000,0.061035,-0.061035
0.778576,-0.150287,-0.837059,10.060878,-0.000022,-0.010979,-0.003283,0.000000,0.061035,-0.030518
0.788670,-0.152084,-0.838856,10.059082,-0.001819,-0.012775,-0.005080,-0.030518,0.091553,0.000000
0.798768,-0.153281,-0.832868,10.071057,-0.003016,-0.006788,0.006895,0.000000,0.091553,0.000000
0.808864,-0.149090,-0.832868,10.072255,0.001175,-0.006788,0.008093,-0.030518,0.030518,-0.030518
0.818959,-0.143102,-0.834066,10.065668,0.007163,-0.007985,0.001507,0.000000,0.091553,-0.030518
0.829060,-0.148491,-0.832868,10.065668,0.001774,-0.006788,0.001507,0.000000,0.091553,-0.030518
0.839147,-0.143701,-0.834664,10.067465,0.006564,-0.008584,0.003303,0.000000,0.091553,0.030518
0.849239,-0.140707,-0.835862,10.071656,0.009558,-0.009781,0.007494,0.030518,0.091553,0.030518
0.859333,-0.144300,-0.834664,10.074051,0.005965,-0.008584,0.009889,0.030518,0.091553,0.000000
0.869423,-0.147294,-0.838257,10.060280,0.002971,-0.012176,-0.003882,0.030518,0.091553,-0.030518
0.879514,-0.143102,-0.834664,10.062076,0.007163,-0.008584,-0.002086,0.030518,0.091553,-0.030518
0.889603,-0.139510,-0.831671,10.062076,0.010755,-0.005590,-0.002086,0.061035,0.091553,-0.030518
0.899693,-0.145497,-0.826880,10.063273,0.004768,-0.000800,-0.000888,0.061035,0.122070,-0.030518
0.909781,-0.146695,-0.829276,10.057286,0.003570,-0.003195,-0.006876,0.091553,0.091553,-0.030518
0.919871,-0.155078,-0.827479,10.050699,-0.004812,-0.001399,-0.013462,0.091553,0.091553,0.000000
0.929961,-0.163460,-0.831671,10.050699,-0.013195,-0.005590,-0.013462,0.061035,0.061035,0.030518
0.940051,-0.167651,-0.837658,10.062076,-0.017386,-0.011578,-0.002086,0.091553,0.061035,0.030518
0.950140,-0.171843,-0.835862,10.069860,-0.021578,-0.009781,0.005698,0.061035,0.061035,0.030518
0.960226,-0.164059,-0.835263,10.066866,-0.013794,-0.009183,0.002704,0.030518,0.091553,0.030518
0.970316,-0.163460,-0.834066,10.064471,-0.013195,-0.007985,0.000309,0.030518,0.091553,0.030518
0.980405,-0.165256,-0.834664,10.062076,-0.014991,-0.008584,-0.002086,0.061035,0.091553,-0.030518
0.990494,-0.167651,-0.846639,10.092612,-0.017386,-0.020559,0.028451,0.183105,0.061035,-0.061035
1.000583,-0.161065,-0.851429,10.104587,-0.010800,-0.025349,0.040426,1.068115,-0.366211,-0.061035
1.010673,-0.145497,-0.809517,10.063273,0.004768,0.016564,-0.000888,1.220703,-0.427246,-0.061035
1.020763,-0.143701,-0.804128,10.051298,0.006564,0.021953,-0.012864,1.037598,-0.366211,-0.061035
1.030853,-0.153281,-0.820294,10.068063,-0.003016,0.005786,0.003902,0.793457,-0.183105,-0.061035
1.040960,-0.159868,-0.828677,10.076446,-0.009603,-0.002596,0.012284,0.854492,-0.213623,-0.061035
1.051056,-0.153281,-0.810714,10.061477,-0.003016,0.015366,-0.002685,1.190186,-0.366211,-0.061035
1.061153,-0.143102,-0.796943,10.049502,0.007163,0.029138,-0.014660,1.129150,-0.335693,-0.030518
1.071249,-0.144300,-0.802930,10.050101,0.005965,0.023150,-0.014061,0.854492,-0.244141,-0.030518
1.081344,-0.144899,-0.818498,10.069261,0.005366,0.007582,0.005099,0.976562,-0.244141,-0.030518
1.091440,-0.143701,-0.830473,10.086026,0.006564,-0.004393,0.021864,1.220703,-0.366211,-0.030518
1.101535,-0.159868,-0.874781,10.142309,-0.009603,-0.048700,0.078147,2.624512,-0.823975,-0.091553
1.111632,-0.162861,-0.884960,10.156080,-0.012596,-0.058879,0.091919,3.906250,-1.251221,-0.122070
1.121728,-0.148491,-0.861010,10.133328,0.001774,-0.034929,0.069166,6.530762,-2.014160,-0.213623
1.131823,-0.141306,-0.836461,10.105785,0.008959,-0.010380,0.041623,7.537842,-2.319336,-0.213623
1.141928,-0.137115,-0.817899,10.097402,0.013150,0.008181,0.033241,8.789062,-2.655029,-0.244141
1.152021,-0.132325,-0.779579,10.083032,0.017940,0.046502,0.018871,9.246826,-2.746582,-0.244141
1.162110,-0.125140,-0.767005,10.077045,0.025125,0.059075,0.012883,9.582520,-2.838135,-0.274658
1.172200,-0.117955,-0.718506,10.064471,0.032310,0.107575,0.000309,10.070801,-2.960205,-0.274658
1.182290,-0.107177,-0.695154,10.045311,0.043088,0.130926,-0.018851,10.162354,-2.960205,-0.305176
1.192379,-0.082628,-0.650847,10.018965,0.067637,0.175234,-0.045196,9.674072,-2.777100,-0.366211
1.202468,-0.077239,-0.626298,10.006990,0.073026,0.199783,-0.057171,9.124756,-2.593994,-0.366211
1.212559,-0.067659,-0.607736,10.001003,0.082606,0.218344,-0.063159,7.629395,-2.075195,-0.427246
1.222648,-0.030536,-0.563428,10.008787,0.119729,0.262652,-0.055375,6.805420,-1.861572,-0.640869
1.232737,0.017963,-0.535886,10.023755,0.168228,0.290195,-0.040406,6.134033,-1.617432,-1.251221
1.242826,0.054487,-0.508942,10.054292,0.204752,0.317139,-0.009870,5.218506,-1.251221,-3.662109
1.252916,0.076042,-0.492775,10.055490,0.226307,0.333305,-0.008672,4.913330,-1.129150,-5.218506
1.263006,0.048499,-0.468226,10.010583,0.198764,0.357854,-0.053579,3.875732,-0.762939,-8.209229
1.273096,0.036524,-0.453257,9.980645,0.186789,0.372823,-0.083517,2.838135,-0.396729,-9.338379
1.283183,0.019160,-0.436492,9.951306,0.169425,0.389588,-0.112856,-0.488281,0.671387,-10.711670
1.293273,0.021555,-0.405357,9.921368,0.171820,0.420723,-0.142793,-2.593994,1.312256,-11.230469
1.303363,0.010179,-0.404758,9.902807,0.160444,0.421322,-0.161355,-7.476807,2.777100,-12.237549
1.313448,-0.033530,-0.458646,9.900412,0.116735,0.367434,-0.163750,-10.009766,3.540039,-12.390137
1.323538,-0.065264,-0.506547,9.921368,0.085001,0.319534,-0.142793,-12.359619,4.272461,-12.268066
1.333629,-0.116757,-0.616718,9.965676,0.033508,0.209363,-0.098485,-15.960693,5.310059,-11.535645
1.343720,-0.191602,-0.693957,10.022558,-0.041337,0.132123,-0.041604,-17.150879,5.584717,-10.833740
1.353817,-0.312550,-0.971779,10.209968,-0.162285,-0.145699,0.145807,-17.120361,5.493164,-7.171631
1.363909,-0.319735,-1.080154,10.317145,-0.169470,-0.254073,0.252984,-14.617920,4.699707,-5.493164
1.374001,-0.305365,-1.096919,10.340497,-0.155100,-0.270839,0.276335,-7.019043,2.227783,-3.326416
1.384093,-0.217947,-0.901725,10.144704,-0.067682,-0.075644,0.080542,-4.486084,1.434326,-2.593994
1.394184,-0.177231,-0.811912,10.059082,-0.026966,0.014169,-0.005080,-3.631592,1.190186,-2.044678
1.404277,-0.156874,-0.777184,10.029743,-0.006609,0.048897,-0.034419,-4.638672,1.617432,-1.129150
1.414369,-0.165256,-0.829276,10.074650,-0.014991,-0.003195,0.010488,-5.004883,1.770020,-0.793457
1.424461,-0.177231,-0.874182,10.104587,-0.026966,-0.048102,0.040426,-2.929688,1.007080,-0.488281
1.434558,-0.159269,-0.841849,10.063872,-0.009004,-0.015769,-0.000290,-2.258301,0.793457,-0.366211
1.444651,-0.158670,-0.859812,10.098600,-0.008405,-0.033732,0.034438,-1.556396,0.579834,-0.244141
1.454738,-0.149689,-0.852028,10.084230,0.000576,-0.025948,0.020068,-1.251221,0.488281,-0.152588
1.464823,-0.152084,-0.844244,10.075248,-0.001819,-0.018164,0.011087,-0.946045,0.396729,-0.152588
1.474909,-0.149689,-0.843047,10.066267,0.000576,-0.016966,0.002105,-0.549316,0.244141,-0.091553
1.484996,-0.150287,-0.841849,10.064471,-0.000022,-0.015769,0.000309,-0.396729,0.152588,-0.091553
1.495082,-0.158670,-0.850232,10.085427,-0.008405,-0.024152,0.021266,0.183105,0.000000,-0.061035
1.505167,-0.158670,-0.847238,10.087822,-0.008405,-0.021158,0.023661,0.640869,-0.152588,-0.061035
1.515253,-0.156874,-0.836461,10.081236,-0.006609,-0.010380,0.017074,1.373291,-0.396729,-0.091553
1.525339,-0.140109,-0.832868,10.071656,0.010156,-0.006788,0.007494,1.617432,-0.488281,-0.061035
1.535426,-0.137714,-0.828078,10.069860,0.012551,-0.001998,0.005698,1.831055,-0.518799,-0.061035
1.545519,-0.138312,-0.808918,10.063273,0.011953,0.017163,-0.000888,2.136230,-0.579834,-0.122070
1.555613,-0.132924,-0.802930,10.061477,0.017341,0.023150,-0.002685,2.166748,-0.640869,-0.122070
1.565704,-0.128732,-0.810714,10.058483,0.021533,0.015366,-0.005678,2.136230,-0.610352,-0.091553
1.575798,-0.124541,-0.782573,10.025552,0.025724,0.043508,-0.038610,2.105713,-0.549316,-0.152588
1.585891,-0.105381,-0.724493,9.968670,0.044884,0.101587,-0.095492,0.000000,0.152588,-0.152588
1.595986,-0.088017,-0.704734,9.902807,0.062248,0.121346,-0.161355,-2.136230,0.854492,-0.427246
1.606078,-0.217348,-0.796344,10.117161,-0.067083,0.029736,0.053000,-3.448486,1.251221,-0.579834
1.616173,-0.170046,-0.838856,10.100995,-0.019781,-0.012775,0.036833,-2.838135,1.098633,-0.457764
1.626265,-0.156874,-0.835263,10.086625,-0.006609,-0.009183,0.022463,-2.227783,0.854492,-0.366211
1.636360,-0.150287,-0.828677,10.081835,-0.000022,-0.002596,0.017673,-1.312256,0.549316,-0.213623
1.646450,-0.151485,-0.830473,10.075847,-0.001220,-0.004393,0.011685,-1.007080,0.457764,-0.183105
1.656539,-0.150287,-0.829276,10.071656,-0.000022,-0.003195,0.007494,-0.610352,0.305176,-0.122070
1.666625,-0.150287,-0.831072,10.065668,-0.000022,-0.004991,0.001507,-0.427246,0.244141,-0.091553
1.676718,-0.151485,-0.834066,10.054292,-0.001220,-0.007985,-0.009870,-0.213623,0.183105,-0.061035
1.686804,-0.153281,-0.834664,10.046508,-0.003016,-0.008584,-0.017654,-0.152588,0.152588,-0.061035
1.696893,-0.152084,-0.831671,10.052496,-0.001819,-0.005590,-0.011666,-0.091553,0.091553,-0.061035
1.706979,-0.155676,-0.844244,10.066866,-0.005411,-0.018164,0.002704,0.244141,-0.091553,-0.061035
1.717069,-0.151485,-0.837059,10.059082,-0.001220,-0.010979,-0.005080,0.488281,-0.152588,-0.061035
1.727155,-0.162263,-0.858615,10.081835,-0.011998,-0.032534,0.017673,1.007080,-0.335693,-0.091553
1.737244,-0.153281,-0.847837,10.077643,-0.003016,-0.021757,0.013482,1.586914,-0.518799,-0.061035
1.747331,-0.147294,-0.831072,10.071656,0.002971,-0.004991,0.007494,2.380371,-0.762939,-0.061035
1.757420,-0.113763,-0.699944,9.944121,0.036502,0.126136,-0.120041,1.892090,-0.549316,0.030518
1.767509,-0.099393,-0.659828,9.910591,0.050872,0.166253,-0.153571,0.000000,0.091553,0.091553
1.777601,-0.136516,-0.786764,10.076446,0.013749,0.039316,0.012284,-1.647949,0.671387,0.244141
1.787686,-0.174836,-0.759221,10.086625,-0.024571,0.066859,0.022463,-1.312256,0.579834,0.518799
1.797776,-0.151485,-0.855022,10.066267,-0.001220,-0.028942,0.002105,-0.823975,0.335693,0.823975
1.807864,-0.157473,-0.851429,10.061477,-0.007208,-0.025349,-0.002685,-0.640869,0.335693,0.610352
1.817952,-0.150886,-0.855022,10.061477,-0.000621,-0.028942,-0.002685,-0.427246,0.213623,0.396729
1.828040,-0.149090,-0.850831,10.054891,0.001175,-0.024750,-0.009271,-0.305176,0.152588,0.305176
1.838129,-0.149689,-0.844244,10.055490,0.000576,-0.018164,-0.008672,-0.183105,0.122070,0.213623
1.848219,-0.144899,-0.835862,10.054891,0.005366,-0.009781,-0.009271,-0.091553,0.122070,0.091553
1.858308,-0.146695,-0.831671,10.056687,0.003570,-0.005590,-0.007475,-0.030518,0.122070,0.091553
1.868397,-0.142504,-0.832269,10.050101,0.007761,-0.006189,-0.014061,-0.061035,0.183105,0.061035
1.878484,-0.141306,-0.831072,10.045909,0.008959,-0.004991,-0.018252,-0.030518,0.152588,0.030518
1.888571,-0.147294,-0.829874,10.048304,0.002971,-0.003794,-0.015857,0.000000,0.122070,0.000000
1.898660,-0.152682,-0.829276,10.046508,-0.002417,-0.003195,-0.017654,0.030518,0.122070,0.000000
1.908749,-0.153880,-0.828677,10.046508,-0.003615,-0.002596,-0.017654,0.091553,0.061035,0.030518
1.918838,-0.158071,-0.839454,10.056687,-0.007806,-0.013374,-0.007475,0.152588,0.030518,0.000000
1.928926,-0.179626,-0.874182,10.093810,-0.029361,-0.048102,0.029648,0.366211,-0.061035,0.000000
1.939015,-0.619113,-0.583786,10.089619,-0.468848,0.242294,0.025457,1.953125,-0.579834,-0.396729
1.949111,-0.611329,-0.507744,10.024953,-0.461064,0.318336,-0.039209,1.434326,-0.610352,-1.403809
1.959207,-0.589175,-0.400567,10.024953,-0.438910,0.425513,-0.039209,-0.396729,-0.030518,-4.791260
1.969304,-0.591570,-0.526306,10.030342,-0.441305,0.299775,-0.033820,-0.854492,0.274658,-6.683350
1.979434,-0.483195,-0.701741,10.028546,-0.332930,0.124340,-0.035616,-1.373291,0.885010,-10.742188
1.989531,-0.379611,-0.886756,10.092014,-0.229346,-0.060676,0.027852,-1.312256,0.946045,-11.779785
1.999627,-0.346679,-0.938848,10.082433,-0.196414,-0.112767,0.018272,-0.854492,0.823975,-11.566162
2.009723,-0.535886,-0.865800,10.153087,-0.385621,-0.039719,0.088925,0.518799,0.305176,-10.375977
2.019817,-0.614921,-0.832868,10.165660,-0.464656,-0.006788,0.101499,1.678467,-0.244141,-9.521484
2.029915,-0.591570,-0.834664,10.163864,-0.441305,-0.008584,0.099702,5.035400,-1.434326,-8.850098
2.040027,-0.586780,-0.807122,10.112970,-0.436515,0.018959,0.048808,6.134033,-1.892090,-8.239746
2.050116,-0.519719,-0.799338,10.044712,-0.369454,0.026743,-0.019450,6.225586,-1.861572,-6.866455
2.060205,-0.356259,-0.671204,9.929751,-0.205994,0.154876,-0.134411,4.943848,-1.495361,-6.225586
2.070295,-0.283810,-0.714315,9.951306,-0.133545,0.111766,-0.112856,3.265381,-0.915527,-5.828857
2.080385,-0.200583,-0.649649,9.932146,-0.050318,0.176431,-0.132016,0.640869,0.183105,-5.981445
2.090474,-0.182620,-0.668809,9.920770,-0.032355,0.157271,-0.143392,-1.190186,0.732422,-5.950928
2.100565,-0.410746,-0.733475,9.947115,-0.260481,0.092606,-0.117047,-4.913330,2.044678,-6.347656
2.110655,-0.425116,-0.816702,10.061477,-0.274851,0.009379,-0.002685,-6.011963,2.716064,-7.080078
2.120745,-0.359253,-0.847238,10.081835,-0.208988,-0.021158,0.017673,-5.096436,2.258301,-7.995605
2.130834,-0.354463,-0.890947,10.056687,-0.204198,-0.064867,-0.007475,-3.967285,1.983643,-8.270264
2.140924,-0.368234,-1.014890,10.147698,-0.217969,-0.188809,0.083536,-3.417969,1.739502,-8.941650
2.151014,-0.544867,-1.032253,10.072853,-0.394602,-0.206173,0.008692,-2.288818,1.770020,-10.742188
2.161104,-0.628693,-1.065185,10.063872,-0.478428,-0.239105,-0.000290,-1.983643,1.861572,-12.115479
2.171193,-0.566422,-1.119672,10.042916,-0.416157,-0.293591,-0.021246,-1.495361,1.739502,-14.556885
2.181282,-0.511337,-1.148412,10.123149,-0.361072,-0.322331,0.058987,-0.946045,1.586914,-15.625000
2.191372,-0.454455,-1.028661,10.051897,-0.304190,-0.202580,-0.012265,0.030518,1.434326,-16.448975
2.201461,-0.388592,-0.966989,10.058483,-0.238327,-0.140909,-0.005678,0.488281,1.556396,-16.876221
2.211550,-0.430505,-0.778980,10.039323,-0.280240,0.047100,-0.024839,0.701904,1.647949,-17.059326
2.221640,-0.455652,-0.822090,10.066866,-0.305387,0.003990,0.002704,0.244141,1.617432,-14.617920
2.231729,-0.586780,-0.831671,10.041119,-0.436515,-0.005590,-0.023042,0.305176,1.495361,-13.061523
2.241818,-0.534688,-0.924478,10.095007,-0.384423,-0.098397,0.030846,0.549316,0.915527,-9.979248
2.251911,-0.683179,-0.877176,10.031539,-0.532914,-0.051095,-0.032622,0.823975,0.762939,-8.117676
2.262007,-0.556842,-0.976569,10.060878,-0.406577,-0.150489,-0.003283,0.701904,0.305176,-3.997803
2.272102,-0.483195,-0.910706,9.999207,-0.332930,-0.084626,-0.064955,0.976562,0.152588,-2.746582
2.282198,-0.328118,-0.932261,10.062675,-0.177853,-0.106181,-0.001487,0.915527,-0.152588,-0.244141
2.292294,-0.296384,-0.923879,10.047706,-0.146119,-0.097798,-0.016456,1.190186,-0.305176,0.640869
2.302391,-0.250280,-0.744252,10.032737,-0.100015,0.081828,-0.031425,1.586914,-0.244141,1.403809
2.312487,-0.290396,-0.827479,10.015373,-0.140131,-0.001399,-0.048789,0.549316,-0.518799,3.601074
2.322583,-0.100591,-0.787961,10.020762,0.049674,0.038119,-0.043400,-0.061035,-0.366211,3.784180
2.332681,-0.048499,-0.616718,10.053693,0.101766,0.209363,-0.010468,-1.129150,-0.457764,4.028320
2.342792,-0.237107,-0.606539,10.060280,-0.086842,0.219542,-0.003882,-1.098633,-0.213623,3.753662
2.352882,-0.165855,-0.667612,10.114766,-0.015590,0.158469,0.050605,-0.854492,-0.183105,3.112793
2.362972,-0.258063,-0.722098,10.098001,-0.107798,0.103982,0.033839,-0.366211,-0.030518,3.356934
2.373062,-0.369432,-0.659229,10.064471,-0.219167,0.166851,0.000309,-0.152588,0.091553,3.936768
2.383152,-0.232916,-0.718506,10.096804,-0.082651,0.107575,0.032642,-0.549316,0.091553,5.401611
2.393241,0.096400,-0.737666,10.065070,0.246665,0.088414,0.000908,-0.488281,0.061035,5.523682
2.403328,-0.202978,-0.781375,10.028546,-0.052713,0.044705,-0.035616,-0.518799,0.091553,5.096436
2.413418,-0.253273,-0.749641,10.047107,-0.103008,0.076439,-0.017055,-0.122070,0.183105,5.310059
2.423508,-0.196990,-0.834066,10.053693,-0.046725,-0.007985,-0.010468,0.122070,0.030518,4.974365
2.433607,-0.373024,-0.872985,10.086625,-0.222759,-0.046904,0.022463,-0.122070,-0.122070,5.065918
2.443698,-0.305365,-0.894540,10.095007,-0.155100,-0.068459,0.030846,0.000000,-0.427246,5.126953
2.453784,-0.361648,-0.913101,10.035731,-0.211383,-0.087021,-0.028431,-0.305176,-1.007080,5.157471
2.463870,-0.233514,-0.938249,10.080038,-0.083249,-0.112168,0.015877,0.213623,-1.098633,5.615234
2.473956,-0.231718,-0.922681,9.975855,-0.081453,-0.096601,-0.088307,-0.091553,-1.251221,5.187988
2.484040,-0.285007,-0.945434,9.933344,-0.134742,-0.119354,-0.130818,1.708984,-0.793457,4.028320
2.494126,-0.051493,-0.987347,10.321935,0.098772,-0.161266,0.257774,1.892090,-1.617432,3.784180
2.504211,-0.509540,-0.711321,10.030342,-0.359275,0.114760,-0.033820,2.593994,-1.373291,4.730225
2.514297,-0.493374,-0.782573,10.033934,-0.343109,0.043508,-0.030227,1.892090,-1.098633,5.065918
2.524383,-0.320933,-1.001118,10.000404,-0.170668,-0.175038,-0.063758,2.349854,-0.396729,4.333496
2.534469,-0.450862,-0.944236,9.981244,-0.300597,-0.118156,-0.082918,1.770020,-0.030518,3.753662
2.544555,-0.332908,-1.147214,9.932146,-0.182643,-0.321134,-0.132016,1.312256,0.030518,5.798340
2.554647,-0.097597,-1.124462,9.990824,0.052668,-0.298381,-0.073338,0.030518,0.213623,5.035400
2.564740,-0.428110,-1.076561,10.064471,-0.277845,-0.250481,0.000309,0.091553,0.305176,3.387451
2.574833,-1.007106,-0.738265,10.001602,-0.856841,0.087816,-0.062560,-0.671387,-0.122070,5.371094
2.584925,-0.492177,-0.750240,10.056088,-0.341911,0.075841,-0.008073,-1.281738,-0.335693,6.103516
2.595013,-0.341290,-0.981958,10.024953,-0.191025,-0.155878,-0.039209,-1.831055,-0.274658,5.279541
2.605105,-0.466430,-0.848436,10.077643,-0.316165,-0.022355,0.013482,-2.349854,-0.183105,3.997803
2.615196,-0.353265,-0.899929,10.207573,-0.203000,-0.073848,0.143412,0.793457,-0.793457,1.525879
2.625288,-0.291594,-0.838856,10.178833,-0.141329,-0.012775,0.114671,-0.854492,-1.220703,2.136230
2.635379,-0.631088,-0.853824,9.992620,-0.480823,-0.027744,-0.071541,-0.061035,-0.946045,-0.640869
2.645471,-0.588576,-0.903521,10.033336,-0.438311,-0.077441,-0.030826,-0.274658,-0.640869,-1.403809
2.655560,-0.471220,-0.822689,10.004595,-0.320955,0.003391,-0.059566,1.190186,0.366211,-1.129150
2.665645,-0.416733,-0.805924,10.037527,-0.266468,0.020156,-0.026635,0.305176,0.579834,-0.549316
2.675732,-0.692161,-0.961600,9.995015,-0.541896,-0.135520,-0.069146,-0.213623,1.220703,-0.579834
2.685818,-0.227527,-0.947829,10.058483,-0.077262,-0.121749,-0.005678,-0.885010,1.953125,-2.044678
2.695905,-0.400567,-0.969983,10.079440,-0.250302,-0.143903,0.015278,-0.274658,2.136230,-3.204346
2.705991,-0.573008,-0.869392,9.999207,-0.422743,-0.043312,-0.064955,0.427246,1.892090,-3.997803
2.716078,-0.394579,-0.779579,10.053094,-0.244314,0.046502,-0.011067,0.671387,1.464844,-3.570557
2.726163,-0.535287,-0.878972,10.105186,-0.385022,-0.052892,0.041024,-0.213623,1.007080,-3.479004
2.736250,-0.483195,-0.824485,9.977053,-0.332930,0.001595,-0.087109,0.671387,0.823975,-4.333496
2.746336,-0.344284,-0.758622,10.003997,-0.194019,0.067458,-0.060165,0.640869,0.518799,-3.936768
2.756433,-0.546663,-0.787961,9.990824,-0.396398,0.038119,-0.073338,0.946045,-0.030518,-2.624512
2.766526,-0.423918,-0.883163,10.038126,-0.273653,-0.057083,-0.026036,1.312256,-0.091553,-3.173828
2.776617,-0.485590,-0.726290,10.047107,-0.335325,0.099791,-0.017055,0.366211,-0.122070,-3.051758
2.786709,-0.568817,-0.761017,10.119556,-0.418552,0.065063,0.055395,-0.213623,-0.091553,-1.617432
2.796803,-0.503553,-0.846639,10.025552,-0.353288,-0.020559,-0.038610,0.671387,0.244141,0.640869
2.806895,-0.315544,-1.050815,10.106384,-0.165279,-0.224734,0.042222,-0.183105,0.305176,0.518799
2.816989,-0.168250,-1.305286,10.109377,-0.017985,-0.479205,0.045216,0.946045,0.488281,-0.488281
2.827080,-0.149090,-0.846041,10.009385,0.001175,-0.019960,-0.054776,1.037598,0.183105,3.967285
2.837175,-0.210762,-0.766406,10.115964,-0.060497,0.059674,0.051802,0.427246,0.091553,5.187988
2.847267,0.058079,-1.149609,10.113569,0.208344,-0.323529,0.049407,0.030518,0.366211,6.652832
2.857356,0.096998,-1.181343,10.114766,0.247263,-0.355263,0.050605,0.122070,0.854492,6.805420
2.867445,-0.125140,-1.214275,10.036928,0.025125,-0.388194,-0.027234,0.854492,1.190186,8.636475
2.877535,-0.023950,-1.096320,10.007589,0.126315,-0.270240,-0.056573,0.091553,0.946045,10.345459
2.887623,0.113763,-1.058599,10.085427,0.264028,-0.232518,0.021266,-0.762939,0.152588,13.885498
2.897711,0.015568,-0.777184,10.034533,0.165833,0.048897,-0.029629,-0.976562,0.213623,13.549805
2.907800,0.198188,-0.705932,9.899214,0.348453,0.120148,-0.164947,-1.068115,0.183105,11.688232
2.917888,0.256866,0.120948,10.219548,0.407131,0.947029,0.155387,1.129150,-0.366211,7.354736
2.927977,0.244891,-0.116158,10.064471,0.395156,0.709922,0.000309,-0.885010,-1.129150,6.774902
2.938065,0.176633,-0.229922,10.102192,0.326898,0.596159,0.038031,-0.396729,-0.457764,-0.061035
2.948158,0.391586,-0.434097,9.977651,0.541851,0.391983,-0.086510,-1.312256,0.335693,-4.333496
2.958247,0.204774,-0.392184,10.065070,0.355039,0.433896,0.000908,-1.251221,1.983643,-11.871338
2.968337,-0.125739,-0.949026,10.100396,0.024526,-0.122946,0.036234,-0.305176,1.861572,-17.395020
2.978426,0.086819,-0.572410,10.117760,0.237084,0.253671,0.053598,2.014160,1.129150,-22.216797
2.988516,-0.357457,-0.762814,10.099797,-0.207192,0.063267,0.035636,-1.464844,1.342773,-23.193359
2.998605,-0.396376,-0.835862,10.164463,-0.246111,-0.009781,0.100301,-1.953125,1.159668,-24.658203
3.008695,-0.360450,-1.388513,9.878258,-0.210185,-0.562432,-0.185904,-3.234863,1.953125,-27.648926
3.018785,-0.481399,-1.209485,10.091415,-0.331134,-0.383404,0.027253,-1.983643,1.434326,-28.106689
3.028875,-0.308359,-1.295706,10.289603,-0.158094,-0.469625,0.225441,1.617432,-1.403809,-23.040771
3.038976,-0.178429,-1.206491,10.086625,-0.028164,-0.380411,0.022463,-0.396729,-1.464844,-19.561768
3.049068,-0.527503,-1.029260,10.106384,-0.377238,-0.203179,0.042222,-0.823975,-1.129150,-17.028809
3.059160,-0.256267,-1.147214,9.975256,-0.106002,-0.321134,-0.088905,0.305176,-0.579834,-15.075684
3.069256,-0.262853,-1.132245,10.036329,-0.112588,-0.306165,-0.027832,0.488281,-0.366211,-13.977051
3.079352,-0.235311,-1.139431,10.012978,-0.085046,-0.313350,-0.051184,1.190186,-0.946045,-10.559082
3.089449,-0.370031,-0.939446,10.000404,-0.219765,-0.113366,-0.063758,1.464844,-1.220703,-9.063721
3.099545,-0.361049,-0.916095,9.933344,-0.210784,-0.090015,-0.130818,1.281738,-0.457764,-7.202148
3.109641,-0.046703,-0.711321,10.032737,0.103562,0.114760,-0.031425,0.946045,-0.183105,-6.958008
3.119738,-0.083227,-0.640069,10.045909,0.067038,0.186011,-0.018252,0.427246,0.427246,-6.286621
3.129833,-0.359253,-0.356858,9.987830,-0.208988,0.469222,-0.076332,0.335693,1.708984,-5.187988
3.139931,-0.474813,-0.408351,10.118958,-0.324548,0.417730,0.054796,1.098633,2.258301,-5.310059
3.150028,-0.384999,-0.448467,10.242900,-0.234734,0.377613,0.178738,1.342773,2.105713,-2.075195
3.160118,-0.459844,-0.474813,10.027947,-0.309579,0.351268,-0.036215,0.488281,1.892090,0.427246
3.170208,-0.480201,-0.402962,10.204579,-0.329936,0.423118,0.140418,0.610352,0.793457,3.753662
3.180297,-0.410147,-0.238304,10.063273,-0.259882,0.587776,-0.000888,0.030518,0.244141,3.448486
3.190387,-0.450264,-0.056882,10.068662,-0.299999,0.769199,0.004500,0.488281,-0.091553,3.448486
3.200475,-0.532892,-0.472418,10.084828,-0.382627,0.353663,0.020667,-0.854492,-2.014160,3.479004
3.210566,-0.513732,-0.437690,10.118359,-0.363467,0.388391,0.054197,0.305176,-2.105713,2.349854
3.220654,-0.329914,-0.668210,10.066267,-0.179649,0.157870,0.002105,0.610352,-1.220703,0.640869
3.230744,-0.163460,-0.731678,10.124346,-0.013195,0.094402,0.060185,0.518799,-0.640869,0.427246
3.240833,-0.172441,-0.644260,10.028546,-0.022176,0.181820,-0.035616,0.183105,0.396729,-2.227783
3.251483,-0.393382,-0.728685,10.057286,-0.243117,0.097396,-0.006876,-0.671387,0.457764,-3.234863
3.261615,-0.250878,-0.737067,9.956695,-0.100613,0.089013,-0.107467,-1.892090,1.068115,-4.913330
3.271719,-0.156275,-0.670605,9.966874,-0.006010,0.155475,-0.097288,-1.373291,1.373291,-5.126953
3.281807,-0.221539,-0.861010,10.051897,-0.071274,-0.034929,-0.012265,-1.007080,1.953125,-4.272461
3.291897,-0.546064,-1.071771,10.072853,-0.395799,-0.245691,0.008692,-1.007080,2.014160,-2.899170
3.301988,-0.385598,-1.135239,9.966275,-0.235333,-0.309159,-0.097887,-0.762939,1.586914,-1.770020
3.312078,-0.119751,-1.113684,10.098600,0.030514,-0.287604,0.034438,-1.831055,0.671387,1.220703
3.322170,-0.258662,-0.978365,9.874067,-0.108397,-0.152285,-0.190095,-0.091553,0.823975,1.190186
3.332261,-0.244891,-1.013692,10.017768,-0.094626,-0.187612,-0.046394,-0.305176,-0.091553,1.159668
3.342348,-0.246088,-1.147813,10.030342,-0.095823,-0.321733,-0.033820,0.671387,-0.030518,-0.122070
3.352439,-0.086819,-0.975970,10.108180,0.063446,-0.149890,0.044018,1.007080,-0.061035,-0.762939
3.362527,-0.271835,-0.404758,10.118359,-0.121570,0.421322,0.054197,1.556396,0.305176,-0.640869
3.372613,-0.347877,-0.927471,10.044113,-0.197612,-0.101391,-0.020049,2.655029,0.915527,0.885010
3.382696,-0.135917,-0.310155,10.057286,0.014348,0.515925,-0.006876,7.812500,2.532959,-1.556396
3.392781,-0.040715,-0.753234,9.798025,0.109550,0.072847,-0.266137,1.831055,0.610352,4.760742
3.402866,-0.467029,-1.104703,10.137519,-0.316764,-0.278622,0.073357,-2.105713,-0.457764,3.021240
3.412951,-0.250280,-0.921484,10.093810,-0.100015,-0.095403,0.029648,-2.349854,-0.671387,2.227783
3.423037,-0.237107,-0.898731,10.088421,-0.086842,-0.072651,0.024259,-1.098633,-0.396729,3.448486
3.433125,-0.198188,-0.910107,10.024953,-0.047923,-0.084027,-0.039209,2.288818,-0.518799,4.180908
3.443211,-0.279020,-0.532293,10.154284,-0.128755,0.293787,0.090122,1.861572,-1.159668,6.286621
3.453296,-0.333506,-0.904120,9.920171,-0.183241,-0.078039,-0.143991,0.946045,-1.586914,6.683350
3.463387,-0.046703,-0.832269,10.022558,0.103562,-0.006189,-0.041604,0.549316,-1.586914,6.988525
3.473499,-0.217348,-0.768801,9.987231,-0.067083,0.057279,-0.076930,-0.305176,-0.946045,8.422852
3.483597,-0.172441,-0.762215,9.850117,-0.022176,0.063865,-0.214045,0.793457,-0.335693,9.033203
3.493693,-0.031734,-0.643661,9.951905,0.118531,0.182419,-0.112257,-1.464844,0.183105,8.850098
3.503788,-0.041913,-0.788560,10.060878,0.108352,0.037520,-0.003283,-1.281738,0.274658,7.293701
3.513884,-0.043110,-0.759221,10.126143,0.107155,0.066859,0.061981,-1.037598,0.213623,6.072998
3.523981,-0.012574,-0.781375,10.038724,0.137691,0.044705,-0.025437,0.518799,-0.244141,4.699707
3.534077,0.042512,-0.708926,10.003398,0.192777,0.117155,-0.060764,0.549316,-0.366211,4.516602
3.544170,-0.182620,-0.902922,9.865684,-0.032355,-0.076842,-0.198478,-0.732422,-0.274658,3.082275
3.554267,-0.018561,-0.705333,10.026749,0.131704,0.120747,-0.037412,-0.244141,-0.396729,3.387451
3.564358,0.020358,-0.874182,10.302177,0.170623,-0.048102,0.238015,0.518799,-0.579834,3.295898
3.574447,0.021555,-0.884960,10.021360,0.171820,-0.058879,-0.042801,0.610352,-0.793457,4.028320
3.584538,0.195194,-0.847238,10.192604,0.345459,-0.021158,0.128443,0.549316,-1.037598,5.279541
3.594627,-0.020956,-0.843047,9.968670,0.129309,-0.016966,-0.095492,0.152588,-0.396729,4.333496
3.604717,-0.016166,-0.684976,9.811198,0.134099,0.141105,-0.252964,0.091553,-0.518799,4.302979
3.614806,0.048499,-0.885558,9.963281,0.198764,-0.059478,-0.100880,-1.129150,-0.610352,3.631592
3.624896,0.289797,-0.776585,10.151889,0.440062,0.049495,0.087727,-1.739502,-1.312256,3.601074
3.634986,0.065863,-0.714913,10.165062,0.216128,0.111167,0.100900,0.549316,-0.396729,3.967285
3.645075,-0.168849,-0.726888,10.023755,-0.018584,0.099192,-0.040406,0.396729,-0.335693,5.645752
3.655165,-0.121547,-0.978365,10.144704,0.028718,-0.152285,0.080542,-0.701904,-0.427246,6.378174
3.665259,-0.001198,-0.787363,10.047107,0.149068,0.038718,-0.017055,-0.091553,-0.244141,4.821777
3.675355,-0.117955,-0.719703,10.044712,0.032310,0.106377,-0.019450,1.037598,-0.274658,4.241943
3.685452,-0.379611,-0.858016,9.990824,-0.229346,-0.031935,-0.073338,-0.396729,-0.061035,5.065918
3.695548,-0.131127,-0.871188,9.911190,0.019138,-0.045108,-0.152972,-0.885010,-0.091553,5.432129
3.705642,-0.175435,-0.834066,10.144704,-0.025170,-0.007985,0.080542,-0.976562,0.152588,6.561279
3.715741,-0.553848,-0.983156,10.084828,-0.403583,-0.157075,0.020667,0.030518,0.274658,6.072998
3.725839,-0.540077,-0.950823,10.164463,-0.389812,-0.124742,0.100301,1.068115,-0.335693,5.859375
3.735937,-0.366438,-0.965193,10.020163,-0.216173,-0.139112,-0.043999,0.732422,-0.732422,7.049561
3.746035,-0.451461,-0.987946,9.961485,-0.301196,-0.161865,-0.102677,1.098633,-0.732422,7.446289
3.756131,-0.409548,-0.989742,10.095007,-0.259283,-0.163661,0.030846,-1.220703,-0.427246,7.812500
3.766227,-0.133522,-1.016087,10.115365,0.016743,-0.190007,0.051203,-1.068115,-0.061035,7.995605
3.776325,-0.325723,-0.815504,10.122550,-0.175458,0.010576,0.058388,-1.068115,-0.091553,8.270264
3.786422,-0.420326,-0.752036,9.984836,-0.270061,0.074044,-0.079325,-0.366211,0.183105,7.598877
3.796519,-0.517923,-1.052611,10.065668,-0.367658,-0.226531,0.001507,-0.579834,-0.244141,6.927490
3.806614,-0.430505,-0.869392,10.002200,-0.280240,-0.043312,-0.061961,0.030518,-0.305176,7.476807
3.816711,-0.253273,-0.708926,10.086625,-0.103008,0.117155,0.022463,1.373291,-1.007080,7.324219
3.826806,-0.557441,-0.756826,10.097402,-0.407176,0.069254,0.033241,0.152588,-1.220703,7.934570
3.836913,-0.581391,-0.680186,10.069860,-0.431126,0.145895,0.005698,0.244141,-0.732422,8.056641
3.847008,-0.442480,-0.652643,10.071656,-0.292215,0.173438,0.007494,-1.617432,-1.403809,6.652832
3.857106,-0.658032,-0.631088,10.203981,-0.507767,0.194993,0.139819,-1.678467,-1.708984,5.584717
3.867196,-0.580792,-0.848436,10.151889,-0.430527,-0.022355,0.087727,-0.274658,-1.922607,3.845215
3.877285,-0.282612,-0.714913,10.062076,-0.132347,0.111167,-0.002086,-0.213623,-1.861572,3.295898
3.887375,-0.383203,-0.670605,10.029144,-0.232938,0.155475,-0.035017,0.061035,-0.793457,2.807617
3.897465,-0.559836,-0.765807,9.812395,-0.409571,0.060273,-0.251767,0.488281,1.159668,2.227783
3.907554,-0.378413,-0.695753,10.053693,-0.228148,0.130327,-0.010468,2.197266,2.685547,2.227783
3.917643,-0.492775,-0.938848,10.197394,-0.342510,-0.112767,0.133233,-1.342773,0.915527,1.708984
3.927733,-0.458646,-0.872386,9.881851,-0.308381,-0.046305,-0.182311,-2.044678,1.708984,-0.305176
3.937819,-0.360450,-0.860411,9.979448,-0.210185,-0.034330,-0.084714,-0.427246,0.823975,-4.058838
3.947909,0.118553,-0.846639,10.043514,0.268818,-0.020559,-0.020647,-2.593994,-0.122070,-4.302979
3.957998,0.134720,-1.211880,10.150692,0.284985,-0.385799,0.086530,-1.647949,-0.457764,-4.211426
3.968091,-0.033530,-1.035846,10.138118,0.116735,-0.209766,0.073956,-2.044678,-0.762939,-4.364014
3.978188,0.010778,-1.177751,9.884844,0.161043,-0.351670,-0.179317,-1.312256,-0.915527,-4.333496
3.988285,0.322130,-1.113085,10.071057,0.472395,-0.287005,0.006895,-1.678467,-1.403809,-1.708984
3.998381,0.058079,-1.217269,10.117760,0.208344,-0.391188,0.053598,-2.136230,-1.220703,-1.190186
4.008477,0.199984,-1.362766,10.089020,0.350249,-0.536686,0.024858,-1.403809,0.091553,-1.464844
4.018574,0.322729,-1.176553,10.019564,0.472994,-0.350473,-0.044598,0.152588,0.274658,-0.671387
4.028672,0.215552,-0.998124,9.919572,0.365817,-0.172044,-0.144590,0.885010,0.213623,2.593994
4.038765,0.028740,-0.844843,10.092612,0.179005,-0.018763,0.028451,0.213623,0.122070,4.058838
4.048862,0.055684,-1.013093,10.100396,0.205949,-0.187013,0.036234,-0.244141,0.000000,4.882812
4.058959,0.198188,-0.740660,9.941127,0.348453,0.085421,-0.123034,-0.335693,-0.732422,4.760742
4.069052,0.211959,-1.061592,10.260862,0.362224,-0.235512,0.196701,-1.342773,-1.220703,5.126953
4.079142,0.073048,-0.660427,9.950707,0.223313,0.165654,-0.113454,1.098633,0.030518,3.387451
4.089232,0.010778,-0.781375,10.011182,0.161043,0.044705,-0.052980,1.281738,1.007080,3.540039
4.099321,0.194595,-0.680186,9.916578,0.344860,0.145895,-0.147583,0.396729,1.495361,2.532959
4.109411,-0.171244,-0.871787,10.008787,-0.020979,-0.045707,-0.055375,-0.549316,1.861572,2.380371
4.119501,-0.179028,-1.083746,10.003997,-0.028763,-0.257666,-0.060165,-1.037598,1.159668,1.678467
4.129591,-0.134121,-0.743654,9.782457,0.016144,0.082427,-0.281704,-0.976562,1.037598,1.892090
4.139681,0.043110,-0.807720,9.975256,0.193375,0.018360,-0.088905,-1.281738,1.647949,2.838135
4.149771,0.028141,-0.899330,10.209370,0.178407,-0.073249,0.145208,-0.976562,0.457764,2.197266
4.159861,-0.363444,-0.826880,10.078242,-0.213179,-0.000800,0.014080,0.061035,-0.152588,2.441406
4.169957,-0.327519,-0.820294,10.169852,-0.177254,0.005786,0.105690,0.976562,-0.854492,4.058838
4.180054,-0.118553,-0.969983,10.144704,0.031712,-0.143903,0.080542,0.427246,-1.159668,5.126953
4.190150,-0.325723,-0.801733,10.075847,-0.175458,0.024348,0.011685,0.671387,-0.793457,4.638672
4.200247,-0.428708,-0.811912,10.033336,-0.278443,0.014169,-0.030826,1.708984,-0.549316,5.676270
4.210344,-0.271236,-0.670605,10.017768,-0.120971,0.155475,-0.046394,2.075195,-0.091553,6.225586
4.220439,-0.543071,-0.452659,9.846524,-0.392806,0.373422,-0.217638,1.342773,0.183105,6.072998
4.230535,-0.575403,-0.556243,9.911190,-0.425138,0.269837,-0.152972,1.525879,0.244141,5.584717
4.240631,-0.455652,-0.645458,10.188413,-0.305387,0.180623,0.124251,1.922607,0.000000,3.875732
4.250728,-0.344284,-0.984952,9.983040,-0.194019,-0.158871,-0.081122,3.631592,0.396729,2.563477
4.260824,-0.234113,-0.658032,10.168654,-0.083848,0.168049,0.104492,1.953125,0.152588,0.030518
4.270920,-0.708926,-0.749042,9.869277,-0.558661,0.077038,-0.194885,0.640869,0.579834,-1.312256
4.281016,-0.566422,-0.531096,10.327324,-0.416157,0.294985,0.263163,-0.183105,0.427246,-3.448486
4.291112,-0.264650,-0.784369,10.080637,-0.114385,0.041712,0.016475,-2.746582,-0.396729,-10.620117
4.301212,-0.388592,-0.775986,9.926757,-0.238327,0.050094,-0.137405,-1.770020,1.068115,-11.901855
4.311310,-0.114961,-1.286724,10.304572,0.035304,-0.460644,0.240410,-1.190186,0.152588,-8.453369
4.321407,-0.290396,-1.253793,10.265054,-0.140131,-0.427712,0.200892,-0.427246,0.671387,-6.469727
4.331503,-0.282014,-1.232836,10.153087,-0.131749,-0.406756,0.088925,-0.213623,1.251221,-2.868652
4.341600,-0.328716,-0.816103,10.268646,-0.178451,0.009978,0.204485,-1.983643,1.495361,1.281738
4.351692,-0.114362,-0.822689,9.899813,0.035903,0.003391,-0.164348,-2.990723,0.427246,4.699707
4.361788,-0.259860,-0.890947,10.217153,-0.109595,-0.064867,0.152992,0.213623,-0.640869,6.134033
4.371881,-0.497565,-0.487386,10.000404,-0.347300,0.338694,-0.063758,2.288818,-0.427246,5.889893
4.381971,0.104183,-0.560435,10.081835,0.254448,0.265646,0.017673,0.732422,1.312256,8.087158
4.392060,0.010179,-0.827479,10.151889,0.160444,-0.001399,0.087727,-0.152588,0.701904,7.568359
4.402149,-0.057480,-0.977767,10.052496,0.092785,-0.151686,-0.011666,-1.373291,0.885010,7.019043
4.412237,0.040715,-0.820893,9.962084,0.190980,0.005187,-0.102078,1.068115,0.732422,6.866455
4.422326,-0.161065,-1.402284,9.773476,-0.010800,-0.576204,-0.290686,0.762939,0.396729,4.516602
4.432413,-0.535886,-1.069975,10.138118,-0.385621,-0.243895,0.073956,-2.929688,-1.129150,5.187988
4.442503,-0.226928,-1.161584,9.853110,-0.076663,-0.335504,-0.211051,-2.563477,-1.342773,4.699707
4.452593,-0.040117,-1.233435,10.014774,0.110148,-0.407355,-0.049388,-3.112793,-2.136230,4.943848
4.462683,-0.063468,-1.213676,9.994417,0.086797,-0.387596,-0.069745,-1.892090,-1.373291,5.279541
4.472778,-0.077239,-1.343606,9.956695,0.073026,-0.517526,-0.107467,-1.525879,-1.739502,6.958008
4.482874,-0.020956,-1.185535,10.048903,0.129309,-0.359454,-0.015259,-0.854492,-1.739502,8.575439
4.492970,-0.185015,-1.041235,10.013577,-0.034750,-0.215154,-0.050585,1.770020,-1.434326,11.871338
4.503066,0.333506,-0.802930,10.105186,0.483771,0.023150,0.041024,2.014160,-0.488281,13.122559
4.513159,0.307760,-0.858016,10.229727,0.458025,-0.031935,0.165565,1.831055,-0.579834,12.878418
4.523255,0.158071,-0.795745,10.172247,0.308336,0.030335,0.108085,1.434326,0.854492,13.275146
4.533351,0.171843,-0.682581,10.102791,0.322108,0.143500,0.038629,1.892090,1.190186,12.908936
4.543447,0.191003,-0.567021,10.072853,0.341268,0.259060,0.008692,1.403809,1.922607,12.695312
4.553542,0.225731,-0.711321,10.092014,0.375996,0.114760,0.027852,-0.366211,1.647949,10.742188
4.563639,-0.210762,-0.784369,10.129735,-0.060497,0.041712,0.065573,-1.983643,0.366211,6.072998
4.573735,-0.142504,-0.648452,10.060878,0.007761,0.177629,-0.003283,-0.823975,-0.457764,4.760742
4.583832,-0.047302,-0.733475,9.960287,0.102963,0.092606,-0.103874,0.305176,-1.037598,4.608154
4.593928,-0.181423,-0.731678,9.848919,-0.031158,0.094402,-0.215243,1.312256,-1.220703,3.753662
4.604023,-0.195793,-0.989742,9.747729,-0.045528,-0.163661,-0.316432,-0.213623,-1.098633,3.570557
4.614119,-0.340093,-0.866997,10.148895,-0.189828,-0.040917,0.084734,-1.831055,0.152588,1.892090
4.624215,-0.301772,-0.922083,10.036329,-0.151507,-0.096002,-0.027832,-2.502441,0.396729,1.373291
4.634310,-0.192799,-0.938848,9.930948,-0.042534,-0.112767,-0.133213,0.518799,0.030518,-0.854492
4.644406,-0.045505,-0.782573,10.066267,0.104760,0.043508,0.002105,2.716064,-0.427246,-1.373291
4.654501,-0.308958,-0.893342,9.901609,-0.158692,-0.067262,-0.162552,2.319336,-1.556396,-0.091553
4.664597,-0.222737,-1.000519,9.742939,-0.072472,-0.174439,-0.321222,0.854492,-1.281738,-1.800537
4.674690,-0.107776,-1.095123,10.189012,0.042489,-0.269042,0.124850,0.152588,-0.854492,-2.471924
4.684786,-0.402363,-0.801134,9.999805,-0.252098,0.024946,-0.064356,3.051758,-2.105713,-0.854492
4.694881,-0.105381,-0.792751,9.999207,0.044884,0.033329,-0.064955,2.197266,-1.800537,-0.396729
4.704977,0.165855,-0.675994,9.909992,0.316120,0.150086,-0.154170,-0.427246,-1.007080,-1.434326
4.715072,-0.043709,-0.814905,10.018367,0.106556,0.011175,-0.045795,0.488281,-0.122070,-1.373291
4.725167,0.040117,-0.876577,10.184821,0.190382,-0.050497,0.120659,-0.213623,0.061035,0.793457
4.735263,-0.073647,-1.004711,9.998608,0.076618,-0.178630,-0.065554,-1.129150,0.885010,2.838135
4.745358,-0.131726,-0.908311,10.051897,0.018539,-0.082231,-0.012265,-1.098633,1.220703,2.868652
4.755455,0.045505,-0.989742,10.041119,0.195770,-0.163661,-0.023042,-1.251221,1.251221,1.892090
4.765550,-0.069456,-0.871787,9.841135,0.080809,-0.045707,-0.223026,-1.098633,1.312256,0.152588
4.775646,-0.301772,-0.774789,9.982441,-0.151507,0.051292,-0.081720,0.000000,1.190186,-0.122070
4.785742,0.147294,-0.792751,10.087822,0.297559,0.033329,0.023661,-0.793457,1.342773,0.091553
4.795838,-0.274230,-1.168770,10.173444,-0.123965,-0.342689,0.109282,-0.762939,-0.305176,1.556396
4.805935,0.277224,-0.689167,10.232122,0.427489,0.136914,0.167960,1.007080,-1.098633,3.753662
4.816050,-0.434097,-1.116079,9.950707,-0.283832,-0.289999,-0.113454,-0.549316,-1.617432,3.204346
4.826146,-0.016166,-0.780178,10.415341,0.134099,0.045903,0.351179,-0.152588,-0.122070,0.732422
4.836265,-0.802332,-0.734672,9.984836,-0.652067,0.091408,-0.079325,3.204346,0.305176,-0.854492
4.846360,-0.216749,-0.811313,9.944720,-0.066484,0.014768,-0.119442,3.387451,0.793457,-3.997803
4.856456,0.012574,-0.998723,9.826765,0.162839,-0.172643,-0.237397,2.593994,0.305176,-5.523682
4.866551,-0.450264,-1.055605,10.055490,-0.299999,-0.229524,-0.008672,3.906250,0.701904,-4.547119
4.876643,-0.544867,-0.746049,10.104587,-0.394602,0.080032,0.040426,0.976562,-0.213623,-3.448486
4.886733,-0.260458,-1.168770,10.203981,-0.110193,-0.342689,0.139819,-3.173828,-1.831055,-4.028320
4.896821,-0.034129,-0.831671,10.094409,0.116136,-0.005590,0.030247,-0.274658,-0.427246,-6.774902
4.906911,-0.280217,-0.808918,10.155482,-0.129952,0.017163,0.091320,-0.366211,-0.061035,-6.317139
4.917000,-0.339494,-0.861608,9.970466,-0.189229,-0.035528,-0.093695,-0.640869,0.427246,-6.652832
4.927090,-0.185614,-0.952020,9.931547,-0.035349,-0.125940,-0.132614,-0.976562,0.640869,-6.042480
4.937180,-0.308958,-0.787363,10.051897,-0.158692,0.038718,-0.012265,-0.366211,1.556396,-3.295898
4.947270,-0.413740,-0.759221,9.850715,-0.263475,0.066859,-0.213446,-1.373291,2.044678,-2.014160
4.957360,-0.220342,-0.838257,10.058483,-0.070077,-0.012176,-0.005678,-1.983643,2.624512,-3.112793
4.967448,0.058079,-0.663420,10.174043,0.208344,0.162660,0.109881,0.915527,4.150391,-6.439209
4.977543,-0.184417,-1.562151,9.596245,-0.034151,-0.736071,-0.467917,-1.403809,3.448486,-7.476807
4.987639,-0.229323,-1.158591,10.033934,-0.079058,-0.332510,-0.030227,-1.861572,1.983643,-5.065918
4.997735,-0.309556,-0.407752,10.311158,-0.159291,0.418328,0.246996,-2.258301,0.823975,-2.868652
5.007830,-0.071851,-0.755030,10.178234,0.078414,0.071050,0.114073,-0.976562,-0.885010,-4.150391
5.017927,-0.235909,-0.822689,9.947714,-0.085644,0.003391,-0.116448,-0.396729,-0.671387,-5.889893
5.028025,-0.387993,-0.937650,9.984238,-0.237728,-0.111570,-0.079924,-1.098633,-0.061035,-6.652832
5.038119,-0.531096,-0.977168,9.998009,-0.380831,-0.151088,-0.066153,-0.396729,1.831055,-8.636475
5.048215,-0.247286,-0.858016,10.087822,-0.097021,-0.031935,0.023661,1.556396,1.678467,-8.697510
5.058309,-0.258063,-0.672402,10.007589,-0.107798,0.153679,-0.056573,3.723145,1.586914,-4.241943
5.068405,-0.289199,-0.737067,10.139315,-0.138934,0.089013,0.075153,2.166748,1.159668,-1.098633
5.078501,-0.363444,-0.565225,10.223141,-0.213179,0.260856,0.158979,-2.624512,-1.007080,1.739502
5.088598,-0.141905,-0.981359,9.907597,0.008360,-0.155279,-0.156565,-1.892090,-0.671387,-2.624512
5.098695,-0.326920,-0.948428,10.081835,-0.176655,-0.122347,0.017673,-0.488281,-0.274658,-7.415771
5.108791,-0.377216,-0.747845,10.006990,-0.226951,0.078236,-0.057171,-0.915527,-0.152588,-5.340576
5.118888,-0.386796,-0.877775,10.022558,-0.236531,-0.051694,-0.041604,-0.640869,0.122070,-4.486084
5.128983,-0.198787,-0.907114,10.021959,-0.048522,-0.081033,-0.042202,-0.732422,1.312256,-6.958008
5.139079,-0.303569,-0.869991,9.988429,-0.153304,-0.043910,-0.075733,-0.610352,1.220703,-8.636475
5.149175,-0.261656,-0.719703,10.075847,-0.111391,0.106377,0.011685,1.495361,0.488281,-6.896973
5.159274,-0.390987,-0.726888,10.052496,-0.240722,0.099192,-0.011666,1.220703,-0.091553,-4.516602
5.169371,-0.511935,-0.413141,9.954899,-0.361670,0.412940,-0.109263,-0.640869,0.823975,-3.601074
5.179468,-0.392783,-0.944236,9.991423,-0.242518,-0.118156,-0.072739,-1.678467,1.129150,-5.889893
5.189564,-0.478405,-0.927471,9.981843,-0.328140,-0.101391,-0.082319,-0.640869,0.854492,-8.392334
5.199661,-0.489183,-0.769999,9.808802,-0.338918,0.056082,-0.255359,1.800537,-0.885010,-6.652832
5.209757,-0.534688,-0.687969,9.919572,-0.384423,0.138111,-0.144590,1.708984,-1.281738,-5.035400
5.219856,-0.255070,-0.865201,10.093211,-0.104805,-0.039120,0.029049,0.396729,-2.166748,-3.509521
5.229954,-0.440085,-0.879571,10.054292,-0.289820,-0.053491,-0.009870,0.549316,-1.159668,-3.112793
5.240050,-0.749042,-0.941841,9.993818,-0.598777,-0.115761,-0.070344,-0.091553,0.030518,-3.814697
5.250147,-0.360450,-0.807720,9.911788,-0.210185,0.018360,-0.152373,-1.251221,1.037598,-2.777100
5.260244,-0.480201,-0.887953,10.168055,-0.329936,-0.061873,0.103894,-2.380371,0.640869,-0.579834
5.270339,-0.310754,-0.862806,9.866283,-0.160489,-0.036725,-0.197879,-0.122070,0.244141,2.258301
5.280435,-0.499960,-1.128054,9.803414,-0.349695,-0.301974,-0.260748,0.518799,0.091553,1.861572
5.290531,-0.269440,-0.989143,9.939930,-0.119175,-0.163063,-0.124232,2.563477,0.915527,2.075195
5.300628,-0.225132,-0.947230,9.867480,-0.074867,-0.121150,-0.196681,1.617432,1.007080,3.814697
5.310725,-0.015568,-0.550854,10.053693,0.134697,0.275226,-0.010468,2.532959,1.159668,6.011963
5.320821,0.092208,-1.153801,10.195598,0.242473,-0.327720,0.131436,0.335693,0.946045,4.516602
5.330918,-0.135917,-0.988544,10.206376,0.014348,-0.162464,0.142214,2.593994,1.007080,6.652832
5.341014,-0.374222,-0.599354,10.061477,-0.223957,0.226727,-0.002685,0.061035,1.159668,9.124756
5.351110,-0.738864,-0.386197,10.285411,-0.588599,0.439884,0.221250,0.823975,2.105713,7.812500
5.361206,-0.602946,-0.744851,10.055490,-0.452681,0.081229,-0.008672,2.838135,0.213623,6.347656
5.371301,-0.183219,-1.211880,10.056687,-0.032954,-0.385799,-0.007475,2.410889,0.000000,3.967285
5.381398,-0.062271,-1.271157,10.072255,0.087995,-0.445076,0.008093,1.281738,0.030518,-0.640869
5.391493,-0.292791,-0.812510,10.807526,-0.142526,0.013570,0.743364,3.051758,0.000000,-1.739502
5.401589,-0.523312,-1.592688,10.148297,-0.373047,-0.766608,0.084135,-2.593994,-2.441406,2.624512
5.411685,-0.649649,-0.944835,10.217153,-0.499384,-0.118755,0.152992,-2.227783,-2.227783,2.380371
5.421781,-0.130529,-0.737666,10.054292,0.019736,0.088414,-0.009870,-3.112793,-1.800537,1.098633
5.431873,-0.366438,-0.738864,10.203981,-0.216173,0.087217,0.139819,-2.532959,0.549316,-2.746582
5.441968,-0.018561,-0.736469,10.118958,0.131704,0.089612,0.054796,-2.593994,0.396729,-5.462646
5.452064,-0.300575,-0.856818,10.153685,-0.150310,-0.030738,0.089524,-6.042480,-0.122070,-7.385254
5.462159,-0.135319,-0.632285,10.097402,0.014946,0.193795,0.033241,-4.577637,0.122070,-9.643555
5.472251,0.010778,-1.157393,10.351873,0.161043,-0.331313,0.287711,1.373291,0.885010,-9.918213
5.482347,-0.110171,-0.802332,9.908795,0.040094,0.023749,-0.155367,1.281738,0.152588,-8.422852
5.492443,0.197589,-0.863405,9.895023,0.347854,-0.037324,-0.169139,2.288818,-0.427246,-6.958008
5.502539,0.104782,-0.934058,10.102192,0.255047,-0.107977,0.038031,0.946045,-0.793457,-4.425049
5.512634,-0.021555,-0.565823,9.966275,0.128710,0.260257,-0.097887,1.617432,0.335693,-3.753662
5.522729,0.186812,-0.878972,10.095007,0.337077,-0.052892,0.030846,0.183105,0.823975,-2.227783
5.532824,0.061672,-1.141227,9.957892,0.211937,-0.315146,-0.106269,0.122070,0.915527,-3.631592
5.542919,0.163460,-1.084944,9.867480,0.313725,-0.258863,-0.196681,3.356934,2.380371,-3.753662
5.553015,-0.086819,-0.974174,9.851314,0.063446,-0.148094,-0.212848,-1.159668,0.793457,-0.213623
5.563110,-0.555645,-0.782573,10.018965,-0.405380,0.043508,-0.045196,-3.326416,0.152588,0.305176
5.573206,0.171244,-0.950224,10.015373,0.321509,-0.124144,-0.048789,-1.190186,-0.427246,-1.525879
5.583302,0.040715,-1.140628,10.080637,0.190980,-0.314548,0.016475,-1.525879,-0.091553,-2.044678
5.593398,-0.292192,-1.165177,10.129136,-0.141927,-0.339097,0.064975,-1.098633,-0.091553,0.000000
5.603493,-0.064067,-1.139431,10.304572,0.086198,-0.313350,0.240410,-1.037598,-0.366211,1.251221
5.613589,-0.129930,-0.830473,10.151889,0.020335,-0.004393,0.087727,-0.610352,-0.061035,2.532959
5.623684,0.037123,-0.780776,9.942924,0.187388,0.045304,-0.121238,-0.152588,0.335693,1.403809
5.633779,0.014370,-0.535886,10.099797,0.164635,0.290195,0.035636,0.305176,0.518799,4.058838
5.643875,-0.223336,-0.572410,10.082433,-0.073071,0.253671,0.018272,1.342773,0.335693,4.119873
5.653970,0.179028,-0.456251,10.041119,0.329293,0.369829,-0.023042,1.068115,0.183105,4.272461
5.664065,0.092208,-0.576601,9.977651,0.242473,0.249479,-0.086510,2.685547,1.403809,1.617432
5.674163,-0.274230,-0.768801,9.760902,-0.123965,0.057279,-0.303260,1.129150,1.525879,0.885010
5.684253,0.561632,-0.308958,10.323732,0.711897,0.517123,0.259570,0.091553,0.396729,0.396729
5.694343,0.170645,-1.192121,10.143506,0.320910,-0.366041,0.079345,-0.610352,-0.183105,0.640869
5.704432,0.610730,-1.550176,10.148895,0.760995,-0.724096,0.084734,-2.685547,-1.159668,0.762939
5.714522,-0.013173,-1.101110,10.151290,0.137092,-0.275030,0.087129,-0.183105,-0.244141,-0.274658
5.724610,0.401765,-0.705333,9.951306,0.552030,0.120747,-0.112856,0.183105,0.823975,0.152588
5.734699,0.086819,-0.856818,10.017768,0.237084,-0.030738,-0.046394,-4.058838,1.129150,-2.899170
5.744789,0.137115,-0.725691,10.083631,0.287380,0.100389,0.019469,-2.349854,0.579834,-4.241943
5.754878,0.029938,-0.937650,10.169852,0.180203,-0.111570,0.105690,-0.122070,-0.976562,-4.791260
5.764968,0.228126,-0.764011,10.008188,0.378391,0.062069,-0.055974,-1.525879,-1.434326,-3.326416
5.775058,-0.037722,-0.774190,10.076446,0.112543,0.051890,0.012284,0.366211,-1.464844,-2.685547
5.785153,-0.578397,-0.632884,9.944720,-0.428132,0.193196,-0.119442,-0.213623,-1.007080,-3.173828
5.795248,-0.461041,-0.887953,9.923165,-0.310776,-0.061873,-0.140997,-0.213623,-0.762939,-4.058838
5.805344,-0.301772,-0.973575,10.152488,-0.151507,-0.147495,0.088326,-0.061035,-1.342773,-1.800537
5.815440,-0.156874,-1.063389,10.090217,-0.006609,-0.237308,0.026056,-0.732422,-1.129150,-0.122070
5.825535,-0.134720,-1.096919,10.114766,0.015545,-0.270839,0.050605,-0.366211,-0.976562,1.220703
5.835648,-0.212558,-1.113085,10.077643,-0.062293,-0.287005,0.013482,-0.091553,-0.366211,1.953125
5.845739,-0.444276,-0.945434,10.041119,-0.294011,-0.119354,-0.023042,0.122070,-0.213623,3.509521
5.855858,-0.149689,-0.956810,9.950109,0.000576,-0.130730,-0.114053,0.396729,-0.183105,4.211426
5.865954,-0.353864,-0.966390,10.062675,-0.203599,-0.140310,-0.001487,-0.183105,-0.213623,5.218506
5.876049,-0.207169,-0.984353,10.050699,-0.056904,-0.158273,-0.013462,-1.312256,-0.152588,6.134033
5.886138,0.010778,-0.947829,10.086625,0.161043,-0.121749,0.022463,-1.617432,-0.091553,5.981445
5.896229,-0.424517,-0.965193,10.012978,-0.274252,-0.139112,-0.051184,0.244141,-0.091553,6.195068
5.906317,-0.219144,-0.879571,10.060280,-0.068879,-0.053491,-0.003882,0.671387,0.457764,6.469727
5.916406,-0.034129,-0.789758,10.127939,0.116136,0.036323,0.063777,0.457764,0.335693,5.798340
5.926495,-0.167651,-0.968785,10.068063,-0.017386,-0.142705,0.003902,0.427246,0.335693,3.570557
5.936584,-0.178429,-0.992736,10.083631,-0.028164,-0.166655,0.019469,0.152588,-0.213623,3.540039
5.946673,-0.199984,-0.956212,10.086026,-0.049719,-0.130131,0.021864,0.427246,-0.152588,2.990723
5.956763,-0.281415,-0.835263,10.057885,-0.131150,-0.009183,-0.006277,-0.396729,-0.183105,3.204346
5.966852,-0.227527,-1.107098,9.971664,-0.077262,-0.281017,-0.092498,0.457764,-0.366211,2.227783
5.976941,-0.341290,-1.110690,10.040521,-0.191025,-0.284610,-0.023641,0.579834,-0.640869,2.288818
5.987031,-0.077239,-1.011297,9.976454,0.073026,-0.185217,-0.087708,0.183105,-0.091553,2.319336
5.997126,-0.362247,-1.199905,10.124945,-0.211982,-0.373824,0.060783,0.213623,0.183105,1.464844
6.007222,-0.267643,-1.051414,9.941127,-0.117378,-0.225333,-0.123034,-1.495361,0.396729,1.953125
6.017321,-0.038919,-1.053210,10.082433,0.111346,-0.227129,0.018272,-0.640869,0.396729,2.227783
6.027418,-0.234712,-1.251398,10.210567,-0.084447,-0.425317,0.146405,-0.091553,0.427246,3.570557
6.037511,-0.390987,-1.043031,9.850715,-0.240722,-0.216951,-0.213446,0.610352,1.251221,3.723145
6.047607,-0.238903,-1.026266,10.068662,-0.088638,-0.200185,0.004500,-0.030518,0.885010,4.364014
6.057703,-0.417931,-0.868195,9.910591,-0.267666,-0.042114,-0.153571,-1.037598,0.061035,6.195068
6.067799,-0.498164,-0.865201,10.101594,-0.347899,-0.039120,0.037432,-2.380371,-0.366211,5.676270
6.077895,-0.170046,-0.702339,9.810599,-0.019781,0.123741,-0.253563,-1.281738,-1.342773,6.347656
6.087986,-0.288600,-0.638871,9.956695,-0.138335,0.187209,-0.107467,0.976562,-2.075195,4.760742
6.098076,-0.408351,-0.902324,9.810000,-0.258086,-0.076243,-0.254162,3.723145,-1.342773,4.180908
6.108165,-0.395777,-0.711321,9.753717,-0.245512,0.114760,-0.310445,0.640869,-0.732422,3.997803
6.118254,-0.158670,-0.895737,10.012978,-0.008405,-0.069657,-0.051184,0.335693,-0.610352,4.119873
6.128342,-0.326920,-0.986149,10.254875,-0.176655,-0.160069,0.190713,0.427246,-0.854492,3.143311
6.138431,-0.154479,-1.005908,10.006990,-0.004214,-0.179828,-0.057171,1.007080,-0.122070,2.838135
6.148521,-0.091609,-0.787363,10.059681,0.058656,0.038718,-0.004481,0.366211,-0.091553,1.068115
6.158610,-0.154479,-0.974174,10.202783,-0.004214,-0.148094,0.138621,-0.122070,0.213623,0.000000
6.168699,-0.341889,-0.825084,10.138716,-0.191624,0.000996,0.074555,-0.457764,0.885010,-1.525879
6.178787,-0.335901,-0.784369,9.912387,-0.185636,0.041712,-0.151775,0.122070,1.251221,-3.143311
6.188882,-0.188009,-1.011297,10.014175,-0.037744,-0.185217,-0.049986,-0.976562,0.762939,-2.929688
6.198978,-0.167053,-0.892744,10.049502,-0.016788,-0.066663,-0.014660,-1.403809,0.457764,-5.310059
6.209074,-0.256267,-0.769400,9.980645,-0.106002,0.056680,-0.083517,-1.434326,0.854492,-5.218506
6.219170,-0.132924,-0.892744,10.089020,0.017341,-0.066663,0.024858,-1.251221,0.457764,-4.455566
6.229266,-0.383203,-0.998723,9.999207,-0.232938,-0.172643,-0.064955,-1.281738,0.671387,-3.204346
6.239363,-0.088017,-0.962199,10.182426,0.062248,-0.136119,0.118264,0.152588,0.030518,-0.885010
6.249459,-0.123344,-0.757425,10.007589,0.026922,0.068655,-0.056573,1.159668,-0.610352,0.061035
6.259554,-0.038320,-1.047821,10.230326,0.111945,-0.221741,0.166164,-0.152588,-0.854492,1.068115
6.269650,0.249681,-1.082549,10.193802,0.399946,-0.256468,0.129640,-1.770020,-0.335693,1.098633
6.279746,-0.051493,-0.830473,10.063273,0.098772,-0.004393,-0.000888,-1.251221,0.396729,0.579834
6.289841,0.090412,-0.852627,10.004595,0.240677,-0.026547,-0.059566,-0.976562,0.793457,0.213623
6.299938,0.026345,-0.719105,9.957892,0.176610,0.106976,-0.106269,-0.061035,1.098633,-0.335693
6.310033,0.005389,-0.977767,9.990824,0.155654,-0.151686,-0.073338,-0.518799,1.770020,-1.831055
6.320134,0.193997,-0.913700,10.102791,0.344262,-0.087620,0.038629,-1.495361,1.647949,-1.464844
6.330231,0.078437,-0.861608,9.971664,0.228702,-0.035528,-0.092498,-1.373291,1.647949,-1.525879
6.340327,0.082029,-0.935854,9.998009,0.232294,-0.109773,-0.066153,1.251221,1.190186,-2.441406
6.350424,-0.016765,-0.790955,10.068063,0.133500,0.035125,0.003902,2.227783,0.854492,-1.495361
6.360521,0.123344,-0.953218,10.011780,0.273609,-0.127137,-0.052381,0.976562,0.152588,-1.068115
6.370617,0.019160,-0.931663,9.997410,0.169425,-0.105582,-0.066751,0.579834,0.274658,-1.861572
6.380713,-0.225132,-0.805325,9.978250,-0.074867,0.020755,-0.085912,0.091553,0.183105,-3.570557
6.390809,-0.349673,-0.801733,9.928553,-0.199408,0.024348,-0.135608,0.091553,-0.518799,-2.655029
6.400902,-0.194595,-0.907712,10.116563,-0.044330,-0.081632,0.052401,0.366211,-1.464844,-1.983643
6.410998,-0.372426,-0.834066,10.132130,-0.222161,-0.007985,0.067968,1.068115,-1.708984,-0.671387
6.421094,-0.279020,-0.853824,10.275233,-0.128755,-0.027744,0.211071,0.305176,-1.312256,0.122070
6.431190,-0.278421,-0.848436,10.194999,-0.128156,-0.022355,0.130838,-0.305176,1.312256,1.739502
6.441286,-0.381407,-1.323248,10.055490,-0.231142,-0.497168,-0.008672,-0.366211,2.014160,1.342773
6.451382,-0.249082,-0.990341,9.957892,-0.098817,-0.164260,-0.106269,1.617432,1.434326,3.387451
6.461478,0.165855,-1.278342,10.200388,0.316120,-0.452261,0.136226,-1.892090,0.701904,4.577637
6.471573,0.113763,-1.457968,10.197993,0.264028,-0.631888,0.133831,-2.624512,-0.366211,3.051758
6.481668,0.026345,-0.864003,10.331516,0.176610,-0.037923,0.267354,-0.396729,-0.946045,3.601074
6.491765,0.258662,-1.031655,10.012379,0.408927,-0.205574,-0.051783,-0.366211,-0.213623,5.065918
6.501860,-0.085622,-1.060994,10.052496,0.064643,-0.234913,-0.011666,1.007080,1.495361,4.180908
6.511955,-0.173040,-1.195115,10.177635,-0.022775,-0.369034,0.113474,1.464844,2.014160,5.157471
6.522051,-0.140707,-0.940045,10.034533,0.009558,-0.113965,-0.029629,0.396729,0.701904,8.209229
6.532148,0.013771,-1.144221,10.060878,0.164036,-0.318140,-0.003283,0.183105,0.335693,8.239746
6.542244,-0.077838,-1.008303,10.091415,0.072427,-0.182223,0.027253,-0.061035,-0.885010,8.056641
6.552339,-0.077239,-0.950823,10.118359,0.073026,-0.124742,0.054197,2.380371,-1.678467,8.361816
6.562432,-0.111368,-0.913700,9.948911,0.038897,-0.087620,-0.115251,1.800537,-1.708984,9.948730
6.572527,-0.321531,-0.851429,9.903406,-0.171266,-0.025349,-0.160756,0.549316,-1.312256,7.110596
6.582619,-0.267045,-0.823887,9.892628,-0.116780,0.002194,-0.171534,-1.037598,-0.885010,6.469727
6.592714,0.041314,-0.549657,9.925560,0.191579,0.276423,-0.138602,1.861572,0.000000,8.483887
6.602811,-0.338297,-0.837658,10.086026,-0.188031,-0.011578,0.021864,0.762939,0.030518,9.155273
6.612906,-0.451461,-1.011896,10.009385,-0.301196,-0.185815,-0.054776,-1.770020,-1.434326,6.652832
6.623001,-0.186213,-0.979563,10.138118,-0.035948,-0.153483,0.073956,-2.990723,-1.647949,6.469727
6.633097,-0.146096,-1.128653,10.017768,0.004169,-0.302573,-0.046394,-2.349854,-1.434326,7.629395
6.643193,-0.056882,-1.131048,9.841135,0.093383,-0.304968,-0.223026,-2.899170,-0.396729,10.131836
6.653288,-0.209564,-1.020877,10.042317,-0.059299,-0.194797,-0.021845,-1.708984,0.610352,10.375977
6.663384,0.288001,-0.876577,10.085427,0.438266,-0.050497,0.021266,-0.976562,-0.183105,12.023926
6.673480,-0.004191,-0.933459,10.139315,0.146074,-0.107378,0.075153,-0.854492,-0.427246,12.176514
6.683576,-0.338297,-1.095123,10.199191,-0.188031,-0.269042,0.135029,1.159668,-0.823975,11.108398
6.693671,0.335901,-1.072969,9.939930,0.486167,-0.246888,-0.124232,2.410889,-1.190186,12.207031
6.703767,0.210762,-1.091530,9.921967,0.361027,-0.265450,-0.142195,1.831055,-1.464844,13.000488
6.713863,0.205972,-1.074166,10.033934,0.356237,-0.248086,-0.030227,0.854492,-1.312256,13.427734
6.723959,0.153281,-1.111888,10.087224,0.303546,-0.285807,0.023062,1.403809,-1.129150,12.481689
6.734055,0.010179,-0.823288,9.980046,0.160444,0.002792,-0.084115,1.861572,0.030518,13.183594
6.744152,-0.105381,-0.813708,10.033934,0.044884,0.012373,-0.030227,0.915527,0.274658,12.573242
6.754247,-0.079634,-0.740061,10.069261,0.070631,0.086019,0.005099,0.122070,-0.152588,9.918213
6.764343,0.051493,-0.938249,10.103390,0.201758,-0.112168,0.039228,0.152588,-0.701904,9.429932
6.774438,0.295186,-0.984952,10.072853,0.445451,-0.158871,0.008692,1.068115,-1.800537,8.575439
6.784534,0.056283,-0.844244,10.069261,0.206548,-0.018164,0.005099,1.098633,-1.953125,7.354736
6.794630,0.090412,-0.878972,10.020762,0.240677,-0.052892,-0.043400,0.671387,-1.831055,6.408691
6.804726,0.347877,-1.023871,10.087224,0.498142,-0.197790,0.023062,-0.213623,-1.739502,3.265381
6.814822,0.298779,-0.928669,10.031539,0.449044,-0.102588,-0.032622,-0.305176,-1.464844,2.288818
6.824917,0.270637,-1.057401,10.130933,0.420902,-0.231321,0.066771,-1.037598,-1.220703,0.457764
6.835010,0.288600,-0.963995,10.044712,0.438865,-0.137915,-0.019450,-0.396729,-0.701904,0.183105
6.845105,0.202379,-1.020278,9.935739,0.352644,-0.194198,-0.128423,-0.915527,0.671387,0.671387
6.855198,-0.005389,-1.146017,9.919572,0.144876,-0.319936,-0.144590,-1.190186,0.640869,0.915527
6.865294,0.191602,-1.323847,10.098600,0.341867,-0.497767,0.034438,-0.732422,0.885010,0.335693
6.875434,-0.016765,-0.919687,10.081835,0.133500,-0.093607,0.017673,-0.823975,0.213623,3.112793
6.885532,-0.093406,-0.723296,10.036928,0.056859,0.102785,-0.027234,-0.396729,0.152588,3.234863
6.895621,0.368833,-0.966390,10.112371,0.519098,-0.140310,0.048209,0.701904,0.427246,1.220703
6.905711,0.205972,-0.777783,10.082433,0.356237,0.048298,0.018272,0.488281,0.671387,-2.593994
6.915799,-0.004191,-0.993334,10.091415,0.146074,-0.167254,0.027253,-1.464844,1.007080,-3.570557
6.925888,0.285606,-0.822689,10.048304,0.435871,0.003391,-0.015857,-1.007080,0.854492,-2.746582
6.935977,0.201182,-1.049617,10.075847,0.351447,-0.223537,0.011685,-1.098633,0.579834,-1.708984
6.946066,-0.079634,-0.953817,10.047706,0.070631,-0.127736,-0.016456,-1.464844,0.183105,-1.739502
6.956155,0.079634,-0.868195,10.188413,0.229899,-0.042114,0.124251,-1.373291,-0.244141,-1.007080
6.966244,0.271236,-1.207689,10.328522,0.421501,-0.381608,0.264360,4.516602,-0.793457,0.946045
6.976334,0.159269,-1.004711,10.254276,0.309534,-0.178630,0.190114,4.028320,-0.946045,0.518799
6.986423,-0.092208,-0.851429,10.256072,0.058057,-0.025349,0.191911,1.678467,-0.976562,1.892090
6.996517,0.335303,-0.847837,9.959090,0.485568,-0.021757,-0.105072,1.129150,-0.457764,-0.518799
7.006614,-0.177231,-0.862207,9.908196,-0.026966,-0.036127,-0.155966,0.671387,-0.640869,-2.471924
7.016710,0.170645,-0.757425,10.093810,0.320910,0.068655,0.029648,0.640869,-0.671387,-2.502441
7.026813,0.344883,-0.628094,10.178833,0.495148,0.197987,0.114671,1.220703,-0.976562,-2.136230
7.036910,0.191602,-1.001717,10.225536,0.341867,-0.175637,0.161374,0.976562,-0.793457,-6.042480
7.047007,0.173040,-0.982557,10.214758,0.323305,-0.156476,0.150597,1.098633,-0.915527,-7.873535
7.057103,0.161065,-1.027463,10.283615,0.311330,-0.201383,0.219453,0.762939,-0.976562,-6.866455
7.067200,-0.049098,-0.723895,9.912986,0.101167,0.102186,-0.151176,1.495361,0.122070,-6.378174
7.077297,0.046703,-0.659229,10.125544,0.196968,0.166851,0.061382,-1.342773,-1.831055,-7.751465
7.087427,-0.264051,-0.880768,9.932146,-0.113786,-0.054688,-0.132016,-0.793457,-1.678467,-8.972168
7.097525,0.077838,-0.881966,10.126741,0.228103,-0.055886,0.062580,-0.671387,-1.861572,-8.880615
7.107623,0.022154,-0.822689,10.099797,0.172419,0.003391,0.035636,-0.854492,-1.617432,-7.690430
7.117720,-0.268841,-1.031056,10.091415,-0.118576,-0.204976,0.027253,-0.823975,-1.495361,-6.927490
7.127855,0.158071,-0.963397,10.041119,0.308336,-0.137316,-0.023042,-1.953125,-0.823975,-6.744385
7.137948,0.135917,-0.950224,10.030941,0.286182,-0.124144,-0.033221,-1.251221,-0.427246,-7.019043
7.148044,0.132924,-0.927471,10.060878,0.283189,-0.101391,-0.003283,-0.701904,0.213623,-8.728027
7.158141,0.340692,-0.963995,10.058483,0.490957,-0.137915,-0.005678,-0.274658,0.183105,-8.239746
7.168239,0.471220,-1.026865,10.172247,0.621485,-0.200784,0.108085,-0.671387,-0.274658,-6.835938
7.178336,0.603545,-1.022673,10.024953,0.753810,-0.196593,-0.039209,0.030518,-0.946045,-4.699707
7.188432,0.609532,-1.087339,10.075248,0.759797,-0.261258,0.011087,0.244141,-0.946045,-3.662109
7.198529,0.529299,-0.768801,10.087822,0.679564,0.057279,0.023661,1.007080,-1.312256,-2.136230
7.208626,0.425116,-0.741857,10.002200,0.575381,0.084223,-0.061961,1.190186,-1.159668,-2.380371
7.218722,0.510738,-0.721500,10.086026,0.661003,0.104581,0.021864,1.068115,-1.373291,-3.448486
7.228819,0.250878,-0.783171,10.113569,0.401143,0.042909,0.049407,-0.671387,-1.068115,-4.333496
7.238915,0.174238,-0.731080,10.080637,0.324503,0.095001,0.016475,-0.366211,-1.129150,-5.645752
7.249011,0.125140,-0.769999,10.068063,0.275405,0.056082,0.003902,-0.549316,-0.427246,-7.141113
7.259108,0.035925,-0.708327,10.055490,0.186190,0.117753,-0.008672,-0.946045,-0.091553,-8.300781
7.269205,-0.019160,-1.037642,10.053094,0.131105,-0.211562,-0.011067,-0.640869,-0.579834,-11.596680
7.279302,-0.006586,-0.854423,10.062675,0.143679,-0.028343,-0.001487,0.671387,-0.030518,-13.793945
7.289398,0.026345,-0.743055,9.962682,0.176610,0.083026,-0.101479,0.549316,-1.190186,-15.228271
7.299494,-0.101190,-0.790356,10.014774,0.049075,0.035724,-0.049388,0.305176,-0.640869,-16.754150
7.309591,-0.088616,-0.796943,10.087822,0.061649,0.029138,0.023661,0.213623,-0.427246,-18.463135
7.319687,0.016765,-0.808319,10.040521,0.167030,0.017761,-0.023641,0.976562,-0.427246,-18.218994
7.329783,-0.104183,-0.814905,10.040521,0.046082,0.011175,-0.023641,0.915527,-0.152588,-16.662598
7.339883,-0.086221,-0.917292,10.106982,0.064044,-0.091212,0.042821,0.396729,-0.549316,-13.519287
7.349979,-0.071851,-0.995729,10.167457,0.078414,-0.169649,0.103295,0.183105,-0.030518,-12.207031
7.360076,-0.009580,-0.920286,10.012379,0.140685,-0.094206,-0.051783,-0.335693,2.441406,-9.063721
7.370172,0.080233,-0.942440,10.026151,0.230498,-0.116360,-0.038011,-0.671387,1.190186,-7.843018
7.380268,0.089813,-1.448987,10.073452,0.240078,-0.622906,0.009290,-0.183105,2.197266,-3.967285
7.390365,-0.083227,-0.949625,9.884246,0.067038,-0.123545,-0.179916,-2.166748,1.007080,-1.983643
7.400461,-0.039518,-0.852028,10.045909,0.110747,-0.025948,-0.018252,-2.624512,-0.976562,-2.502441
7.410558,0.270637,-0.846639,10.093810,0.420902,-0.020559,0.029648,-0.854492,0.976562,-2.044678
7.420655,0.068258,-0.859213,10.053094,0.218523,-0.033133,-0.011067,-0.976562,1.708984,-1.281738
7.430751,0.240699,-1.008902,10.048304,0.390964,-0.182822,-0.015857,-0.244141,0.915527,0.000000
7.440847,0.392184,-0.921484,10.035731,0.542449,-0.095403,-0.028431,0.579834,0.885010,-0.091553
7.450942,0.208965,-0.864602,9.942325,0.359230,-0.038522,-0.121837,-0.366211,-1.464844,-1.037598
7.461038,0.168250,-0.833467,10.019564,0.318515,-0.007386,-0.044598,-0.732422,-2.685547,-2.136230
7.471133,0.407752,-0.870590,10.057885,0.558017,-0.044509,-0.006277,-0.610352,-2.899170,-3.356934
7.481229,0.255070,-0.854423,10.048304,0.405335,-0.028343,-0.015857,-0.427246,-1.861572,-5.462646
7.491324,0.238304,-0.842448,10.084828,0.388569,-0.016368,0.020667,-0.152588,-1.800537,-5.859375
7.501420,0.173040,-0.849633,10.154284,0.323305,-0.023553,0.090122,1.525879,1.159668,-5.706787
7.511515,0.348475,-0.750240,10.032138,0.498740,0.075841,-0.032024,2.166748,2.166748,-5.187988
7.521607,0.254471,-0.733475,9.878258,0.404736,0.092606,-0.185904,1.525879,-2.227783,-5.615234
7.531703,0.241897,-0.764610,10.137519,0.392162,0.061470,0.073357,0.762939,-2.868652,-6.500244
7.541799,0.252675,-0.864003,10.100995,0.402940,-0.037923,0.036833,0.579834,-1.953125,-7.598877
7.551895,0.170645,-1.035846,10.031539,0.320910,-0.209766,-0.032622,-0.091553,-1.495361,-7.019043
7.561991,0.107177,-1.017883,10.075847,0.257442,-0.191803,0.011685,-0.244141,-1.586914,-6.561279
7.572087,0.043110,-1.012495,10.001602,0.193375,-0.186414,-0.062560,-0.183105,0.579834,-5.096436
7.582183,0.108375,-1.099913,10.031539,0.258640,-0.273832,-0.032622,0.000000,-0.305176,-4.180908
7.592279,0.032932,-1.084345,10.196796,0.183197,-0.258265,0.132634,0.335693,1.861572,-1.068115
7.602375,-0.016166,-0.847837,10.100995,0.134099,-0.021757,0.036833,0.518799,4.425049,-0.701904
7.612470,-0.053289,-0.771196,9.957892,0.096976,0.054884,-0.106269,0.762939,2.990723,-2.319336
7.622566,0.107177,-0.833467,10.044113,0.257442,-0.007386,-0.020049,0.793457,2.319336,-2.288818
7.632677,-0.100591,-0.875978,10.042916,0.049674,-0.049898,-0.021246,0.762939,2.075195,-1.098633
7.642775,-0.108375,-0.858016,9.993219,0.041890,-0.031935,-0.070943,0.122070,0.549316,-0.152588
7.652873,-0.171843,-0.909509,10.020163,-0.021578,-0.083428,-0.043999,-0.030518,-0.396729,0.396729
7.662968,-0.083826,-0.837658,10.080038,0.066439,-0.011578,0.015877,0.640869,0.640869,2.807617
7.673065,-0.050295,-0.838257,10.062076,0.099970,-0.012176,-0.002086,0.793457,0.640869,3.784180
7.683161,0.074844,-0.834066,10.087822,0.225109,-0.007985,0.023661,1.373291,1.831055,4.425049
7.693257,-0.058079,-0.722697,9.933344,0.092186,0.103383,-0.130818,1.129150,1.739502,4.699707
7.703352,-0.074246,-0.844843,9.862092,0.076019,-0.018763,-0.202070,0.244141,-0.701904,4.302979
7.713448,-0.013173,-0.847837,10.065070,0.137092,-0.021757,0.000908,-0.762939,-4.730225,1.129150
7.723544,-0.020956,-0.935854,10.166259,0.129309,-0.109773,0.102097,-0.579834,-3.570557,0.152588
7.733643,0.021555,-0.975970,10.042317,0.171820,-0.149890,-0.021845,0.030518,-0.549316,-0.823975
7.743741,0.038919,-0.942440,10.007589,0.189184,-0.116360,-0.056573,-0.061035,-0.762939,-1.007080
7.753839,0.023351,-0.955613,10.055490,0.173616,-0.129532,-0.008672,-0.213623,-0.701904,0.366211
7.763937,0.071252,-0.953817,10.036928,0.221517,-0.127736,-0.027234,-0.213623,-0.366211,0.885010
7.774033,0.073647,-0.927471,10.029144,0.223912,-0.101391,-0.035017,-0.183105,-0.396729,1.007080
7.784129,0.059875,-0.900527,10.089619,0.210141,-0.074447,0.025457,0.000000,0.122070,0.854492
7.794225,0.120350,-0.898731,10.087224,0.270615,-0.072651,0.023062,0.061035,0.579834,1.373291
7.804321,-0.037123,-0.864602,10.047706,0.113142,-0.038522,-0.016456,0.183105,1.861572,2.502441
7.814417,-0.099992,-0.861010,10.022558,0.050273,-0.034929,-0.041604,0.030518,1.525879,3.295898
7.824516,-0.083826,-0.866398,10.044113,0.066439,-0.040318,-0.020049,-0.091553,1.098633,6.195068
7.834610,-0.030536,-0.844244,10.097402,0.119729,-0.018164,0.033241,0.091553,1.922607,7.537842
7.844705,-0.096400,-0.850232,10.043514,0.053865,-0.024152,-0.020647,0.061035,1.770020,7.843018
7.854799,0.003593,-0.859213,10.002799,0.153858,-0.033133,-0.061363,-0.152588,0.549316,7.293701
7.864896,0.043110,-0.872386,10.077045,0.193375,-0.046305,0.012883,-0.396729,0.061035,7.019043
7.875005,-0.156275,-0.896336,10.047706,-0.006010,-0.070256,-0.016456,-0.885010,0.549316,5.737305
7.885109,-0.029938,-0.883163,10.046508,0.120327,-0.057083,-0.017654,-1.037598,0.427246,5.187988
7.895207,0.018561,-0.858016,10.011780,0.168826,-0.031935,-0.052381,-1.190186,0.000000,4.516602
7.905299,0.044308,-0.858615,10.019564,0.194573,-0.032534,-0.044598,-1.342773,-0.427246,3.692627
7.915423,0.108375,-0.884960,10.051298,0.258640,-0.058879,-0.012864,-1.037598,-0.366211,2.105713
7.925513,0.162263,-0.861010,10.041119,0.312528,-0.034929,-0.023042,-0.976562,-0.244141,1.617432
7.935603,0.186812,-0.869991,10.035731,0.337077,-0.043910,-0.028431,-0.976562,-0.457764,1.190186
7.945692,0.110171,-0.894540,10.066866,0.260436,-0.068459,0.002704,-0.640869,-0.427246,0.305176
7.955781,0.082029,-0.894540,10.060280,0.232294,-0.068459,-0.003882,-0.457764,-0.274658,0.091553
7.965870,-0.038919,-0.891546,10.081236,0.111346,-0.065466,0.017074,-0.091553,0.000000,0.213623
7.975960,-0.061073,-0.865201,10.071656,0.089192,-0.039120,0.007494,-0.030518,0.366211,0.854492
7.986049,0.023950,-0.881966,10.032737,0.174215,-0.055886,-0.031425,-0.518799,-0.152588,1.190186
7.996139,-0.004790,-0.880768,10.066267,0.145475,-0.054688,0.002105,-0.518799,-0.457764,0.549316
8.006230,-0.125739,-0.897534,10.071057,0.024526,-0.071453,0.006895,-0.549316,-0.305176,0.244141
8.016326,-0.029339,-0.879571,10.033336,0.120926,-0.053491,-0.030826,-0.640869,-0.305176,-0.091553
8.026442,-0.007185,-0.880170,10.050699,0.143080,-0.054089,-0.013462,-0.671387,-0.518799,-0.549316
8.036540,-0.131726,-0.937051,10.044712,0.018539,-0.110971,-0.019450,-0.976562,-0.793457,-1.525879
8.046638,-0.137714,-0.927471,10.045311,0.012551,-0.101391,-0.018851,-1.098633,-0.946045,-1.312256
8.056735,-0.105381,-0.919687,10.044113,0.044884,-0.093607,-0.020049,-1.220703,-1.129150,-1.312256
8.066832,-0.219743,-0.910107,10.060280,-0.069478,-0.084027,-0.003882,-1.129150,-0.823975,-1.159668
8.076928,-0.217348,-0.900527,10.062675,-0.067083,-0.074447,-0.001487,-1.129150,-0.854492,-0.610352
8.087024,-0.179028,-0.928669,10.077045,-0.028763,-0.102588,0.012883,-0.976562,-0.305176,0.610352
8.097120,-0.153880,-0.931064,10.060280,-0.003615,-0.104983,-0.003882,-0.915527,-0.061035,0.885010
8.107208,-0.125739,-0.925675,10.030342,0.024526,-0.099595,-0.033820,-0.976562,-0.396729,1.129150
8.117299,-0.095202,-0.915496,10.045311,0.055063,-0.089416,-0.018851,-0.976562,-0.640869,1.068115
8.127414,-0.076042,-0.903521,10.040521,0.074223,-0.077441,-0.023641,-0.976562,-0.671387,0.305176
8.137505,-0.055085,-0.920885,10.048903,0.095180,-0.094805,-0.015259,-0.885010,-0.793457,-0.427246
8.147594,-0.081431,-0.940045,10.048304,0.068834,-0.113965,-0.015857,-0.732422,-0.701904,-0.976562
8.157684,-0.055085,-0.901725,10.047706,0.095180,-0.075644,-0.016456,-0.640869,-0.762939,-1.220703
8.167774,-0.055684,-0.876577,10.051298,0.094581,-0.050497,-0.012864,-0.488281,-0.579834,-1.831055
8.177865,-0.096400,-0.972378,10.035731,0.053865,-0.146298,-0.028431,-0.335693,-0.335693,-1.892090
8.187955,-0.026345,-0.960403,10.038126,0.123920,-0.134322,-0.026036,-0.396729,-0.579834,-1.617432
8.198045,0.048499,-0.937051,10.054292,0.198764,-0.110971,-0.009870,-0.366211,-0.793457,-1.831055
8.208139,0.029938,-0.943638,10.047107,0.180203,-0.117557,-0.017055,-0.274658,-0.701904,-2.197266
8.218236,0.082628,-0.959804,10.039922,0.232893,-0.133724,-0.024240,-0.183105,-0.701904,-2.197266
8.228347,0.146695,-0.962199,10.038126,0.296960,-0.136119,-0.026036,-0.152588,-0.854492,-1.983643
8.238445,0.153281,-0.950823,10.046508,0.303546,-0.124742,-0.017654,-0.152588,-0.946045,-1.770020
8.248542,0.155676,-0.942440,10.056088,0.305941,-0.116360,-0.008073,-0.213623,-0.823975,-1.342773
8.258636,0.135917,-0.943638,10.060878,0.286182,-0.117557,-0.003283,-0.122070,-0.610352,-1.068115
8.268733,0.058678,-0.947230,10.051298,0.208943,-0.121150,-0.012864,0.000000,-0.122070,-0.610352
8.278829,0.029339,-0.946033,10.060878,0.179604,-0.119952,-0.003283,0.061035,0.122070,-0.427246
8.288926,0.006586,-0.945434,10.051897,0.156851,-0.119354,-0.012265,0.091553,0.335693,-0.213623
8.299022,-0.036524,-0.943039,10.044113,0.113741,-0.116959,-0.020049,0.030518,0.305176,-0.152588
8.309114,-0.044308,-0.937650,10.045909,0.105957,-0.111570,-0.018252,0.030518,0.244141,-0.122070
8.319204,-0.057480,-0.940045,10.050699,0.092785,-0.113965,-0.013462,0.030518,0.152588,-0.091553
8.329302,-0.060474,-0.941841,10.051897,0.089791,-0.115761,-0.012265,0.061035,0.152588,-0.030518
8.339420,-0.060474,-0.943039,10.057286,0.089791,-0.116959,-0.006876,0.061035,0.244141,0.000000
8.349510,-0.066462,-0.947230,10.057286,0.083803,-0.121150,-0.006876,0.061035,0.305176,0.000000
8.359600,-0.072449,-0.944236,10.052496,0.077816,-0.118156,-0.011666,0.061035,0.274658,0.000000
8.369692,-0.079036,-0.931064,10.049502,0.071229,-0.104983,-0.014660,0.061035,0.183105,0.000000
8.379782,-0.078437,-0.929866,10.058483,0.071828,-0.103786,-0.005678,0.030518,0.122070,0.030518
8.389869,-0.079036,-0.933459,10.063273,0.071229,-0.107378,-0.000888,-0.030518,-0.061035,0.030518
8.399957,-0.084424,-0.935255,10.051298,0.065841,-0.109175,-0.012864,-0.030518,-0.183105,0.000000
8.410047,-0.077239,-0.938848,10.042916,0.073026,-0.112767,-0.021246,-0.091553,-0.427246,-0.030518
8.420136,-0.069456,-0.942440,10.047107,0.080809,-0.116360,-0.017055,-0.091553,-0.457764,-0.030518
8.430226,-0.067659,-0.940045,10.051298,0.082606,-0.113965,-0.012864,-0.061035,-0.457764,-0.061035
8.440315,-0.055085,-0.947829,10.060878,0.095180,-0.121749,-0.003283,-0.030518,-0.396729,-0.061035
8.450402,-0.059277,-0.943039,10.057286,0.090988,-0.116959,-0.006876,0.030518,-0.122070,0.000000
8.460497,-0.058678,-0.935854,10.051298,0.091587,-0.109773,-0.012864,0.061035,-0.061035,0.000000
8.470587,-0.053289,-0.935255,10.054292,0.096976,-0.109175,-0.009870,0.091553,0.061035,0.000000
8.480685,-0.062271,-0.934656,10.063273,0.087995,-0.108576,-0.000888,0.152588,0.305176,0.030518
8.490776,-0.064666,-0.926274,10.053693,0.085599,-0.100193,-0.010468,0.122070,0.396729,0.030518
8.500865,-0.064666,-0.924478,10.045311,0.085599,-0.098397,-0.018851,0.122070,0.427246,0.030518
8.510957,-0.073647,-0.929866,10.038126,0.076618,-0.103786,-0.026036,0.122070,0.366211,0.030518
8.521054,-0.074246,-0.931663,10.038724,0.076019,-0.105582,-0.025437,0.030518,0.122070,0.030518
8.531151,-0.084424,-0.937051,10.042916,0.065841,-0.110971,-0.021246,0.030518,0.030518,0.030518
8.541247,-0.084424,-0.935854,10.041718,0.065841,-0.109773,-0.022444,-0.030518,-0.091553,-0.030518
8.551343,-0.074844,-0.932860,10.044712,0.075421,-0.106780,-0.019450,-0.061035,-0.305176,0.000000
8.561439,-0.067061,-0.934058,10.048903,0.083204,-0.107977,-0.015259,-0.030518,-0.305176,0.000000
8.571536,-0.062271,-0.943039,10.068063,0.087995,-0.116959,0.003902,0.000000,-0.152588,-0.030518
8.581632,-0.068857,-0.937650,10.065668,0.081408,-0.111570,0.001507,0.000000,-0.091553,-0.030518
8.591732,-0.065264,-0.936453,10.060280,0.085001,-0.110372,-0.003882,-0.030518,-0.152588,-0.061035
8.601829,-0.069456,-0.939446,10.052496,0.080809,-0.113366,-0.011666,0.030518,-0.152588,-0.091553
8.611921,-0.068857,-0.940045,10.048903,0.081408,-0.113965,-0.015259,0.000000,-0.213623,-0.091553
8.622011,-0.070653,-0.935255,10.049502,0.079612,-0.109175,-0.014660,0.030518,-0.366211,-0.091553
8.632101,-0.059277,-0.938848,10.061477,0.090988,-0.112767,-0.002685,0.030518,-0.396729,-0.061035
8.642190,-0.053289,-0.939446,10.067465,0.096976,-0.113366,0.003303,0.061035,-0.152588,-0.030518
8.652280,-0.050295,-0.935854,10.068063,0.099970,-0.109773,0.003902,0.091553,-0.030518,-0.030518
8.662370,-0.053888,-0.937051,10.063273,0.096377,-0.110971,-0.000888,0.122070,0.152588,0.000000
8.672460,-0.050295,-0.946033,10.065668,0.099970,-0.119952,0.001507,0.091553,0.213623,-0.030518
8.682549,-0.052690,-0.949625,10.062675,0.097575,-0.123545,-0.001487,0.122070,0.305176,-0.030518
8.692638,-0.067659,-0.940045,10.057885,0.082606,-0.113965,-0.006277,0.030518,0.213623,-0.030518
8.702727,-0.063468,-0.938848,10.059082,0.086797,-0.112767,-0.005080,0.061035,0.152588,-0.061035
8.712817,-0.062869,-0.932860,10.055490,0.087396,-0.106780,-0.008672,0.000000,0.000000,-0.091553
8.722913,-0.060474,-0.935854,10.063872,0.089791,-0.109773,-0.000290,0.030518,-0.030518,-0.061035
8.733008,-0.054487,-0.938249,10.069261,0.095778,-0.112168,0.005099,0.030518,0.183105,-0.030518
8.743105,-0.034129,-0.938249,10.073452,0.116136,-0.112168,0.009290,0.091553,0.366211,0.000000
8.753200,-0.030536,-0.943039,10.073452,0.119729,-0.116959,0.009290,0.274658,0.976562,0.152588
8.763295,-0.052092,-0.944835,10.063273,0.098173,-0.118755,-0.000888,0.305176,1.220703,0.213623
8.773391,-0.062869,-0.944835,10.061477,0.087396,-0.118755,-0.002685,0.366211,1.342773,0.244141
8.783487,-0.086819,-0.934058,10.041718,0.063446,-0.107977,-0.022444,0.305176,1.007080,0.122070
8.793582,-0.070653,-0.938848,10.054292,0.079612,-0.112767,-0.009870,0.274658,0.762939,0.061035
8.803677,-0.094005,-0.919687,10.031539,0.056261,-0.093607,-0.032622,0.335693,0.579834,0.030518
8.813774,-0.129930,-0.699944,10.117760,0.020335,0.126136,0.053598,0.335693,0.457764,-0.518799
8.823869,-0.352667,-0.465831,10.056687,-0.202402,0.360249,-0.007475,-0.701904,0.030518,-10.375977
8.833966,-0.194595,-0.603545,10.063273,-0.044330,0.222535,-0.000888,-1.556396,-1.098633,-14.556885
8.844061,-0.110171,-0.691562,10.066267,0.040094,0.134519,0.002105,-2.014160,-1.495361,-17.425537
8.854154,0.046104,-0.670007,10.089020,0.196369,0.156074,0.024858,-1.220703,-0.671387,-19.561768
8.864250,0.046104,-0.635878,10.150093,0.196369,0.190203,0.085931,0.061035,0.518799,-19.592285
8.874346,-0.052092,-0.718506,10.069261,0.098173,0.107575,0.005099,0.213623,0.976562,-20.111084
8.884443,-0.070653,-0.783770,10.054292,0.079612,0.042310,-0.009870,-0.091553,0.671387,-20.996094
8.894539,-0.058079,-0.760419,10.053094,0.092186,0.065662,-0.011067,0.122070,0.396729,-23.040771
8.904635,-0.083227,-0.792153,10.018965,0.067038,0.033928,-0.045196,-0.122070,0.183105,-23.986816
8.914731,-0.194595,-0.878373,9.888437,-0.044330,-0.052293,-0.175725,-0.274658,-0.885010,-23.895264
8.924827,-0.029339,-1.304088,10.071656,0.120926,-0.478008,0.007494,-1.617432,-3.784180,-17.700195
8.934923,0.025148,-1.553170,10.023755,0.175413,-0.727090,-0.040406,-0.152588,-3.112793,-13.427734
8.945019,0.081431,-1.341810,10.060878,0.231696,-0.515729,-0.003283,0.030518,-1.892090,-7.812500
8.955122,0.061672,-1.272354,10.065070,0.211937,-0.446274,0.000908,0.000000,-1.464844,-6.103516
8.965219,0.052690,-1.202300,10.061477,0.202955,-0.376219,-0.002685,0.030518,-0.854492,-3.692627
8.975315,0.019759,-1.091530,10.069261,0.170024,-0.265450,0.005099,0.030518,-0.640869,-2.868652
8.985411,0.010179,-1.053809,10.060280,0.160444,-0.227728,-0.003882,0.061035,-0.335693,-1.678467
8.995507,0.001198,-1.011297,10.056088,0.151463,-0.185217,-0.008073,0.061035,-0.244141,-1.281738
9.005604,-0.001796,-0.993933,10.056687,0.148469,-0.167853,-0.007475,0.061035,-0.183105,-0.976562
9.015700,-0.012574,-0.968785,10.058483,0.137691,-0.142705,-0.005678,0.061035,-0.122070,-0.579834
9.025794,-0.007185,-0.966390,10.063273,0.143080,-0.140310,-0.000888,0.061035,-0.091553,-0.457764
9.035890,-0.011975,-0.959205,10.062076,0.138290,-0.133125,-0.002086,0.030518,0.030518,-0.305176
9.045985,-0.011975,-0.951422,10.059082,0.138290,-0.125341,-0.005080,0.030518,0.061035,-0.244141
9.056078,-0.006586,-0.955613,10.056088,0.143679,-0.129532,-0.008073,0.000000,0.061035,-0.152588
9.066175,-0.010778,-0.952020,10.054292,0.139487,-0.125940,-0.009870,0.030518,0.061035,-0.122070
9.076271,-0.019759,-0.949625,10.059082,0.130506,-0.123545,-0.005080,0.000000,0.091553,-0.091553
9.086366,-0.014969,-0.949625,10.056088,0.135296,-0.123545,-0.008073,0.061035,0.091553,-0.030518
9.096462,-0.012574,-0.944236,10.053693,0.137691,-0.118156,-0.010468,0.061035,0.091553,-0.061035
9.106559,-0.015568,-0.949026,10.047107,0.134697,-0.122946,-0.017055,0.030518,0.091553,-0.061035
9.116655,-0.014370,-0.953218,10.041119,0.135895,-0.127137,-0.023042,0.061035,0.091553,-0.061035
9.126750,-0.016166,-0.952020,10.046508,0.134099,-0.125940,-0.017654,0.061035,0.091553,-0.030518
9.136846,-0.019759,-0.941841,10.056687,0.130506,-0.115761,-0.007475,0.061035,0.030518,-0.030518
9.146941,-0.013173,-0.939446,10.058483,0.137092,-0.113366,-0.005678,0.061035,0.030518,-0.061035
9.157037,-0.007185,-0.931663,10.051897,0.143080,-0.105582,-0.012265,0.061035,0.091553,-0.030518
9.167133,-0.001198,-0.935854,10.053094,0.149068,-0.109773,-0.011067,0.061035,0.091553,-0.030518
9.177229,0.001796,-0.935255,10.063273,0.152061,-0.109175,-0.000888,0.030518,0.061035,0.000000
9.187325,0.002395,-0.935255,10.067465,0.152660,-0.109175,0.003303,0.030518,0.061035,-0.030518
9.197421,-0.000599,-0.938249,10.063872,0.149666,-0.112168,-0.000290,0.091553,0.061035,0.000000
9.207518,-0.010179,-0.940045,10.054292,0.140086,-0.113965,-0.009870,0.091553,0.061035,0.000000
9.217614,-0.012574,-0.936453,10.051897,0.137691,-0.110372,-0.012265,0.091553,0.061035,0.030518
9.227711,-0.017963,-0.940644,10.055490,0.132302,-0.114564,-0.008672,0.091553,0.061035,0.000000
9.237807,-0.017364,-0.941243,10.052496,0.132901,-0.115162,-0.011666,0.091553,0.091553,-0.030518
9.247904,-0.016765,-0.940045,10.044113,0.133500,-0.113965,-0.020049,0.030518,0.061035,0.000000
9.258001,-0.014969,-0.947829,10.047107,0.135296,-0.121749,-0.017055,0.030518,0.091553,0.000000
9.268109,-0.012574,-0.947829,10.048304,0.137691,-0.121749,-0.015857,0.030518,0.122070,0.000000
9.278249,-0.019759,-0.945434,10.051298,0.130506,-0.119354,-0.012864,0.030518,0.152588,0.000000
9.288378,-0.016765,-0.940045,10.055490,0.133500,-0.113965,-0.008672,0.030518,0.122070,-0.061035
9.298516,-0.019759,-0.937650,10.050699,0.130506,-0.111570,-0.013462,0.030518,0.122070,-0.061035
9.308627,-0.019160,-0.935854,10.050101,0.131105,-0.109773,-0.014061,0.030518,0.122070,-0.061035
9.318740,-0.015568,-0.929866,10.049502,0.134697,-0.103786,-0.014660,0.030518,0.152588,-0.030518
9.328869,-0.004790,-0.932860,10.051897,0.145475,-0.106780,-0.012265,0.000000,0.122070,-0.061035
9.338988,-0.003593,-0.937051,10.053693,0.146672,-0.110971,-0.010468,0.000000,0.091553,-0.061035
9.349092,-0.005389,-0.942440,10.054292,0.144876,-0.116360,-0.009870,0.000000,0.091553,-0.091553
9.359186,-0.010179,-0.937051,10.053693,0.140086,-0.110971,-0.010468,0.061035,0.091553,-0.091553
9.369339,-0.011975,-0.932860,10.055490,0.138290,-0.106780,-0.008672,0.061035,0.122070,-0.122070
9.379440,-0.016765,-0.936453,10.054891,0.133500,-0.110372,-0.009271,0.030518,0.122070,-0.091553
9.389536,-0.016166,-0.937650,10.056687,0.134099,-0.111570,-0.007475,0.061035,0.122070,-0.091553
9.399644,-0.016166,-0.939446,10.045311,0.134099,-0.113366,-0.018851,0.030518,0.122070,-0.091553
9.409763,-0.018561,-0.944236,10.045311,0.131704,-0.118156,-0.018851,0.091553,0.152588,-0.091553
9.419881,-0.020956,-0.944236,10.045909,0.129309,-0.118156,-0.018252,0.091553,0.122070,-0.061035
9.429955,-0.014969,-0.943638,10.045311,0.135296,-0.117557,-0.018851,0.061035,0.091553,-0.030518
9.440040,-0.005389,-0.944236,10.043514,0.144876,-0.118156,-0.020647,0.030518,0.091553,-0.061035
9.450112,-0.002395,-0.949625,10.044712,0.147870,-0.123545,-0.019450,0.030518,0.091553,-0.061035
9.460189,0.002994,-0.941841,10.044712,0.153259,-0.115761,-0.019450,0.061035,0.091553,-0.091553
9.470262,0.001796,-0.948428,10.045311,0.152061,-0.122347,-0.018851,0.030518,0.061035,-0.030518
9.480336,-0.002994,-0.943638,10.051897,0.147271,-0.117557,-0.012265,0.061035,0.091553,-0.030518
9.490411,-0.006586,-0.939446,10.055490,0.143679,-0.113366,-0.008672,0.000000,0.061035,0.000000
9.500484,-0.013771,-0.940644,10.056088,0.136494,-0.114564,-0.008073,0.000000,0.061035,0.000000
9.510557,-0.018561,-0.938249,10.050101,0.131704,-0.112168,-0.014061,0.030518,0.061035,0.000000
9.520640,-0.018561,-0.940644,10.057286,0.131704,-0.114564,-0.006876,0.030518,0.061035,0.000000
9.530733,-0.016166,-0.941243,10.056088,0.134099,-0.115162,-0.008073,0.000000,0.030518,0.000000
9.540824,-0.005988,-0.944835,10.051897,0.144277,-0.118755,-0.012265,0.030518,0.030518,0.000000
9.550918,0.000000,-0.943638,10.048304,0.150265,-0.117557,-0.015857,0.000000,0.061035,0.030518
9.561023,0.002395,-0.941841,10.048903,0.152660,-0.115761,-0.015259,0.030518,0.061035,0.030518
9.571111,0.000000,-0.939446,10.051298,0.150265,-0.113366,-0.012864,0.030518,0.091553,0.000000
9.581203,-0.006586,-0.941243,10.054292,0.143679,-0.115162,-0.009870,0.030518,0.091553,-0.061035
9.591294,-0.009580,-0.942440,10.056687,0.140685,-0.116360,-0.007475,0.061035,0.091553,0.000000
9.601384,-0.020358,-0.933459,10.053094,0.129907,-0.107378,-0.011067,0.061035,0.061035,-0.030518
9.611477,-0.017963,-0.933459,10.052496,0.132302,-0.107378,-0.011666,0.061035,0.061035,0.000000
9.621568,-0.017963,-0.933459,10.053094,0.132302,-0.107378,-0.011067,0.030518,0.061035,0.000000
9.631655,-0.015568,-0.940644,10.057286,0.134697,-0.114564,-0.006876,0.061035,0.091553,0.000000
9.641746,-0.007784,-0.943039,10.045311,0.142481,-0.116959,-0.018851,0.061035,0.091553,0.000000
9.651836,-0.005988,-0.936453,10.041718,0.144277,-0.110372,-0.022444,0.030518,0.122070,0.000000
9.661930,-0.002395,-0.936453,10.041718,0.147870,-0.110372,-0.022444,0.061035,0.091553,-0.030518
9.672019,-0.002395,-0.932261,10.055490,0.147870,-0.106181,-0.008672,0.061035,0.061035,-0.061035
9.682109,-0.005988,-0.931663,10.050101,0.144277,-0.105582,-0.014061,0.061035,0.030518,-0.030518
9.692199,-0.005389,-0.936453,10.046508,0.144876,-0.110372,-0.017654,0.061035,0.061035,-0.030518
9.702291,-0.008383,-0.937051,10.045311,0.141882,-0.110971,-0.018851,0.030518,0.061035,-0.030518
9.712446,-0.011376,-0.937051,10.051897,0.138889,-0.110971,-0.012265,0.030518,0.061035,0.000000
9.722550,-0.006586,-0.937650,10.054292,0.143679,-0.111570,-0.009870,0.030518,0.091553,-0.030518
9.732640,-0.004790,-0.929268,10.050101,0.145475,-0.103187,-0.014061,0.061035,0.122070,0.000000
9.742731,-0.011975,-0.932860,10.051897,0.138290,-0.106780,-0.012265,0.061035,0.091553,0.030518
9.752821,-0.018561,-0.935255,10.052496,0.131704,-0.109175,-0.011666,0.091553,0.091553,0.000000
9.762911,-0.020956,-0.943039,10.045311,0.129309,-0.116959,-0.018851,0.061035,0.030518,0.000000
9.773002,-0.021555,-0.947829,10.050101,0.128710,-0.121749,-0.014061,0.061035,0.061035,-0.030518
9.783093,-0.030536,-0.950224,10.061477,0.119729,-0.124144,-0.002685,0.030518,0.061035,0.000000
9.793184,-0.028740,-0.938249,10.057286,0.121525,-0.112168,-0.006876,0.030518,0.030518,0.000000
9.803274,-0.016765,-0.938848,10.056088,0.133500,-0.112767,-0.008073,0.030518,0.061035,0.000000
9.813361,-0.005389,-0.934656,10.047706,0.144876,-0.108576,-0.016456,0.030518,0.061035,0.000000
9.823464,0.001796,-0.936453,10.053094,0.152061,-0.110372,-0.011067,0.000000,0.091553,-0.030518
9.833580,-0.000599,-0.931064,10.063273,0.149666,-0.104983,-0.000888,0.030518,0.061035,0.000000
9.843672,-0.000599,-0.937051,10.060280,0.149666,-0.110971,-0.003882,0.030518,0.091553,0.000000
9.853762,-0.006586,-0.933459,10.049502,0.143679,-0.107378,-0.014660,0.030518,0.091553,0.030518
9.863850,-0.008383,-0.933459,10.048903,0.141882,-0.107378,-0.015259,0.030518,0.091553,0.030518
9.873937,-0.000599,-0.936453,10.057286,0.149666,-0.110372,-0.006876,0.030518,0.061035,-0.030518
9.884040,-0.003593,-0.938249,10.062076,0.146672,-0.112168,-0.002086,0.000000,0.061035,-0.030518
9.894128,-0.005988,-0.936453,10.058483,0.144277,-0.110372,-0.005678,0.030518,0.030518,-0.030518
9.904222,-0.004191,-0.942440,10.050101,0.146074,-0.116360,-0.014061,0.030518,0.030518,0.000000
9.914312,0.001198,-0.944835,10.051298,0.151463,-0.118755,-0.012864,0.030518,0.030518,0.000000
9.924409,0.002994,-0.932261,10.054891,0.153259,-0.106181,-0.009271,0.030518,0.091553,0.000000
9.934506,0.006586,-0.931064,10.052496,0.156851,-0.104983,-0.011666,0.061035,0.091553,0.030518
9.944599,-0.005988,-0.932261,10.048903,0.144277,-0.106181,-0.015259,0.030518,0.091553,-0.030518
9.954692,-0.005988,-0.932860,10.038126,0.144277,-0.106780,-0.026036,0.030518,0.061035,0.000000
9.964784,-0.011975,-0.935854,10.032138,0.138290,-0.109773,-0.032024,0.000000,0.061035,0.000000
9.974878,-0.016166,-0.935255,10.047706,0.134099,-0.109175,-0.016456,0.030518,0.030518,-0.030518
9.984971,-0.016765,-0.933459,10.050101,0.133500,-0.107378,-0.014061,0.000000,0.030518,-0.030518
9.995064,-0.016166,-0.936453,10.055490,0.134099,-0.110372,-0.008672,0.000000,0.030518,-0.061035
10.005157,-0.011376,-0.933459,10.051298,0.138889,-0.107378,-0.012864,0.000000,0.030518,-0.061035
10.015250,-0.004790,-0.934058,10.057885,0.145475,-0.107977,-0.006277,0.030518,0.061035,-0.030518
10.025340,-0.010778,-0.935854,10.064471,0.139487,-0.109773,0.000309,0.030518,0.061035,-0.061035
10.035432,-0.008981,-0.936453,10.061477,0.141284,-0.110372,-0.002685,0.000000,0.030518,-0.061035
10.045521,-0.010778,-0.941841,10.054292,0.139487,-0.115761,-0.009870,0.000000,0.000000,-0.061035
10.055608,-0.005988,-0.940644,10.050699,0.144277,-0.114564,-0.013462,0.000000,0.000000,-0.030518
10.065695,-0.005389,-0.940045,10.063273,0.144876,-0.113965,-0.000888,0.000000,0.030518,0.000000
10.075783,-0.007784,-0.947829,10.065070,0.142481,-0.121749,0.000908,-0.030518,0.061035,0.000000
10.085869,-0.012574,-0.947230,10.058483,0.137691,-0.121150,-0.005678,-0.030518,0.091553,0.000000
10.095958,-0.017364,-0.944236,10.060280,0.132901,-0.118156,-0.003882,0.000000,0.061035,0.000000
10.106045,-0.010179,-0.937051,10.060280,0.140086,-0.110971,-0.003882,0.000000,0.000000,0.000000
10.116132,-0.011376,-0.939446,10.053094,0.138889,-0.113366,-0.011067,0.000000,0.030518,0.000000
10.126225,-0.014969,-0.939446,10.057885,0.135296,-0.113366,-0.006277,0.030518,0.030518,0.030518
10.136321,-0.007185,-0.936453,10.050699,0.143080,-0.110372,-0.013462,0.030518,0.061035,0.030518
10.146413,-0.007185,-0.934656,10.044712,0.143080,-0.108576,-0.019450,0.061035,0.030518,0.000000
10.156513,-0.011975,-0.932860,10.050699,0.138290,-0.106780,-0.013462,0.030518,0.061035,-0.030518
10.166606,-0.017364,-0.932860,10.050699,0.132901,-0.106780,-0.013462,0.000000,0.061035,0.000000
10.176705,-0.020358,-0.930465,10.062675,0.129907,-0.104385,-0.001487,0.000000,0.061035,0.000000
10.186799,-0.023351,-0.929866,10.056687,0.126914,-0.103786,-0.007475,0.030518,0.061035,0.030518
10.196895,-0.025148,-0.929268,10.056088,0.125117,-0.103187,-0.008073,0.030518,0.061035,0.030518
10.206986,-0.018561,-0.935255,10.053693,0.131704,-0.109175,-0.010468,0.000000,0.061035,0.030518
10.217083,-0.019160,-0.931663,10.051897,0.131105,-0.105582,-0.012265,0.030518,0.061035,0.030518
10.227173,-0.005389,-0.933459,10.056687,0.144876,-0.107378,-0.007475,0.000000,0.091553,0.030518
10.237262,-0.002994,-0.942440,10.052496,0.147271,-0.116360,-0.011666,0.030518,0.061035,0.030518
10.247349,-0.008981,-0.937650,10.048903,0.141284,-0.111570,-0.015259,-0.030518,0.030518,0.000000
10.257437,-0.008383,-0.934656,10.045311,0.141882,-0.108576,-0.018851,0.000000,0.030518,-0.030518
10.267527,-0.012574,-0.937650,10.047107,0.137691,-0.111570,-0.017055,0.000000,0.091553,-0.030518
10.277617,-0.017364,-0.928070,10.050699,0.132901,-0.101990,-0.013462,-0.030518,0.122070,-0.030518
10.287709,-0.019160,-0.927471,10.054292,0.131105,-0.101391,-0.009870,0.030518,0.122070,-0.030518
10.297798,-0.024549,-0.931064,10.042916,0.125716,-0.104983,-0.021246,0.030518,0.091553,0.000000
10.307891,-0.022753,-0.931663,10.040521,0.127512,-0.105582,-0.023641,0.030518,0.061035,-0.030518
10.317981,-0.010179,-0.929866,10.051298,0.140086,-0.103786,-0.012864,0.000000,0.091553,-0.030518
10.328070,-0.011975,-0.934058,10.053094,0.138290,-0.107977,-0.011067,-0.030518,0.122070,0.000000
10.338161,-0.005389,-0.934058,10.054891,0.144876,-0.107977,-0.009271,0.030518,0.061035,-0.030518
10.348252,-0.010179,-0.928070,10.043514,0.140086,-0.101990,-0.020647,0.030518,0.061035,-0.030518
10.358341,-0.010179,-0.924478,10.037527,0.140086,-0.098397,-0.026635,0.061035,0.061035,0.000000
10.368432,-0.011376,-0.930465,10.048903,0.138889,-0.104385,-0.015259,0.030518,0.000000,0.000000
10.378521,-0.015568,-0.933459,10.055490,0.134697,-0.107378,-0.008672,0.061035,0.000000,0.000000
10.388610,-0.010179,-0.935255,10.059681,0.140086,-0.109175,-0.004481,0.091553,0.030518,0.000000
10.398700,-0.011376,-0.932860,10.058483,0.138889,-0.106780,-0.005678,0.091553,0.030518,0.000000
10.408792,-0.004790,-0.937051,10.059681,0.145475,-0.110971,-0.004481,0.152588,0.122070,0.000000
10.418882,-0.001198,-0.938249,10.059082,0.149068,-0.112168,-0.005080,0.183105,0.152588,0.000000
10.428978,-0.001796,-0.944835,10.059082,0.148469,-0.118755,-0.005080,0.183105,0.122070,0.152588
10.439074,0.040117,-1.016686,10.058483,0.190382,-0.190605,-0.005678,0.274658,0.152588,0.854492
10.449171,0.041913,-1.017883,10.059681,0.192178,-0.191803,-0.004481,0.457764,0.213623,2.105713
10.459268,-0.036524,-0.883762,10.053693,0.113741,-0.057682,-0.010468,0.579834,0.274658,2.838135
10.469366,-0.032932,-0.895737,10.056687,0.117334,-0.069657,-0.007475,0.549316,0.274658,2.227783
10.479463,-0.029339,-0.907114,10.051298,0.120926,-0.081033,-0.012864,0.488281,0.213623,1.373291
10.489559,-0.027543,-0.911904,10.049502,0.122722,-0.085823,-0.014660,0.457764,0.213623,1.068115
10.499655,-0.026944,-0.915496,10.050101,0.123321,-0.089416,-0.014061,0.366211,0.213623,0.640869
10.509751,-0.019160,-0.917891,10.050699,0.131105,-0.091811,-0.013462,0.335693,0.244141,0.488281
10.519880,-0.015568,-0.917292,10.059082,0.134697,-0.091212,-0.005080,0.305176,0.183105,0.366211
10.529969,-0.012574,-0.921484,10.061477,0.137691,-0.095403,-0.002685,0.244141,0.122070,0.244141
10.540059,-0.006586,-0.920286,10.059082,0.143679,-0.094206,-0.005080,0.244141,0.122070,0.183105
10.550151,0.164658,-0.896336,10.052496,0.314923,-0.070256,-0.011666,0.244141,0.122070,0.061035
10.560241,0.362247,-0.856818,10.052496,0.512512,-0.030738,-0.011666,0.396729,0.183105,-0.213623
10.570329,0.411943,-0.852028,10.047706,0.562208,-0.025948,-0.016456,0.823975,0.366211,-1.098633
10.580420,0.415536,-0.934058,10.039323,0.565801,-0.107977,-0.024839,1.251221,0.518799,-1.037598
10.590510,0.564027,-0.940644,10.047706,0.714292,-0.114564,-0.016456,1.861572,0.823975,-0.732422
10.600600,0.070653,-0.870590,10.069860,0.220918,-0.044509,0.005698,0.885010,0.366211,0.274658
10.610692,0.297581,-0.879571,10.067465,0.447846,-0.053491,0.003303,0.091553,0.000000,0.274658
10.620781,0.716710,-1.019680,10.030342,0.866975,-0.193599,-0.033820,-0.640869,-0.305176,1.281738
10.630873,0.584984,-0.999921,10.046508,0.735249,-0.173840,-0.017654,0.274658,0.091553,1.800537
10.640970,0.412542,-0.875978,10.070458,0.562807,-0.049898,0.006297,0.183105,0.122070,3.204346
10.651067,0.461041,-0.799937,10.087224,0.611306,0.026144,0.023062,-0.488281,0.152588,3.173828
10.661164,0.761017,-0.784968,10.081835,0.911282,0.041113,0.017673,-0.152588,0.671387,3.112793
10.671264,0.524509,-0.588576,10.197394,0.674774,0.237504,0.133233,1.495361,1.525879,4.425049
10.681362,0.542472,-0.942440,10.244696,0.692737,-0.116360,0.180534,1.708984,1.281738,5.249023
10.691460,0.377216,-0.977767,10.029144,0.527481,-0.151686,-0.035017,1.556396,1.403809,4.821777
10.701557,0.481998,-0.884960,9.933344,0.632263,-0.058879,-0.130818,2.014160,1.342773,6.561279
10.711653,0.203577,-0.724493,10.062675,0.353842,0.101587,-0.001487,2.075195,0.518799,10.040283
10.721747,0.420925,-0.943039,10.002799,0.571190,-0.116959,-0.061363,0.793457,0.091553,10.955811
10.731839,0.615520,-0.934058,10.044712,0.765785,-0.107977,-0.019450,1.586914,0.183105,11.810303
10.741930,0.312550,-0.897534,9.964479,0.462815,-0.071453,-0.099683,1.861572,0.061035,12.298584
10.752019,0.319735,-0.874182,10.068662,0.470000,-0.048102,0.004500,1.281738,-0.549316,11.901855
10.762109,0.502355,-0.714315,10.108180,0.652620,0.111766,0.044018,0.732422,-0.946045,10.467529
10.772198,0.628094,-0.798140,10.064471,0.778359,0.027940,0.000309,0.274658,-0.854492,10.345459
10.782288,0.296982,-0.841849,10.009385,0.447247,-0.015769,-0.054776,-0.915527,-0.793457,8.178711
10.792381,0.325723,-0.730481,10.023755,0.475988,0.095599,-0.040406,-1.342773,-0.549316,7.904053
10.802471,0.267045,-0.801134,10.134525,0.417310,0.024946,0.070363,-1.403809,-0.671387,8.453369
10.812562,0.485590,-1.021476,9.929751,0.635855,-0.195395,-0.134411,-1.525879,-0.396729,9.277344
10.822652,0.426912,-0.976569,10.062675,0.577177,-0.150489,-0.001487,-0.396729,0.091553,10.131836
10.832746,0.313748,-0.965792,10.042916,0.464013,-0.139711,-0.021246,-0.396729,0.305176,11.596680
10.842862,0.369432,-0.953817,10.056687,0.519697,-0.127736,-0.007475,-0.396729,0.488281,10.772705
10.852961,0.297581,-0.957409,10.164463,0.447846,-0.131329,0.100301,0.000000,0.762939,8.941650
10.863054,0.389191,-0.905916,10.107581,0.539456,-0.079836,0.043419,-0.213623,1.098633,8.728027
10.873150,0.389191,-0.810115,10.116563,0.539456,0.015965,0.052401,-0.671387,1.525879,7.873535
10.883248,0.295186,-0.870590,10.068662,0.445451,-0.044509,0.004500,-0.518799,1.953125,6.164551
10.893344,0.308359,-0.758622,10.056687,0.458624,0.067458,-0.007475,-0.274658,2.105713,5.615234
10.903440,0.295785,-1.006507,10.112970,0.446050,-0.180427,0.048808,-0.091553,2.075195,4.913330
10.913538,0.458047,-0.778381,9.971065,0.608313,0.047699,-0.093097,1.434326,2.075195,4.150391
10.923631,0.309556,-0.938249,10.048903,0.459821,-0.112168,-0.015259,1.556396,1.586914,4.364014
10.933720,0.165256,-0.823887,10.056687,0.315521,0.002194,-0.007475,2.288818,1.129150,4.913330
10.943807,0.379012,-0.772993,10.058483,0.529277,0.053088,-0.005678,2.197266,1.190186,7.293701
10.953893,0.386197,-0.812510,10.078841,0.536462,0.013570,0.014679,1.892090,1.403809,6.866455
10.963981,0.220342,-1.123863,10.049502,0.370607,-0.297783,-0.014660,0.885010,1.251221,5.615234
10.974072,0.353864,-1.083746,10.163265,0.504129,-0.257666,0.099104,0.030518,1.220703,6.195068
10.984158,0.335303,-0.911904,10.014774,0.485568,-0.085823,-0.049388,-0.183105,1.434326,5.676270
10.994245,0.067659,-0.766406,10.100396,0.217924,0.059674,0.036234,-0.640869,1.647949,4.913330
11.004332,-0.008981,-0.879571,10.139315,0.141284,-0.053491,0.075153,-0.762939,1.525879,4.821777
11.014418,0.268242,-0.887355,9.992620,0.418507,-0.061274,-0.071541,1.556396,1.861572,4.547119
11.024506,0.078437,-0.901725,10.202783,0.228702,-0.075644,0.138621,0.793457,1.892090,4.333496
11.034601,-0.137115,-0.750240,9.921368,0.013150,0.075841,-0.142793,1.312256,1.556396,4.638672
11.044696,0.136516,-0.888552,9.998608,0.286781,-0.062472,-0.065554,-0.183105,1.556396,4.486084
11.054789,0.221539,-0.869392,10.103989,0.371804,-0.043312,0.039827,-1.159668,1.342773,4.119873
11.064881,-0.023351,-0.826880,10.117760,0.126914,-0.000800,0.053598,-0.701904,1.159668,3.631592
11.074974,0.009580,-0.851429,10.157877,0.159845,-0.025349,0.093715,-0.030518,0.701904,3.509521
11.085067,0.166454,-0.967588,10.015972,0.316719,-0.141507,-0.048190,0.030518,0.061035,4.119873
11.095161,0.080832,-0.803529,10.017169,0.231097,0.022551,-0.046993,0.152588,0.335693,3.265381
11.105255,0.112566,-0.784369,10.081236,0.262831,0.041712,0.017074,-0.457764,0.518799,3.082275
11.115349,0.410147,-0.841849,10.060280,0.560412,-0.015769,-0.003882,-0.762939,0.915527,2.288818
11.125442,0.352667,-0.879571,10.003997,0.502932,-0.053491,-0.060165,-0.244141,1.129150,2.075195
11.135531,0.426912,-0.930465,10.005793,0.577177,-0.104385,-0.058369,0.061035,1.647949,3.875732
11.145618,0.202978,-0.828677,10.108779,0.353243,-0.002596,0.044617,0.244141,1.983643,4.394531
11.155707,0.268242,-0.733475,10.066866,0.418507,0.092606,0.002704,-0.427246,1.525879,6.042480
11.165795,0.632884,-0.577200,9.942924,0.783149,0.248881,-0.121238,-0.640869,1.342773,5.432129
11.175889,0.518522,-0.626298,10.166858,0.668787,0.199783,0.102696,-0.915527,2.075195,3.723145
11.185977,0.279020,-0.862806,10.159673,0.429285,-0.036725,0.095511,-2.441406,1.708984,2.960205
11.196063,0.238903,-0.825084,10.021959,0.389168,0.000996,-0.042202,-1.220703,2.319336,3.051758
11.206150,0.307161,-0.837059,10.278226,0.457426,-0.010979,0.214065,-0.366211,2.136230,1.922607
11.216238,-0.016765,-0.548459,9.998009,0.133500,0.277621,-0.066153,-2.746582,2.960205,1.281738
11.226326,0.008383,-0.858615,10.015972,0.158648,-0.032534,-0.048190,-2.685547,2.410889,-0.579834
11.236446,0.056882,-0.637075,9.887838,0.207147,0.189005,-0.176324,0.732422,2.349854,0.030518
11.246532,0.079634,-0.972977,9.787247,0.229899,-0.146896,-0.276914,-0.061035,1.342773,0.732422
11.256621,0.111368,-1.038241,10.011182,0.261633,-0.212161,-0.052980,-0.030518,0.488281,0.244141
11.266708,-0.212558,-1.205892,10.164463,-0.062293,-0.379812,0.100301,-0.305176,-0.091553,0.335693
11.276797,0.040715,-1.135239,9.960287,0.190980,-0.309159,-0.103874,1.831055,-0.152588,1.800537
11.286882,0.039518,-1.063389,10.013577,0.189783,-0.237308,-0.050585,2.166748,-0.183105,2.777100
11.296974,0.028141,-1.200504,10.095606,0.178407,-0.374423,0.031444,-0.152588,-0.488281,2.838135
11.307062,0.150886,-1.162782,9.992620,0.301151,-0.336702,-0.071541,-0.061035,-0.823975,2.563477
11.317150,-0.143102,-1.106499,10.073452,0.007163,-0.280419,0.009290,0.610352,-1.007080,2.197266
11.327236,0.047900,-0.959804,9.911788,0.198165,-0.133724,-0.152373,0.762939,-0.610352,2.593994
11.337328,0.111967,-0.941243,10.001602,0.262232,-0.115162,-0.062560,0.457764,-0.061035,1.342773
11.347423,0.079634,-0.971779,10.030342,0.229899,-0.145699,-0.033820,0.335693,0.030518,0.640869
11.357522,-0.241897,-1.138233,10.057885,-0.091632,-0.312153,-0.006277,0.305176,0.366211,-0.427246
11.367618,-0.243094,-1.011896,10.149494,-0.092829,-0.185815,0.085332,-0.122070,1.464844,-2.288818
11.377713,-0.083826,-1.016087,9.968670,0.066439,-0.190007,-0.095492,-0.610352,2.410889,-3.143311
11.387810,-0.292192,-1.075963,9.905202,-0.141927,-0.249882,-0.158960,0.091553,2.380371,-3.204346
11.397906,-0.352667,-1.256786,10.077045,-0.202402,-0.430706,0.012883,0.976562,1.800537,-2.807617
11.408002,-0.468825,-0.941841,10.087224,-0.318560,-0.115761,0.023062,0.854492,0.701904,-1.739502
11.418103,-0.363444,-0.884960,10.213561,-0.213179,-0.058879,0.149399,-0.183105,-0.061035,-2.532959
11.428198,-0.214953,-0.821492,9.939930,-0.064688,0.004589,-0.124232,-0.213623,0.427246,-4.852295
11.438293,-0.421523,-1.056204,10.069860,-0.271258,-0.230123,0.005698,-1.617432,0.030518,-7.263184
11.448384,-0.091609,-0.908910,9.926757,0.058656,-0.082830,-0.137405,-0.640869,0.335693,-7.690430
11.458474,-0.153880,-0.906515,10.011182,-0.003615,-0.080434,-0.052980,-1.007080,1.007080,-9.246826
11.468564,-0.127535,-0.830473,9.992021,0.022730,-0.004393,-0.072140,-4.302979,1.251221,-10.711670
11.478655,-0.505948,-0.957409,9.980046,-0.355683,-0.131329,-0.084115,-0.762939,1.251221,-8.758545
11.488743,-0.193997,-0.735271,10.275233,-0.043732,0.090809,0.211071,-0.152588,0.701904,-7.598877
11.498833,-0.547861,-0.996927,10.229128,-0.397596,-0.170846,0.164967,-1.342773,0.213623,-7.568359
11.508922,-0.341290,-0.722098,9.860894,-0.191025,0.103982,-0.203268,1.586914,-0.122070,-9.307861
11.519011,-0.456850,-0.456251,10.065668,-0.306585,0.369829,0.001507,0.701904,-0.671387,-6.591797
11.529101,-0.210762,-0.851429,10.315349,-0.060497,-0.025349,0.251187,0.305176,-0.427246,-7.934570
11.539193,-0.080233,-0.963995,10.084828,0.070032,-0.137915,0.020667,0.396729,0.213623,-8.636475
11.549289,-0.221539,-1.151406,10.060878,-0.071274,-0.325325,-0.003283,2.227783,0.793457,-7.781982
11.559385,-0.414338,-0.841251,10.242301,-0.264073,-0.015170,0.178139,3.021240,0.610352,-6.774902
11.569482,-0.296982,-0.748444,10.039323,-0.146717,0.077637,-0.024839,1.892090,0.976562,-6.317139
11.579579,0.116757,-1.005309,9.850715,0.267022,-0.179229,-0.213446,1.861572,0.701904,-6.805420
11.589676,-0.079634,-1.169967,9.932745,0.070631,-0.343887,-0.131417,1.708984,0.885010,-6.469727
11.599773,0.230521,-1.283730,10.133926,0.380786,-0.457650,0.069765,0.732422,0.610352,-5.065918
11.609869,0.343685,-0.812510,9.916578,0.493950,0.013570,-0.147583,0.610352,1.373291,-5.462646
11.619968,-0.061672,-1.283132,10.008188,0.088593,-0.457051,-0.055974,-1.342773,1.739502,-4.791260
11.630065,0.007784,-0.986149,9.979448,0.158049,-0.160069,-0.084714,-1.190186,1.647949,-3.479004
11.640156,0.099992,-0.989143,10.096205,0.250257,-0.163063,0.032043,-0.091553,1.251221,-2.380371
11.650245,-0.032333,-0.762814,9.838141,0.117932,0.063267,-0.226020,0.457764,0.854492,-1.708984
11.660338,-0.272433,-1.054407,9.938732,-0.122168,-0.228327,-0.125429,-0.213623,0.274658,-2.258301
11.670428,-0.235311,-0.829276,10.030941,-0.085046,-0.003195,-0.033221,-1.068115,-1.525879,-1.586914
11.680516,-0.066462,-0.754431,9.993219,0.083803,0.071649,-0.070943,-0.122070,-1.708984,-1.403809
11.690607,-0.076042,-0.783171,10.286609,0.074223,0.042909,0.222447,-0.244141,-0.640869,-1.708984
11.700697,-0.098795,-0.997526,10.177635,0.051470,-0.171445,0.113474,-0.823975,-0.183105,-2.288818
11.710787,-0.010179,-0.930465,10.104587,0.140086,-0.104385,0.040426,0.366211,0.396729,-2.136230
11.720877,0.055684,-0.803529,9.901011,0.205949,0.022551,-0.163151,0.427246,0.518799,-1.953125
11.730967,-0.135917,-0.829874,9.985435,0.014348,-0.003794,-0.078727,-0.488281,-0.183105,-2.563477
11.741062,0.039518,-0.732876,10.166858,0.189783,0.093204,0.102696,-0.183105,-1.953125,-3.753662
11.751155,0.229323,-0.963397,10.150692,0.379588,-0.137316,0.086530,0.030518,-2.716064,-3.479004
11.761252,0.000000,-0.869392,10.020163,0.150265,-0.043312,-0.043999,-0.183105,-0.427246,-4.760742
11.771348,-0.050295,-0.778980,10.069261,0.099970,0.047100,0.005099,-1.159668,0.274658,-4.516602
11.781444,-0.104183,-0.852627,10.251282,0.046082,-0.026547,0.187121,-0.518799,1.220703,-1.556396
11.791541,0.170645,-0.861010,9.921967,0.320910,-0.034929,-0.142195,-0.396729,0.976562,0.518799
11.801638,0.327519,-0.862806,9.860295,0.477784,-0.036725,-0.203866,0.061035,0.701904,2.716064
11.811735,0.196392,-0.747246,10.111772,0.346657,0.078834,0.047611,0.518799,0.427246,6.408691
11.821831,0.023351,-0.781974,10.172247,0.173616,0.044107,0.108085,-0.030518,0.488281,6.072998
11.831928,0.169448,-0.772993,10.036329,0.319713,0.053088,-0.027832,-2.258301,0.305176,3.692627
11.842034,0.335303,-0.835862,9.975855,0.485568,-0.009781,-0.088307,-2.593994,0.000000,2.319336
11.852126,0.211959,-0.855022,9.900412,0.362224,-0.028942,-0.163750,-0.701904,-0.793457,3.326416
11.862215,0.196990,-0.886756,9.978849,0.347255,-0.060676,-0.085313,0.427246,-1.373291,1.861572
11.872305,0.315544,-1.059197,9.807605,0.465809,-0.233117,-0.256557,0.030518,-1.312256,0.488281
11.882394,0.257465,-0.972378,10.084230,0.407730,-0.146298,0.020068,0.274658,-1.281738,-1.342773
11.892483,0.015568,-0.836461,10.139914,0.165833,-0.010380,0.075752,0.183105,-1.495361,-1.953125
11.902573,0.486189,-0.992736,9.965078,0.636454,-0.166655,-0.099084,1.495361,-1.037598,-2.593994
11.912663,-0.084424,-0.990341,10.225536,0.065841,-0.164260,0.161374,0.366211,-0.183105,-3.265381
11.922753,-0.363444,-0.913101,10.100396,-0.213179,-0.087021,0.036234,-0.579834,0.427246,-3.845215
11.932843,-0.150287,-1.083148,10.276430,-0.000022,-0.257067,0.212268,-0.244141,-0.061035,-4.211426
11.942933,-0.156874,-0.974174,10.023157,-0.006609,-0.148094,-0.041005,0.335693,0.427246,-2.380371
11.953022,-0.206570,-0.874781,10.005793,-0.056305,-0.048700,-0.058369,0.793457,0.091553,-2.136230
11.963110,-0.141306,-0.820294,10.035731,0.008959,0.005786,-0.028431,1.190186,0.396729,-2.014160
11.973200,-0.198188,-0.704734,10.083631,-0.047923,0.121346,0.019469,1.434326,0.427246,-2.014160
11.983286,-0.143102,-0.837059,10.133328,0.007163,-0.010979,0.069166,0.732422,0.122070,-2.258301
11.993376,-0.165855,-1.119672,9.717193,-0.015590,-0.293591,-0.346969,0.701904,-0.366211,-1.678467
12.003467,-0.218546,-0.599952,9.952504,-0.068281,0.226128,-0.111658,1.739502,-0.366211,-0.579834
12.013556,0.093406,-0.859812,9.778266,0.243671,-0.033732,-0.285896,0.976562,-0.579834,-0.640869
12.023642,-0.238304,-0.802332,9.895023,-0.088039,0.023749,-0.169139,0.091553,-0.366211,-1.037598
12.033736,-0.315544,-1.277144,9.905202,-0.165279,-0.451064,-0.158960,-1.068115,0.000000,-1.617432
12.043829,0.054487,-1.110092,10.128538,0.204752,-0.284011,0.064376,-0.427246,-1.007080,1.831055
12.053923,0.038320,-1.164578,10.030342,0.188585,-0.338498,-0.033820,0.335693,-0.579834,3.723145
12.064017,0.016765,-1.011297,9.775272,0.167030,-0.185217,-0.288890,-1.739502,1.525879,7.263184
12.074110,0.126337,-0.103585,9.496252,0.276602,0.722496,-0.567909,2.624512,2.777100,8.605957
12.084203,0.102986,-1.043630,10.066267,0.253251,-0.217549,0.002105,1.617432,1.739502,10.864258
12.094296,0.099992,-1.318458,10.057885,0.250257,-0.492378,-0.006277,-0.244141,0.762939,11.810303
12.104390,-0.002994,-1.461561,10.221943,0.147271,-0.635480,0.157782,0.823975,0.091553,11.810303
12.114483,0.231119,-1.018482,10.115365,0.381384,-0.192402,0.051203,-0.457764,-1.434326,11.810303
12.124576,0.199984,-0.991538,9.990824,0.350249,-0.165458,-0.073338,-1.159668,-1.678467,12.268066
12.134669,0.146695,-0.861010,10.008787,0.296960,-0.034929,-0.055375,0.854492,-1.342773,13.092041
12.144761,0.007784,-0.628693,9.932146,0.158049,0.197388,-0.132016,0.518799,-1.678467,12.359619
12.154851,-0.023351,-0.410147,10.060280,0.126914,0.415933,-0.003882,0.152588,-1.312256,10.467529
12.164938,-0.356858,-0.571212,9.792636,-0.206593,0.254868,-0.271526,-0.274658,-0.244141,8.300781
12.175026,-0.587379,-0.570613,10.189611,-0.437114,0.255467,0.125449,0.122070,0.183105,6.286621
12.185114,-0.594564,-0.489781,9.968670,-0.444299,0.336299,-0.095492,0.091553,0.335693,4.455566
12.195201,-0.654439,-0.480201,9.943522,-0.504174,0.345879,-0.120639,1.770020,0.671387,3.967285
12.205287,-0.563428,-1.079555,10.166259,-0.413163,-0.253475,0.102097,-0.671387,0.030518,1.556396
12.215376,-0.511935,-0.610730,9.993219,-0.361670,0.215350,-0.070943,-0.885010,0.091553,0.976562
12.225463,-0.650847,-0.811313,9.974658,-0.500582,0.014768,-0.089504,-0.244141,-0.427246,-1.068115
12.235552,-0.361049,-1.068179,10.163265,-0.210784,-0.242098,0.099104,-1.129150,-0.366211,-1.770020
12.245639,-0.487386,-1.122067,10.125544,-0.337121,-0.295986,0.061382,1.586914,-0.061035,-2.502441
12.255727,-0.374821,-0.989742,10.118958,-0.224556,-0.163661,0.054796,0.305176,-0.305176,-1.403809
12.265814,-0.391586,-1.037642,10.086625,-0.241321,-0.211562,0.022463,0.915527,-0.854492,-0.579834
12.275901,-0.296982,-0.990341,9.994417,-0.146717,-0.164260,-0.069745,-0.488281,-0.732422,0.091553
12.285988,-0.206570,-0.981359,9.995015,-0.056305,-0.155279,-0.069146,1.007080,-0.793457,0.762939
12.296079,-0.191003,-0.895139,9.883048,-0.040738,-0.069058,-0.181114,1.525879,-0.244141,1.617432
12.306166,-0.395777,-0.804727,9.890233,-0.245512,0.021354,-0.173929,1.129150,-0.213623,1.983643
12.316254,-0.340692,-1.207689,10.212962,-0.190427,-0.381608,0.148800,-0.122070,0.122070,-0.885010
12.326342,-0.409548,-0.775388,10.192006,-0.259283,0.050693,0.127844,-0.732422,0.274658,-0.152588
12.336432,-0.089813,-1.220861,9.798624,0.060452,-0.394781,-0.265538,0.427246,1.037598,0.579834
12.346524,-0.101190,-0.861608,9.663305,0.049075,-0.035528,-0.400857,-0.854492,2.593994,1.281738
12.356621,0.212558,-0.648452,8.990305,0.362823,0.177629,-1.073857,0.549316,2.075195,-0.305176
12.366714,-0.518522,-0.646655,10.308763,-0.368257,0.179425,0.244601,1.251221,2.868652,0.640869
12.376809,-0.188608,0.404160,9.222023,-0.038343,1.230240,-0.842139,5.798340,1.892090,1.556396
12.386901,-0.458047,0.138911,9.917177,-0.307782,0.964992,-0.146985,1.068115,0.396729,-0.152588
12.396996,0.131127,-0.946033,10.006392,0.281392,-0.119952,-0.057770,-0.183105,-0.183105,-4.638672
12.407088,0.113763,-0.905317,10.028546,0.264028,-0.079237,-0.035616,-0.274658,0.061035,-8.422852
12.417186,-0.283810,-0.766406,10.120754,-0.133545,0.059674,0.056592,-0.366211,1.068115,-7.507324
12.427280,0.273032,-1.440005,9.907597,0.423297,-0.613925,-0.156565,-0.701904,1.251221,-8.483887
12.437376,0.104782,-0.998124,10.396181,0.255047,-0.172044,0.332019,0.427246,0.610352,-10.711670
12.447467,-0.049098,-0.147892,10.118958,0.101167,0.678188,0.054796,2.380371,0.793457,-11.108398
12.457556,-0.100591,-0.886756,10.096205,0.049674,-0.060676,0.032043,-0.701904,-0.701904,-10.711670
12.467645,-0.011975,-1.137634,10.263257,0.138290,-0.311554,0.199096,0.579834,-0.854492,-10.955811
12.477734,-0.076641,-0.989143,10.230925,0.073624,-0.163063,0.166763,1.037598,-0.457764,-9.796143
12.487823,-0.126337,-0.751437,10.062675,0.023928,0.074643,-0.001487,-0.335693,-0.549316,-7.995605
