time,ax_raw,ay_raw,az_raw,ax,ay,az,gx,gy,gz
0.003014,-0.017963,0.830473,10.034533,0.004324,0.004355,0.008548,0.030518,0.030518,0.000000
0.013111,-0.016765,0.831072,10.032737,0.005522,0.004954,0.006752,0.030518,0.030518,0.000000
0.023205,-0.017364,0.829276,10.028546,0.004923,0.003158,0.002560,0.061035,0.030518,0.000000
0.033314,-0.014370,0.833467,10.033336,0.007917,0.007349,0.007350,0.030518,0.061035,0.000000
0.043429,-0.013771,0.835263,10.034533,0.008515,0.009145,0.008548,0.030518,0.061035,0.030518
0.053522,-0.014969,0.837059,10.035132,0.007318,0.010942,0.009147,0.000000,0.030518,0.000000
0.063616,-0.017963,0.839454,10.036329,0.004324,0.013337,0.010344,0.000000,0.030518,0.000000
0.073709,-0.025746,0.832868,10.032737,-0.003460,0.006750,0.006752,0.000000,0.061035,-0.061035
0.083807,-0.025148,0.832269,10.036928,-0.002861,0.006152,0.010943,-0.030518,0.030518,-0.091553
0.093942,-0.023950,0.837658,10.038126,-0.001663,0.011540,0.012140,0.000000,0.030518,-0.061035
0.104076,-0.020956,0.823887,10.036928,0.001330,-0.002231,0.010943,0.000000,0.061035,-0.061035
0.114165,-0.025746,0.822689,10.036928,-0.003460,-0.003428,0.010943,0.000000,0.061035,-0.091553
0.124260,-0.028141,0.823887,10.030941,-0.005855,-0.002231,0.004955,-0.030518,0.030518,-0.030518
0.134348,-0.026345,0.823887,10.031539,-0.004058,-0.002231,0.005554,0.000000,0.000000,-0.061035
0.144435,-0.023351,0.824485,10.033934,-0.001065,-0.001632,0.007949,0.030518,0.000000,0.000000
0.154521,-0.015568,0.826282,10.027947,0.006719,0.000164,0.001962,0.030518,0.030518,0.030518
0.164627,-0.012574,0.828078,10.024953,0.009713,0.001960,-0.001032,0.061035,0.030518,-0.030518
0.174716,-0.010778,0.832868,10.030941,0.011509,0.006750,0.004955,0.061035,0.061035,-0.091553
0.184802,-0.012574,0.830473,10.039323,0.009713,0.004355,0.013338,0.030518,0.061035,-0.061035
0.194884,-0.018561,0.826880,10.036928,0.003725,0.000763,0.010943,0.030518,0.030518,-0.030518
0.204969,-0.019160,0.831072,10.034533,0.003127,0.004954,0.008548,0.030518,0.061035,-0.030518
0.215050,-0.020956,0.828677,10.034533,0.001330,0.002559,0.008548,0.000000,0.061035,0.030518
0.225148,-0.024549,0.821492,10.033934,-0.002262,-0.004626,0.007949,0.030518,0.061035,0.000000
0.235233,-0.026345,0.820893,10.036928,-0.004058,-0.005225,0.010943,0.000000,0.061035,-0.030518
0.245318,-0.018561,0.823887,10.037527,0.003725,-0.002231,0.011542,0.000000,0.061035,-0.030518
0.255400,-0.024549,0.828677,10.035132,-0.002262,0.002559,0.009147,0.000000,0.061035,-0.030518
0.265484,-0.031734,0.821492,10.023157,-0.009447,-0.004626,-0.002829,0.000000,0.030518,0.000000
0.275644,-0.022753,0.821492,10.024354,-0.000466,-0.004626,-0.001631,0.000000,0.000000,0.000000
0.285742,-0.018561,0.823887,10.026749,0.003725,-0.002231,0.000764,0.000000,0.000000,-0.030518
0.295834,-0.019160,0.825683,10.028546,0.003127,-0.000435,0.002560,-0.030518,0.000000,-0.030518
0.305942,-0.023950,0.826282,10.021360,-0.001663,0.000164,-0.004625,-0.061035,0.000000,0.000000
0.316036,-0.013771,0.826282,10.023755,0.008515,0.000164,-0.002230,-0.030518,0.030518,-0.061035
0.326128,-0.015568,0.829874,10.027348,0.006719,0.003757,0.001363,-0.030518,0.030518,-0.061035
0.336268,-0.021555,0.829276,10.029743,0.000732,0.003158,0.003758,-0.030518,0.030518,-0.030518
0.348033,-0.022154,0.829276,10.028546,0.000133,0.003158,0.002560,0.000000,0.030518,-0.030518
0.358671,-0.026944,0.822689,10.025552,-0.004657,-0.003428,-0.000433,0.000000,0.030518,-0.030518
0.368772,-0.025148,0.821492,10.020762,-0.002861,-0.004626,-0.005224,-0.030518,0.030518,0.000000
0.378980,-0.025746,0.828677,10.021959,-0.003460,0.002559,-0.004026,0.000000,0.000000,-0.030518
0.389066,-0.031135,0.829874,10.032737,-0.008848,0.003757,0.006752,0.030518,0.000000,-0.030518
0.399152,-0.032333,0.826880,10.024354,-0.010046,0.000763,-0.001631,0.030518,0.030518,-0.030518
0.409238,-0.031734,0.828078,10.026749,-0.009447,0.001960,0.000764,0.030518,0.030518,-0.030518
0.419323,-0.028740,0.828677,10.025552,-0.006453,0.002559,-0.000433,0.030518,0.030518,-0.030518
0.429410,-0.024549,0.835263,10.026749,-0.002262,0.009145,0.000764,0.030518,0.030518,0.000000
0.439497,-0.023351,0.828677,10.029743,-0.001065,0.002559,0.003758,0.061035,0.030518,0.000000
0.449594,-0.022753,0.828078,10.021959,-0.000466,0.001960,-0.004026,0.000000,0.000000,0.000000
0.459684,-0.016166,0.828677,10.023157,0.006120,0.002559,-0.002829,0.000000,0.030518,0.000000
0.469772,-0.015568,0.828677,10.015972,0.006719,0.002559,-0.010014,0.000000,0.061035,0.030518
0.479951,-0.016166,0.823887,10.017768,0.006120,-0.002231,-0.008217,0.061035,0.061035,0.000000
0.490085,-0.014370,0.828078,10.019564,0.007917,0.001960,-0.006421,0.000000,0.061035,-0.030518
0.500206,-0.014969,0.827479,10.017169,0.007318,0.001362,-0.008816,0.000000,0.061035,-0.030518
0.511941,-0.025746,0.829276,10.014175,-0.003460,0.003158,-0.011810,-0.030518,0.061035,0.000000
0.522043,-0.029938,0.829874,10.014175,-0.007651,0.003757,-0.011810,-0.030518,0.061035,-0.030518
0.532131,-0.028740,0.829276,10.018367,-0.006453,0.003158,-0.007619,0.000000,0.061035,-0.030518
0.542222,-0.019160,0.827479,10.030941,0.003127,0.001362,0.004955,0.030518,0.061035,-0.030518
0.552315,-0.022154,0.824485,10.036329,0.000133,-0.001632,0.010344,0.030518,0.061035,0.000000
0.562497,-0.026944,0.823887,10.029144,-0.004657,-0.002231,0.003159,0.061035,0.091553,0.000000
0.572586,-0.025746,0.829874,10.024953,-0.003460,0.003757,-0.001032,0.061035,0.061035,0.030518
0.582771,-0.027543,0.822090,10.030941,-0.005256,-0.004027,0.004955,0.030518,0.030518,0.000000
0.592847,-0.024549,0.823887,10.032737,-0.002262,-0.002231,0.006752,0.030518,0.000000,0.061035
0.602923,-0.023950,0.827479,10.031539,-0.001663,0.001362,0.005554,0.061035,0.000000,0.030518
0.613000,-0.023950,0.828677,10.028546,-0.001663,0.002559,0.002560,0.061035,0.000000,0.000000
0.623089,-0.025148,0.828078,10.025552,-0.002861,0.001960,-0.000433,0.030518,0.030518,0.030518
0.633164,-0.019160,0.831072,10.034533,0.003127,0.004954,0.008548,0.030518,0.030518,0.000000
0.643239,-0.023950,0.831072,10.037527,-0.001663,0.004954,0.011542,0.061035,0.030518,0.000000
0.653314,-0.023351,0.825084,10.027947,-0.001065,-0.001033,0.001962,0.030518,0.030518,-0.030518
0.663390,-0.020956,0.826880,10.022558,0.001330,0.000763,-0.003427,0.061035,0.030518,-0.030518
0.673465,-0.016765,0.828677,10.023755,0.005522,0.002559,-0.002230,0.000000,0.030518,0.000000
0.683600,-0.017963,0.830473,10.030342,0.004324,0.004355,0.004357,0.030518,0.030518,0.000000
0.693691,-0.021555,0.828677,10.030342,0.000732,0.002559,0.004357,0.061035,0.030518,0.000000
0.703784,-0.029938,0.822689,10.018965,-0.007651,-0.003428,-0.007020,0.061035,0.000000,-0.030518
0.713877,-0.023950,0.825084,10.024354,-0.001663,-0.001033,-0.001631,0.000000,-0.030518,0.000000
0.723968,-0.028141,0.832868,10.023755,-0.005855,0.006750,-0.002230,0.030518,0.000000,0.000000
0.734063,-0.029339,0.837658,10.032737,-0.007052,0.011540,0.006752,0.000000,0.030518,0.000000
0.744157,-0.027543,0.835862,10.027947,-0.005256,0.009744,0.001962,0.000000,0.030518,0.000000
0.754249,-0.028740,0.837658,10.027947,-0.006453,0.011540,0.001962,0.000000,0.061035,0.000000
0.764344,-0.023950,0.837059,10.024354,-0.001663,0.010942,-0.001631,0.000000,0.091553,0.000000
0.774436,-0.026345,0.836461,10.031539,-0.004058,0.010343,0.005554,0.000000,0.061035,0.030518
0.784641,-0.032932,0.834664,10.038724,-0.010645,0.008547,0.012739,0.000000,0.030518,0.030518
0.794728,-0.026944,0.826880,10.033336,-0.004657,0.000763,0.007350,0.000000,0.030518,0.000000
0.804818,-0.025148,0.822689,10.029743,-0.002861,-0.003428,0.003758,0.000000,0.030518,0.000000
0.814904,-0.026345,0.818498,10.035132,-0.004058,-0.007620,0.009147,0.000000,0.030518,0.030518
0.824992,-0.025746,0.819097,10.031539,-0.003460,-0.007021,0.005554,0.000000,0.061035,0.000000
0.835079,-0.028740,0.825084,10.030342,-0.006453,-0.001033,0.004357,-0.030518,0.030518,0.000000
0.845166,-0.026944,0.823887,10.029144,-0.004657,-0.002231,0.003159,0.000000,0.000000,0.030518
0.855290,-0.028740,0.830473,10.026749,-0.006453,0.004355,0.000764,0.030518,0.030518,0.030518
0.865438,-0.032932,0.827479,10.020762,-0.010645,0.001362,-0.005224,0.030518,0.030518,0.030518
0.875549,-0.033530,0.829276,10.023157,-0.011243,0.003158,-0.002829,0.061035,0.030518,0.000000
0.885681,-0.028740,0.818498,10.031539,-0.006453,-0.007620,0.005554,0.030518,0.030518,0.030518
0.895768,-0.025148,0.815504,10.030342,-0.002861,-0.010614,0.004357,0.030518,0.000000,0.000000
0.905901,-0.036524,0.819097,10.019564,-0.014237,-0.007021,-0.006421,0.030518,0.030518,0.000000
0.916008,-0.039518,0.825084,10.019564,-0.017231,-0.001033,-0.006421,0.030518,0.061035,-0.030518
0.926113,-0.035925,0.816702,10.015373,-0.013638,-0.009416,-0.010612,0.000000,0.061035,0.030518
0.936201,-0.028141,0.813708,10.020762,-0.005855,-0.012410,-0.005224,0.000000,0.030518,0.030518
0.946285,-0.031734,0.814307,10.022558,-0.009447,-0.011811,-0.003427,0.000000,0.061035,0.000000
0.956386,-0.029938,0.814905,10.019564,-0.007651,-0.011212,-0.006421,0.030518,0.030518,0.030518
0.966516,-0.027543,0.820294,10.016570,-0.005256,-0.005823,-0.009415,0.030518,0.030518,0.030518
0.976609,-0.031135,0.821492,10.025552,-0.008848,-0.004626,-0.000433,0.061035,0.000000,0.030518
0.986796,-0.025746,0.820893,10.025552,-0.003460,-0.005225,-0.000433,0.030518,0.000000,0.030518
0.996883,-0.025148,0.820893,10.024354,-0.002861,-0.005225,-0.001631,0.000000,0.000000,0.030518
1.006965,-0.035925,0.820893,10.023755,-0.013638,-0.005225,-0.002230,0.000000,0.030518,0.030518
1.017065,-0.031135,0.825084,10.013577,-0.008848,-0.001033,-0.012409,0.030518,0.030518,0.030518
1.027152,-0.022753,0.825084,10.027947,-0.000466,-0.001033,0.001962,0.030518,0.000000,0.000000
1.037390,-0.028740,0.822090,10.026151,-0.006453,-0.004027,0.000165,0.061035,0.000000,0.000000
1.047477,-0.022753,0.825683,10.019564,-0.000466,-0.000435,-0.006421,0.061035,0.030518,-0.030518
1.057563,-0.022753,0.831671,10.018965,-0.000466,0.005553,-0.007020,0.061035,0.000000,-0.030518
1.067647,-0.026345,0.834066,10.018965,-0.004058,0.007948,-0.007020,0.030518,0.030518,0.000000
1.077732,-0.023950,0.832269,10.024354,-0.001663,0.006152,-0.001631,0.061035,0.061035,0.000000
1.087917,-0.022753,0.833467,10.026151,-0.000466,0.007349,0.000165,0.000000,0.091553,0.000000
1.098016,-0.020956,0.832868,10.032138,0.001330,0.006750,0.006153,0.030518,0.091553,0.030518
1.108114,-0.020956,0.832868,10.026749,0.001330,0.006750,0.000764,-0.030518,0.061035,0.030518
1.118212,-0.023950,0.828078,10.024354,-0.001663,0.001960,-0.001631,0.000000,0.000000,0.030518
1.128311,-0.028740,0.824485,10.020762,-0.006453,-0.001632,-0.005224,0.000000,0.061035,0.030518
1.138406,-0.029339,0.826880,10.018965,-0.007052,0.000763,-0.007020,0.061035,0.030518,0.000000
1.148503,-0.031135,0.826880,10.021360,-0.008848,0.000763,-0.004625,0.030518,0.061035,0.000000
1.158601,-0.031135,0.820294,10.023157,-0.008848,-0.005823,-0.002829,0.030518,0.030518,-0.061035
1.168695,-0.026944,0.828677,10.022558,-0.004657,0.002559,-0.003427,0.030518,0.030518,-0.030518
1.178786,-0.024549,0.826880,10.024953,-0.002262,0.000763,-0.001032,0.061035,0.030518,0.000000
1.188993,-0.028740,0.820893,10.029144,-0.006453,-0.005225,0.003159,0.061035,0.061035,-0.030518
1.199085,-0.034129,0.823887,10.030342,-0.011842,-0.002231,0.004357,0.030518,0.091553,0.000000
1.209176,-0.031734,0.822689,10.027348,-0.009447,-0.003428,0.001363,0.061035,0.061035,-0.030518
1.219273,-0.030536,0.821492,10.025552,-0.008250,-0.004626,-0.000433,0.061035,0.061035,0.000000
1.229363,-0.037722,0.822090,10.020762,-0.015435,-0.004027,-0.005224,0.061035,0.061035,0.000000
1.239455,-0.031135,0.823288,10.020163,-0.008848,-0.002830,-0.005822,0.030518,0.030518,-0.030518
1.249545,-0.028740,0.822090,10.020762,-0.006453,-0.004027,-0.005224,0.000000,0.030518,-0.030518
1.259636,-0.027543,0.819097,10.017169,-0.005256,-0.007021,-0.008816,0.000000,0.000000,-0.061035
1.269726,-0.023950,0.822689,10.014774,-0.001663,-0.003428,-0.011211,0.000000,0.061035,0.000000
1.279816,-0.023351,0.826880,10.026749,-0.001065,0.000763,0.000764,0.030518,0.061035,-0.030518
1.289947,-0.028740,0.826282,10.029144,-0.006453,0.000164,0.003159,0.030518,0.061035,-0.030518
1.300037,-0.023950,0.831072,10.027348,-0.001663,0.004954,0.001363,0.061035,0.030518,-0.030518
1.310128,-0.022154,0.832868,10.022558,0.000133,0.006750,-0.003427,0.061035,0.030518,-0.030518
1.320219,-0.021555,0.829276,10.017169,0.000732,0.003158,-0.008816,0.030518,0.061035,0.030518
1.330309,-0.013173,0.829276,10.025552,0.009114,0.003158,-0.000433,0.030518,0.030518,0.000000
1.340398,-0.016166,0.826282,10.019564,0.006120,0.000164,-0.006421,0.030518,0.030518,0.000000
1.350487,-0.019759,0.828078,10.022558,0.002528,0.001960,-0.003427,0.000000,0.061035,0.000000
1.360578,-0.018561,0.826880,10.021360,0.003725,0.000763,-0.004625,0.000000,0.061035,0.000000
1.370667,-0.022753,0.826880,10.017169,-0.000466,0.000763,-0.008816,0.030518,0.061035,0.000000
1.380758,-0.016765,0.831072,10.020762,0.005522,0.004954,-0.005224,0.061035,0.091553,-0.030518
1.390937,-0.021555,0.825683,10.023157,0.000732,-0.000435,-0.002829,0.061035,0.030518,-0.030518
1.401043,-0.028141,0.818498,10.020762,-0.005855,-0.007620,-0.005224,0.061035,0.030518,-0.030518
1.411215,-0.027543,0.823887,10.021959,-0.005256,-0.002231,-0.004026,0.030518,0.030518,-0.061035
1.421343,-0.029339,0.825683,10.017768,-0.007052,-0.000435,-0.008217,0.030518,0.091553,-0.061035
1.431504,-0.028141,0.823288,10.023755,-0.005855,-0.002830,-0.002230,0.000000,0.061035,-0.030518
1.441661,-0.029938,0.832269,10.025552,-0.007651,0.006152,-0.000433,0.061035,0.030518,-0.030518
1.451802,-0.031734,0.829276,10.026151,-0.009447,0.003158,0.000165,0.030518,0.030518,-0.030518
1.461936,-0.031135,0.828677,10.018965,-0.008848,0.002559,-0.007020,0.061035,-0.030518,0.000000
1.472081,-0.029938,0.825683,10.015373,-0.007651,-0.000435,-0.010612,0.030518,-0.030518,0.000000
1.482177,-0.026345,0.819097,10.018965,-0.004058,-0.007021,-0.007020,0.030518,0.030518,0.030518
1.492272,-0.026345,0.822689,10.019564,-0.004058,-0.003428,-0.006421,0.030518,0.061035,0.000000
1.502347,-0.020956,0.819097,10.014774,0.001330,-0.007021,-0.011211,0.061035,0.030518,0.000000
1.512436,-0.009580,0.823288,10.020163,0.012707,-0.002830,-0.005822,0.030518,0.061035,0.000000
1.522513,-0.004790,0.822689,10.026749,0.017497,-0.003428,0.000764,0.000000,0.030518,0.000000
1.532590,-0.011376,0.820294,10.027947,0.010911,-0.005823,0.001962,-0.030518,0.061035,0.000000
1.542664,-0.014370,0.823288,10.024354,0.007917,-0.002830,-0.001631,0.000000,0.000000,0.030518
1.552740,-0.020358,0.823288,10.026749,0.001929,-0.002830,0.000764,-0.030518,0.030518,-0.030518
1.562813,-0.027543,0.822689,10.018965,-0.005256,-0.003428,-0.007020,0.000000,0.030518,0.000000
1.572887,-0.026944,0.819097,10.021959,-0.004657,-0.007021,-0.004026,-0.030518,0.061035,-0.030518
1.582961,-0.018561,0.820294,10.029144,0.003725,-0.005823,0.003159,-0.091553,0.030518,-0.030518
1.593035,-0.018561,0.816103,10.026151,0.003725,-0.010015,0.000165,-0.030518,0.030518,0.000000
1.603128,-0.017963,0.823288,10.021360,0.004324,-0.002830,-0.004625,0.000000,0.000000,-0.030518
1.613221,-0.017364,0.827479,10.021360,0.004923,0.001362,-0.004625,0.030518,0.000000,0.000000
1.623313,-0.022753,0.828078,10.021959,-0.000466,0.001960,-0.004026,0.030518,-0.030518,0.000000
1.633406,-0.030536,0.824485,10.026151,-0.008250,-0.001632,0.000165,0.030518,0.000000,-0.030518
1.643498,-0.029339,0.819097,10.026151,-0.007052,-0.007021,0.000165,0.061035,0.000000,-0.030518
1.653591,-0.029938,0.819695,10.026749,-0.007651,-0.006422,0.000764,0.061035,0.000000,0.000000
1.663684,-0.029339,0.821492,10.026749,-0.007052,-0.004626,0.000764,0.091553,0.030518,0.030518
1.673776,-0.027543,0.826282,10.023755,-0.005256,0.000164,-0.002230,0.030518,0.030518,0.030518
1.683870,-0.017364,0.826880,10.025552,0.004923,0.000763,-0.000433,0.061035,0.061035,0.000000
1.693964,-0.015568,0.828078,10.029144,0.006719,0.001960,0.003159,0.061035,0.061035,0.030518
1.704052,-0.017963,0.822689,10.029144,0.004324,-0.003428,0.003159,0.061035,0.061035,0.030518
1.714138,-0.017963,0.834066,10.024953,0.004324,0.007948,-0.001032,0.061035,0.030518,0.030518
1.724224,-0.014969,0.829276,10.020163,0.007318,0.003158,-0.005822,0.091553,0.030518,0.030518
1.734312,-0.016765,0.827479,10.020163,0.005522,0.001362,-0.005822,0.091553,0.030518,0.030518
1.744405,-0.011975,0.825084,10.021959,0.010312,-0.001033,-0.004026,0.061035,0.061035,0.000000
1.754492,-0.005988,0.824485,10.023157,0.016299,-0.001632,-0.002829,0.061035,0.061035,0.000000
1.764578,-0.016166,0.822090,10.024953,0.006120,-0.004027,-0.001032,0.061035,0.061035,0.000000
1.774665,-0.016765,0.821492,10.027947,0.005522,-0.004626,0.001962,0.061035,0.061035,-0.030518
1.784754,-0.012574,0.822689,10.029144,0.009713,-0.003428,0.003159,0.000000,0.030518,0.030518
1.794840,-0.018561,0.826282,10.029743,0.003725,0.000164,0.003758,0.030518,0.000000,0.030518
1.804928,-0.021555,0.828078,10.021360,0.000732,0.001960,-0.004625,0.030518,0.000000,0.030518
1.815014,-0.019759,0.824485,10.016570,0.002528,-0.001632,-0.009415,0.000000,0.030518,0.000000
1.825119,-0.025746,0.825084,10.020762,-0.003460,-0.001033,-0.005224,0.000000,0.030518,0.000000
1.835225,-0.022753,0.832868,10.026151,-0.000466,0.006750,0.000165,0.030518,0.030518,0.000000
1.845319,-0.016765,0.839454,10.025552,0.005522,0.013337,-0.000433,0.061035,0.030518,-0.030518
1.855406,-0.017963,0.840652,10.026151,0.004324,0.014534,0.000165,0.030518,0.030518,-0.030518
1.865495,-0.026944,0.837658,10.015373,-0.004657,0.011540,-0.010612,0.061035,-0.030518,-0.030518
1.875581,-0.026345,0.828677,10.020163,-0.004058,0.002559,-0.005822,0.000000,0.000000,-0.030518
1.885669,-0.030536,0.823887,10.027348,-0.008250,-0.002231,0.001363,-0.030518,0.000000,0.000000
1.895793,-0.026345,0.820893,10.027947,-0.004058,-0.005225,0.001962,-0.030518,0.000000,-0.030518
1.905882,-0.031135,0.823288,10.018367,-0.008848,-0.002830,-0.007619,0.030518,0.030518,-0.030518
1.915970,-0.023351,0.822689,10.015373,-0.001065,-0.003428,-0.010612,0.030518,0.030518,0.000000
1.926058,-0.022154,0.828078,10.018367,0.000133,0.001960,-0.007619,0.000000,0.000000,-0.030518
1.936146,-0.022154,0.825683,10.023157,0.000133,-0.000435,-0.002829,0.000000,0.000000,-0.061035
1.946243,-0.021555,0.825683,10.022558,0.000732,-0.000435,-0.003427,0.000000,0.000000,-0.030518
1.956333,-0.022154,0.820294,10.015373,0.000133,-0.005823,-0.010612,0.000000,0.000000,-0.030518
1.966422,-0.019160,0.823288,10.008188,0.003127,-0.002830,-0.017797,0.000000,0.000000,-0.061035
1.976509,-0.029938,0.814905,10.017768,-0.007651,-0.011212,-0.008217,0.000000,-0.030518,-0.030518
1.986597,-0.034129,0.810714,10.013577,-0.011842,-0.015404,-0.012409,0.000000,0.000000,-0.061035
1.996780,-0.035925,0.809517,10.015373,-0.013638,-0.016601,-0.010612,0.030518,0.000000,-0.061035
2.006873,-0.035925,0.811313,10.018965,-0.013638,-0.014805,-0.007020,0.030518,0.000000,-0.030518
2.016968,-0.025148,0.814905,10.018367,-0.002861,-0.011212,-0.007619,0.030518,0.030518,0.000000
2.027061,-0.022753,0.823887,10.024953,-0.000466,-0.002231,-0.001032,0.030518,0.030518,0.000000
2.037154,-0.022154,0.824485,10.027947,0.000133,-0.001632,0.001962,0.000000,0.000000,0.000000
2.047248,-0.025148,0.825084,10.030941,-0.002861,-0.001033,0.004955,0.030518,0.030518,-0.030518
2.057343,-0.026944,0.826880,10.030941,-0.004657,0.000763,0.004955,0.000000,0.030518,0.000000
2.067438,-0.025746,0.828677,10.020762,-0.003460,0.002559,-0.005224,0.000000,0.030518,-0.030518
2.077534,-0.026944,0.831072,10.020762,-0.004657,0.004954,-0.005224,0.000000,0.030518,-0.030518
2.087632,-0.020956,0.828677,10.024354,0.001330,0.002559,-0.001631,-0.030518,0.061035,-0.030518
2.097746,-0.016765,0.834066,10.027947,0.005522,0.007948,0.001962,-0.030518,0.030518,-0.030518
2.107838,-0.014370,0.839454,10.027947,0.007917,0.013337,0.001962,-0.030518,0.030518,-0.061035
2.117929,-0.017963,0.832868,10.027947,0.004324,0.006750,0.001962,-0.030518,0.000000,-0.030518
2.128044,-0.018561,0.832269,10.029144,0.003725,0.006152,0.003159,-0.030518,0.000000,-0.030518
2.138130,-0.016166,0.830473,10.029743,0.006120,0.004355,0.003758,-0.030518,0.030518,0.030518
2.148221,-0.020358,0.832269,10.027947,0.001929,0.006152,0.001962,-0.030518,0.000000,0.030518
2.158312,-0.021555,0.831671,10.024354,0.000732,0.005553,-0.001631,-0.030518,0.000000,0.030518
2.168403,-0.025148,0.829276,10.023157,-0.002861,0.003158,-0.002829,-0.030518,0.000000,0.030518
2.178492,-0.016765,0.825683,10.025552,0.005522,-0.000435,-0.000433,-0.030518,0.000000,0.000000
2.188583,-0.020956,0.827479,10.027947,0.001330,0.001362,0.001962,-0.030518,0.000000,0.000000
2.198711,-0.022753,0.826282,10.024354,-0.000466,0.000164,-0.001631,0.000000,0.030518,0.000000
2.208802,-0.022154,0.829276,10.019564,0.000133,0.003158,-0.006421,0.030518,0.030518,0.000000
2.218891,-0.019759,0.829276,10.016570,0.002528,0.003158,-0.009415,0.000000,0.030518,0.030518
2.228982,-0.015568,0.831671,10.022558,0.006719,0.005553,-0.003427,0.000000,0.091553,0.000000
2.239073,-0.020956,0.831072,10.031539,0.001330,0.004954,0.005554,0.000000,0.061035,0.000000
2.249162,-0.019160,0.832269,10.032138,0.003127,0.006152,0.006153,0.030518,0.061035,-0.030518
2.259254,-0.015568,0.831072,10.026749,0.006719,0.004954,0.000764,0.030518,0.061035,-0.030518
2.269344,-0.014370,0.831072,10.026749,0.007917,0.004954,0.000764,0.030518,0.091553,0.000000
2.279434,-0.019759,0.832868,10.036928,0.002528,0.006750,0.010943,0.030518,0.061035,0.030518
2.289523,-0.017963,0.834664,10.039323,0.004324,0.008547,0.013338,0.061035,0.091553,-0.030518
2.299702,-0.019160,0.829276,10.023755,0.003127,0.003158,-0.002230,0.030518,0.061035,-0.030518
2.309799,-0.013771,0.825683,10.019564,0.008515,-0.000435,-0.006421,0.030518,0.061035,0.000000
2.319896,-0.015568,0.828078,10.020762,0.006719,0.001960,-0.005224,0.000000,0.091553,-0.030518
2.330170,-0.023950,0.826282,10.026749,-0.001663,0.000164,0.000764,0.000000,0.091553,-0.030518
2.340261,-0.023351,0.827479,10.024953,-0.001065,0.001362,-0.001032,0.000000,0.061035,0.000000
2.350355,-0.027543,0.824485,10.026151,-0.005256,-0.001632,0.000165,0.000000,0.030518,0.030518
2.360454,-0.022154,0.823887,10.023755,0.000133,-0.002231,-0.002230,0.000000,0.000000,0.030518
2.370551,-0.028141,0.830473,10.032737,-0.005855,0.004355,0.006752,0.030518,0.000000,0.000000
2.380648,-0.022753,0.826880,10.039323,-0.000466,0.000763,0.013338,0.030518,-0.030518,0.030518
2.390746,-0.019759,0.830473,10.036928,0.002528,0.004355,0.010943,0.030518,0.000000,0.061035
2.400842,-0.018561,0.828078,10.030342,0.003725,0.001960,0.004357,0.030518,-0.030518,0.061035
2.410928,-0.024549,0.838257,10.020762,-0.002262,0.012139,-0.005224,0.030518,0.000000,0.061035
2.421021,-0.025148,0.832868,10.023157,-0.002861,0.006750,-0.002829,0.091553,0.000000,0.000000
2.431111,-0.021555,0.839454,10.027947,0.000732,0.013337,0.001962,0.061035,0.030518,-0.030518
2.441200,-0.017963,0.837658,10.026749,0.004324,0.011540,0.000764,0.091553,0.030518,0.000000
2.451289,-0.016166,0.833467,10.021360,0.006120,0.007349,-0.004625,0.061035,0.030518,0.000000
2.461381,-0.014969,0.833467,10.026151,0.007318,0.007349,0.000165,0.030518,0.000000,-0.030518
2.471470,-0.020956,0.833467,10.033934,0.001330,0.007349,0.007949,0.000000,0.000000,0.000000
2.481577,-0.018561,0.835263,10.039922,0.003725,0.009145,0.013937,0.030518,0.030518,0.000000
2.491668,-0.021555,0.832269,10.035132,0.000732,0.006152,0.009147,0.030518,0.030518,-0.030518
2.501796,-0.026345,0.829276,10.030941,-0.004058,0.003158,0.004955,0.030518,0.000000,-0.030518
2.511886,-0.026345,0.823887,10.032138,-0.004058,-0.002231,0.006153,0.030518,0.000000,0.000000
2.521972,-0.026345,0.823288,10.033336,-0.004058,-0.002830,0.007350,0.030518,0.030518,0.000000
2.532074,-0.026944,0.823887,10.028546,-0.004657,-0.002231,0.002560,0.000000,0.030518,0.000000
2.542160,-0.022154,0.818498,10.026749,0.000133,-0.007620,0.000764,0.000000,0.030518,0.000000
2.552250,-0.019160,0.822689,10.023157,0.003127,-0.003428,-0.002829,0.000000,0.030518,0.000000
2.562342,-0.017364,0.832868,10.027348,0.004923,0.006750,0.001363,0.000000,0.061035,0.030518
2.572432,-0.019759,0.835263,10.031539,0.002528,0.009145,0.005554,0.030518,0.030518,0.000000
2.582522,-0.016765,0.833467,10.028546,0.005522,0.007349,0.002560,0.091553,0.030518,-0.030518
2.592608,-0.014370,0.835862,10.031539,0.007917,0.009744,0.005554,0.091553,0.061035,0.000000
2.602731,-0.010179,0.828078,10.031539,0.012108,0.001960,0.005554,0.091553,0.061035,0.000000
2.612819,-0.017963,0.825683,10.032138,0.004324,-0.000435,0.006153,0.061035,0.061035,0.000000
2.622916,-0.013173,0.828677,10.032138,0.009114,0.002559,0.006153,0.030518,0.061035,0.000000
2.633005,-0.018561,0.823288,10.039323,0.003725,-0.002830,0.013338,0.030518,0.030518,0.000000
2.643092,-0.018561,0.825683,10.036329,0.003725,-0.000435,0.010344,0.061035,0.061035,0.030518
2.653178,-0.017364,0.828078,10.035132,0.004923,0.001960,0.009147,0.061035,0.061035,0.000000
2.663270,-0.017963,0.831671,10.032138,0.004324,0.005553,0.006153,0.000000,0.030518,0.000000
2.673359,-0.012574,0.829874,10.035132,0.009713,0.003757,0.009147,0.000000,0.030518,0.030518
2.683446,-0.017963,0.834664,10.036329,0.004324,0.008547,0.010344,0.000000,0.030518,0.000000
2.693533,-0.018561,0.832868,10.035132,0.003725,0.006750,0.009147,0.000000,-0.030518,0.000000
2.703633,-0.020956,0.831671,10.033336,0.001330,0.005553,0.007350,0.000000,0.000000,-0.030518
2.713754,-0.016166,0.828078,10.031539,0.006120,0.001960,0.005554,0.030518,0.000000,-0.030518
2.723908,-0.015568,0.832868,10.043514,0.006719,0.006750,0.017529,0.000000,0.000000,-0.030518
2.733998,-0.014969,0.826880,10.042317,0.007318,0.000763,0.016332,-0.030518,0.000000,0.000000
2.744102,-0.018561,0.833467,10.024354,0.003725,0.007349,-0.001631,-0.030518,-0.030518,0.000000
2.754204,-0.016765,0.835263,10.027348,0.005522,0.009145,0.001363,-0.030518,-0.030518,0.000000
2.764297,-0.015568,0.833467,10.023755,0.006719,0.007349,-0.002230,0.000000,-0.030518,0.000000
2.774398,-0.022154,0.828078,10.024953,0.000133,0.001960,-0.001032,0.030518,-0.030518,-0.030518
2.784501,-0.016765,0.833467,10.032138,0.005522,0.007349,0.006153,0.061035,0.000000,0.000000
2.794588,-0.020956,0.834664,10.030941,0.001330,0.008547,0.004955,0.030518,0.000000,0.000000
2.804733,-0.021555,0.835862,10.029743,0.000732,0.009744,0.003758,0.061035,0.030518,0.000000
2.814835,-0.023950,0.830473,10.026749,-0.001663,0.004355,0.000764,0.061035,0.000000,-0.030518
2.824925,-0.022753,0.829874,10.031539,-0.000466,0.003757,0.005554,0.061035,0.030518,-0.030518
2.835026,-0.022154,0.831072,10.030941,0.000133,0.004954,0.004955,0.030518,0.030518,-0.030518
2.845135,-0.025148,0.825084,10.036329,-0.002861,-0.001033,0.010344,0.061035,0.061035,-0.030518
2.855236,-0.031734,0.827479,10.030342,-0.009447,0.001362,0.004357,0.061035,0.091553,-0.030518
2.865335,-0.018561,0.818498,10.029144,0.003725,-0.007620,0.003159,0.061035,0.091553,-0.030518
2.875439,-0.018561,0.824485,10.036329,0.003725,-0.001632,0.010344,0.030518,0.061035,-0.030518
2.885531,-0.013771,0.825084,10.031539,0.008515,-0.001033,0.005554,0.030518,0.061035,0.000000
2.895631,-0.014370,0.823288,10.034533,0.007917,-0.002830,0.008548,0.030518,0.030518,0.000000
2.905765,-0.011376,0.822090,10.027348,0.010911,-0.004027,0.001363,0.030518,0.061035,0.000000
2.915878,-0.013771,0.823288,10.024953,0.008515,-0.002830,-0.001032,0.030518,0.061035,0.030518
2.925979,-0.010778,0.827479,10.030941,0.011509,0.001362,0.004955,0.030518,0.030518,0.000000
2.936080,-0.012574,0.828677,10.033336,0.009713,0.002559,0.007350,0.030518,0.030518,0.030518
2.946167,-0.013771,0.827479,10.027947,0.008515,0.001362,0.001962,0.030518,0.061035,0.030518
2.956273,-0.011376,0.831671,10.024953,0.010911,0.005553,-0.001032,0.000000,0.061035,0.061035
2.966390,-0.015568,0.832868,10.026749,0.006719,0.006750,0.000764,0.000000,0.061035,0.030518
2.976482,-0.017364,0.836461,10.031539,0.004923,0.010343,0.005554,0.030518,0.061035,0.061035
2.986586,-0.019160,0.833467,10.032737,0.003127,0.007349,0.006752,0.030518,0.030518,0.061035
2.996691,-0.021555,0.831671,10.040521,0.000732,0.005553,0.014535,0.030518,0.030518,0.061035
3.006819,-0.020358,0.830473,10.035731,0.001929,0.004355,0.009745,0.030518,0.000000,0.061035
3.016923,-0.019160,0.829276,10.035731,0.003127,0.003158,0.009745,0.030518,0.000000,0.000000
3.027035,-0.022753,0.829276,10.027947,-0.000466,0.003158,0.001962,0.030518,0.030518,0.030518
3.037126,-0.024549,0.829874,10.031539,-0.002262,0.003757,0.005554,0.000000,0.030518,0.000000
3.047231,-0.014969,0.827479,10.029743,0.007318,0.001362,0.003758,0.000000,0.061035,0.030518
3.057337,-0.016765,0.820893,10.025552,0.005522,-0.005225,-0.000433,0.030518,0.061035,0.000000
3.067426,-0.022154,0.828078,10.020762,0.000133,0.001960,-0.005224,0.000000,0.061035,0.030518
3.077521,-0.025148,0.831671,10.022558,-0.002861,0.005553,-0.003427,0.000000,0.061035,0.000000
3.087625,-0.025746,0.829874,10.026749,-0.003460,0.003757,0.000764,0.000000,0.030518,0.030518
3.097716,-0.027543,0.825683,10.030941,-0.005256,-0.000435,0.004955,0.000000,0.030518,0.000000
3.107890,-0.025148,0.821492,10.033336,-0.002861,-0.004626,0.007350,0.000000,0.030518,-0.030518
3.117995,-0.021555,0.829874,10.029144,0.000732,0.003757,0.003159,0.000000,0.000000,0.000000
3.128088,-0.023351,0.828677,10.030941,-0.001065,0.002559,0.004955,-0.030518,0.000000,-0.030518
3.138177,-0.025746,0.832868,10.025552,-0.003460,0.006750,-0.000433,0.000000,0.000000,0.000000
3.148283,-0.022154,0.836461,10.027348,0.000133,0.010343,0.001363,0.000000,0.000000,-0.030518
3.158372,-0.020358,0.832868,10.028546,0.001929,0.006750,0.002560,0.030518,0.000000,-0.030518
3.168464,-0.019759,0.831072,10.028546,0.002528,0.004954,0.002560,0.000000,0.000000,-0.030518
3.178555,-0.017963,0.826282,10.032737,0.004324,0.000164,0.006752,0.000000,-0.030518,-0.061035
3.188646,-0.019160,0.826880,10.026749,0.003127,0.000763,0.000764,0.000000,0.030518,0.030518
3.198737,-0.017364,0.831072,10.026749,0.004923,0.004954,0.000764,0.030518,0.030518,0.030518
3.208864,-0.019160,0.825683,10.024354,0.003127,-0.000435,-0.001631,0.030518,0.061035,0.030518
3.218954,-0.021555,0.827479,10.030941,0.000732,0.001362,0.004955,0.030518,0.030518,0.030518
3.229043,-0.017364,0.827479,10.039323,0.004923,0.001362,0.013338,0.030518,0.030518,-0.030518
3.239132,-0.014370,0.825084,10.032138,0.007917,-0.001033,0.006153,0.030518,0.061035,-0.030518
3.249222,-0.016166,0.828677,10.027348,0.006120,0.002559,0.001363,0.030518,0.061035,-0.030518
3.259313,-0.016765,0.826282,10.020163,0.005522,0.000164,-0.005822,0.030518,0.091553,-0.030518
3.269403,-0.008383,0.824485,10.024953,0.013904,-0.001632,-0.001032,0.030518,0.091553,0.000000
3.279493,-0.017963,0.826880,10.026749,0.004324,0.000763,0.000764,0.030518,0.000000,0.000000
3.289584,-0.013173,0.828078,10.027947,0.009114,0.001960,0.001962,0.000000,0.030518,0.000000
3.299674,-0.013173,0.829874,10.024354,0.009114,0.003757,-0.001631,0.061035,0.030518,0.030518
3.309793,-0.020956,0.826282,10.023157,0.001330,0.000164,-0.002829,0.091553,0.030518,0.000000
3.319885,-0.022753,0.825683,10.023755,-0.000466,-0.000435,-0.002230,0.061035,0.061035,0.030518
3.329975,-0.019160,0.829874,10.030941,0.003127,0.003757,0.004955,0.091553,0.000000,0.000000
3.340062,-0.020358,0.831671,10.032737,0.001929,0.005553,0.006752,0.091553,0.000000,0.000000
3.350154,-0.022753,0.837059,10.027947,-0.000466,0.010942,0.001962,0.061035,-0.030518,-0.030518
3.360246,-0.022154,0.837059,10.027947,0.000133,0.010942,0.001962,0.091553,0.000000,-0.061035
3.370337,-0.022753,0.835862,10.032138,-0.000466,0.009744,0.006153,0.091553,-0.030518,-0.061035
3.380427,-0.023351,0.835263,10.029144,-0.001065,0.009145,0.003159,0.091553,0.000000,-0.030518
3.390519,-0.022753,0.834066,10.024953,-0.000466,0.007948,-0.001032,0.091553,0.000000,0.000000
3.400611,-0.022154,0.828078,10.024354,0.000133,0.001960,-0.001631,0.030518,0.000000,0.000000
3.410733,-0.018561,0.828677,10.026749,0.003725,0.002559,0.000764,0.030518,0.000000,0.030518
3.420824,-0.008981,0.834664,10.033934,0.013306,0.008547,0.007949,0.030518,0.000000,0.030518
3.430913,-0.007185,0.834066,10.032737,0.015102,0.007948,0.006752,0.030518,0.000000,0.030518
3.441004,-0.008981,0.833467,10.036329,0.013306,0.007349,0.010344,0.000000,0.030518,0.000000
3.451096,-0.013173,0.831072,10.032138,0.009114,0.004954,0.006153,0.000000,0.030518,-0.030518
3.461187,-0.011376,0.831671,10.028546,0.010911,0.005553,0.002560,0.000000,0.030518,-0.061035
3.471278,-0.009580,0.829874,10.037527,0.012707,0.003757,0.011542,0.000000,0.030518,-0.061035
3.481366,-0.009580,0.834066,10.036329,0.012707,0.007948,0.010344,0.030518,0.061035,-0.030518
3.491457,-0.013771,0.831072,10.030342,0.008515,0.004954,0.004357,0.030518,0.000000,-0.030518
3.501548,-0.019759,0.832868,10.027348,0.002528,0.006750,0.001363,0.030518,0.000000,0.000000
3.511696,-0.015568,0.827479,10.020762,0.006719,0.001362,-0.005224,0.000000,0.000000,-0.030518
3.521789,-0.013173,0.823288,10.022558,0.009114,-0.002830,-0.003427,0.000000,-0.030518,0.000000
3.531882,-0.005389,0.832868,10.023755,0.016898,0.006750,-0.002230,0.000000,0.000000,0.000000
3.541970,-0.010179,0.828078,10.022558,0.012108,0.001960,-0.003427,0.000000,0.030518,0.000000
3.552061,-0.011376,0.831072,10.018965,0.010911,0.004954,-0.007020,-0.030518,0.061035,-0.030518
3.562151,-0.016765,0.835263,10.022558,0.005522,0.009145,-0.003427,-0.030518,0.061035,-0.030518
3.572243,-0.018561,0.844244,10.025552,0.003725,0.018127,-0.000433,-0.030518,0.030518,-0.030518
3.582469,-0.019759,0.836461,10.026151,0.002528,0.010343,0.000165,0.000000,0.000000,0.000000
3.592571,-0.023950,0.830473,10.024354,-0.001663,0.004355,-0.001631,0.030518,0.030518,0.000000
3.602673,-0.024549,0.824485,10.013577,-0.002262,-0.001632,-0.012409,0.000000,0.000000,0.030518
3.612800,-0.028740,0.828677,10.012978,-0.006453,0.002559,-0.013007,0.000000,0.030518,0.030518
3.622888,-0.028141,0.835263,10.014774,-0.005855,0.009145,-0.011211,0.030518,0.030518,-0.061035
3.633013,-0.025148,0.834664,10.023157,-0.002861,0.008547,-0.002829,0.000000,0.030518,-0.061035
3.643098,-0.029938,0.827479,10.019564,-0.007651,0.001362,-0.006421,0.000000,0.030518,-0.091553
3.653186,-0.029938,0.831072,10.021360,-0.007651,0.004954,-0.004625,0.000000,0.030518,-0.061035
3.663272,-0.029339,0.827479,10.017169,-0.007052,0.001362,-0.008816,0.000000,0.030518,-0.030518
3.673358,-0.026944,0.822090,10.022558,-0.004657,-0.004027,-0.003427,0.000000,0.030518,-0.030518
3.683444,-0.024549,0.823288,10.019564,-0.002262,-0.002830,-0.006421,-0.030518,0.030518,0.000000
3.693530,-0.026345,0.828078,10.014774,-0.004058,0.001960,-0.011211,-0.030518,0.030518,-0.030518
3.703615,-0.020358,0.824485,10.006392,0.001929,-0.001632,-0.019594,-0.030518,0.030518,-0.061035
3.713796,-0.022753,0.820893,10.009385,-0.000466,-0.005225,-0.016600,-0.030518,0.061035,-0.030518
3.723892,-0.025148,0.823288,10.020163,-0.002861,-0.002830,-0.005822,0.000000,0.061035,-0.030518
3.733987,-0.023950,0.823887,10.019564,-0.001663,-0.002231,-0.006421,0.000000,0.030518,0.000000
3.744080,-0.024549,0.823288,10.019564,-0.002262,-0.002830,-0.006421,0.000000,0.061035,0.000000
3.754174,-0.023351,0.816103,10.014175,-0.001065,-0.010015,-0.011810,0.030518,0.061035,0.000000
3.764270,-0.017963,0.819695,10.017768,0.004324,-0.006422,-0.008217,0.030518,0.061035,0.000000
3.774362,-0.019160,0.826282,10.021959,0.003127,0.000164,-0.004026,0.030518,0.061035,0.030518
3.784457,-0.016166,0.829276,10.019564,0.006120,0.003158,-0.006421,0.061035,0.061035,0.030518
3.794548,-0.017963,0.824485,10.021360,0.004324,-0.001632,-0.004625,0.030518,0.030518,0.061035
3.804640,-0.019160,0.827479,10.017169,0.003127,0.001362,-0.008816,0.091553,0.061035,0.061035
3.814735,-0.022154,0.824485,10.023157,0.000133,-0.001632,-0.002829,0.061035,0.030518,0.030518
3.824822,-0.022753,0.825084,10.029743,-0.000466,-0.001033,0.003758,0.091553,0.000000,0.030518
3.834908,-0.022753,0.828078,10.035731,-0.000466,0.001960,0.009745,0.030518,0.000000,0.000000
3.845000,-0.027543,0.824485,10.035132,-0.005256,-0.001632,0.009147,0.030518,0.030518,0.000000
3.855091,-0.027543,0.828677,10.032737,-0.005256,0.002559,0.006752,0.030518,0.000000,0.030518
3.865183,-0.020358,0.828677,10.032737,0.001929,0.002559,0.006752,-0.030518,0.030518,0.030518
3.875270,-0.022753,0.829276,10.033336,-0.000466,0.003158,0.007350,0.000000,0.030518,0.030518
3.885360,-0.019160,0.825084,10.032737,0.003127,-0.001033,0.006752,-0.030518,0.061035,0.000000
3.895447,-0.019759,0.828677,10.028546,0.002528,0.002559,0.002560,0.000000,0.030518,0.030518
3.905537,-0.028141,0.827479,10.018965,-0.005855,0.001362,-0.007020,0.000000,0.030518,0.000000
3.915659,-0.027543,0.822689,10.023755,-0.005256,-0.003428,-0.002230,0.030518,0.061035,0.000000
3.925748,-0.026345,0.823288,10.030941,-0.004058,-0.002830,0.004955,0.030518,0.030518,-0.030518
3.935835,-0.022753,0.823887,10.031539,-0.000466,-0.002231,0.005554,0.030518,0.061035,0.000000
3.945922,-0.022753,0.820893,10.029743,-0.000466,-0.005225,0.003758,0.061035,0.091553,0.000000
3.956010,-0.018561,0.820893,10.024953,0.003725,-0.005225,-0.001032,0.061035,0.030518,-0.030518
3.966099,-0.019759,0.818498,10.021360,0.002528,-0.007620,-0.004625,0.061035,0.030518,-0.030518
3.976187,-0.029938,0.822689,10.018965,-0.007651,-0.003428,-0.007020,0.091553,0.000000,-0.061035
3.986275,-0.026345,0.824485,10.019564,-0.004058,-0.001632,-0.006421,0.061035,0.000000,-0.061035
3.996363,-0.026345,0.829874,10.011780,-0.004058,0.003757,-0.014205,0.030518,0.000000,-0.061035
4.006451,-0.021555,0.829276,10.010583,0.000732,0.003158,-0.015402,0.030518,0.000000,-0.061035
4.016629,-0.019160,0.829874,10.011182,0.003127,0.003757,-0.014804,0.030518,0.000000,-0.061035
4.026723,-0.028141,0.826880,10.021360,-0.005855,0.000763,-0.004625,0.030518,-0.030518,-0.061035
4.036817,-0.029938,0.825683,10.021959,-0.007651,-0.000435,-0.004026,0.030518,0.000000,-0.122070
4.046911,-0.019759,0.825084,10.023157,0.002528,-0.001033,-0.002829,0.030518,0.030518,-0.091553
4.057004,-0.019759,0.829276,10.022558,0.002528,0.003158,-0.003427,0.000000,0.030518,-0.030518
4.067099,-0.021555,0.828078,10.027947,0.000732,0.001960,0.001962,0.000000,0.091553,-0.091553
4.077193,-0.019160,0.826880,10.025552,0.003127,0.000763,-0.000433,0.030518,0.030518,-0.061035
4.087288,-0.020358,0.827479,10.025552,0.001929,0.001362,-0.000433,0.030518,0.061035,-0.030518
4.097383,-0.014969,0.828078,10.021959,0.007318,0.001960,-0.004026,0.061035,0.061035,-0.030518
4.107479,-0.019160,0.821492,10.021959,0.003127,-0.004626,-0.004026,0.061035,0.030518,-0.030518
4.117658,-0.020358,0.824485,10.027348,0.001929,-0.001632,0.001363,0.030518,0.091553,-0.030518
4.127747,-0.023351,0.828677,10.023755,-0.001065,0.002559,-0.002230,0.000000,0.061035,0.000000
4.137837,-0.022753,0.825683,10.029743,-0.000466,-0.000435,0.003758,0.061035,0.030518,0.030518
4.147926,-0.022753,0.820893,10.029743,-0.000466,-0.005225,0.003758,0.030518,0.030518,0.030518
4.158020,-0.022753,0.817899,10.027348,-0.000466,-0.008219,0.001363,0.000000,0.061035,-0.030518
4.168111,-0.020956,0.815504,10.023755,0.001330,-0.010614,-0.002230,-0.030518,0.061035,-0.030518
4.178201,-0.017364,0.823288,10.028546,0.004923,-0.002830,0.002560,0.000000,0.061035,-0.030518
4.188291,-0.025148,0.819097,10.020163,-0.002861,-0.007021,-0.005822,0.000000,0.061035,-0.061035
4.198381,-0.031135,0.818498,10.020163,-0.008848,-0.007620,-0.005822,0.030518,0.061035,-0.030518
4.208470,-0.032333,0.824485,10.021360,-0.010046,-0.001632,-0.004625,0.030518,0.000000,-0.030518
4.218597,-0.034728,0.822090,10.028546,-0.012441,-0.004027,0.002560,0.030518,0.030518,-0.030518
4.228687,-0.029938,0.828078,10.033934,-0.007651,0.001960,0.007949,0.030518,0.030518,-0.061035
4.238776,-0.029339,0.828078,10.027947,-0.007052,0.001960,0.001962,0.000000,0.061035,-0.030518
4.248866,-0.025148,0.837059,10.029144,-0.002861,0.010942,0.003159,-0.030518,0.030518,-0.061035
4.258953,-0.020358,0.832868,10.029144,0.001929,0.006750,0.003159,0.000000,0.061035,-0.030518
4.269044,-0.023351,0.832269,10.035132,-0.001065,0.006152,0.009147,0.030518,0.061035,0.000000
4.279133,-0.023351,0.832269,10.032737,-0.001065,0.006152,0.006752,0.000000,0.061035,0.000000
4.289222,-0.024549,0.834066,10.027947,-0.002262,0.007948,0.001962,0.030518,0.061035,0.000000
4.299311,-0.023351,0.827479,10.019564,-0.001065,0.001362,-0.006421,0.061035,0.030518,-0.030518
4.309400,-0.020956,0.829874,10.016570,0.001330,0.003757,-0.009415,0.030518,0.061035,0.000000
4.319574,-0.021555,0.828078,10.023755,0.000732,0.001960,-0.002230,0.061035,0.091553,-0.030518
4.329669,-0.018561,0.827479,10.027348,0.003725,0.001362,0.001363,0.030518,0.061035,-0.030518
4.339763,-0.015568,0.827479,10.024953,0.006719,0.001362,-0.001032,0.000000,0.061035,-0.061035
4.349860,-0.017963,0.828677,10.024354,0.004324,0.002559,-0.001631,0.000000,0.030518,-0.030518
4.359957,-0.020358,0.829276,10.020762,0.001929,0.003158,-0.005224,0.030518,0.030518,-0.030518
4.370054,-0.018561,0.828677,10.026151,0.003725,0.002559,0.000165,0.030518,0.030518,-0.030518
4.380160,-0.016765,0.819097,10.015972,0.005522,-0.007021,-0.010014,0.030518,0.061035,-0.061035
4.390260,-0.016166,0.819097,10.015373,0.006120,-0.007021,-0.010612,0.000000,0.030518,-0.030518
4.400357,-0.017963,0.826282,10.012379,0.004324,0.000164,-0.013606,0.000000,0.061035,-0.061035
4.410454,-0.017364,0.828677,10.012978,0.004923,0.002559,-0.013007,-0.030518,0.061035,-0.061035
4.420653,-0.018561,0.838257,10.023755,0.003725,0.012139,-0.002230,0.030518,0.030518,-0.061035
4.430743,-0.017963,0.833467,10.018965,0.004324,0.007349,-0.007020,0.000000,0.000000,-0.030518
4.440833,-0.025148,0.821492,10.009984,-0.002861,-0.004626,-0.016001,0.030518,0.030518,-0.030518
4.450923,-0.028740,0.823288,10.014774,-0.006453,-0.002830,-0.011211,0.000000,0.030518,-0.061035
4.461025,-0.028141,0.818498,10.011780,-0.005855,-0.007620,-0.014205,0.000000,0.000000,0.030518
4.471141,-0.035327,0.822090,10.015972,-0.013040,-0.004027,-0.010014,0.030518,-0.030518,0.000000
4.481234,-0.025746,0.819097,10.014175,-0.003460,-0.007021,-0.011810,0.030518,0.000000,0.000000
4.491324,-0.025148,0.814905,10.014175,-0.002861,-0.011212,-0.011810,0.061035,-0.030518,-0.091553
4.501415,-0.026345,0.813109,10.013577,-0.004058,-0.013009,-0.012409,0.030518,0.000000,-0.061035
4.511502,-0.031135,0.813109,10.014175,-0.008848,-0.013009,-0.011810,0.030518,0.030518,-0.061035
4.521621,-0.028740,0.816103,10.023755,-0.006453,-0.010015,-0.002230,0.030518,0.030518,-0.061035
4.531713,-0.025148,0.817300,10.024953,-0.002861,-0.008817,-0.001032,0.030518,0.030518,-0.030518
4.541798,-0.028141,0.821492,10.023755,-0.005855,-0.004626,-0.002230,0.000000,0.030518,-0.030518
4.551889,-0.025148,0.821492,10.022558,-0.002861,-0.004626,-0.003427,0.030518,0.000000,-0.030518
4.561980,-0.025148,0.827479,10.021360,-0.002861,0.001362,-0.004625,0.030518,0.030518,-0.061035
4.572069,-0.022753,0.824485,10.023157,-0.000466,-0.001632,-0.002829,0.030518,0.061035,-0.061035
4.582159,-0.025746,0.825683,10.026749,-0.003460,-0.000435,0.000764,0.000000,0.061035,-0.030518
4.592249,-0.030536,0.822090,10.020163,-0.008250,-0.004027,-0.005822,0.000000,0.030518,-0.030518
4.602339,-0.029339,0.823887,10.021959,-0.007052,-0.002231,-0.004026,-0.030518,0.000000,-0.030518
4.612426,-0.028740,0.827479,10.016570,-0.006453,0.001362,-0.009415,-0.030518,0.030518,-0.030518
4.622607,-0.022154,0.824485,10.030941,0.000133,-0.001632,0.004955,0.000000,0.030518,0.030518
4.632714,-0.023950,0.825683,10.030941,-0.001663,-0.000435,0.004955,0.000000,0.030518,0.030518
4.642805,-0.017364,0.830473,10.036329,0.004923,0.004355,0.010344,0.030518,0.061035,0.030518
4.652903,-0.022154,0.831671,10.034533,0.000133,0.005553,0.008548,0.061035,0.091553,0.000000
4.662996,-0.023351,0.835263,10.039323,-0.001065,0.009145,0.013338,0.061035,0.061035,0.030518
4.673090,-0.021555,0.837658,10.037527,0.000732,0.011540,0.011542,0.061035,0.061035,0.030518
4.683181,-0.024549,0.841849,10.038724,-0.002262,0.015732,0.012739,0.061035,0.030518,0.030518
4.693274,-0.028740,0.842448,10.037527,-0.006453,0.016330,0.011542,0.030518,0.061035,0.000000
4.703367,-0.030536,0.832269,10.027348,-0.008250,0.006152,0.001363,0.030518,0.061035,0.000000
4.713464,-0.026944,0.834066,10.022558,-0.004657,0.007948,-0.003427,0.000000,0.061035,0.000000
4.723584,-0.020358,0.838856,10.022558,0.001929,0.012738,-0.003427,0.000000,0.061035,-0.030518
4.733690,-0.020956,0.835862,10.019564,0.001330,0.009744,-0.006421,0.000000,0.061035,-0.030518
4.743775,-0.023950,0.833467,10.018965,-0.001663,0.007349,-0.007020,0.030518,0.061035,-0.030518
4.753863,-0.024549,0.830473,10.021360,-0.002262,0.004355,-0.004625,0.000000,0.030518,0.000000
4.763954,-0.017963,0.830473,10.022558,0.004324,0.004355,-0.003427,-0.030518,0.030518,-0.030518
4.774042,-0.026944,0.834664,10.031539,-0.004657,0.008547,0.005554,-0.061035,0.000000,-0.030518
4.784133,-0.029938,0.830473,10.030342,-0.007651,0.004355,0.004357,-0.030518,0.000000,-0.030518
4.794220,-0.031135,0.829276,10.030342,-0.008848,0.003158,0.004357,0.000000,0.030518,-0.030518
4.804311,-0.029339,0.819695,10.024953,-0.007052,-0.006422,-0.001032,0.000000,0.061035,-0.030518
4.814399,-0.026944,0.819097,10.027947,-0.004657,-0.007021,0.001962,0.030518,0.061035,-0.061035
4.824524,-0.022753,0.822689,10.028546,-0.000466,-0.003428,0.002560,0.000000,0.061035,-0.061035
4.834613,-0.025746,0.822689,10.027947,-0.003460,-0.003428,0.001962,0.000000,0.061035,0.000000
4.844703,-0.025746,0.819695,10.030941,-0.003460,-0.006422,0.004955,0.030518,0.030518,-0.030518
4.854795,-0.025148,0.823887,10.035132,-0.002861,-0.002231,0.009147,0.000000,0.061035,0.030518
4.864884,-0.022154,0.826282,10.030342,0.000133,0.000164,0.004357,0.030518,0.061035,0.000000
4.874972,-0.029938,0.828078,10.033934,-0.007651,0.001960,0.007949,0.030518,0.030518,0.030518
4.885064,-0.027543,0.825683,10.027947,-0.005256,-0.000435,0.001962,0.030518,0.030518,0.000000
4.895151,-0.020956,0.825084,10.027348,0.001330,-0.001033,0.001363,0.000000,0.061035,0.000000
4.905241,-0.014370,0.828078,10.021360,0.007917,0.001960,-0.004625,0.061035,0.030518,0.000000
4.915329,-0.013771,0.825084,10.024953,0.008515,-0.001033,-0.001032,0.061035,0.030518,0.000000
4.925498,-0.018561,0.828078,10.026151,0.003725,0.001960,0.000165,0.030518,0.030518,-0.030518
4.935610,-0.025746,0.826282,10.036329,-0.003460,0.000164,0.010344,0.030518,0.030518,-0.030518
4.945701,-0.021555,0.825683,10.036329,0.000732,-0.000435,0.010344,0.061035,0.061035,0.000000
4.955796,-0.017963,0.827479,10.025552,0.004324,0.001362,-0.000433,0.091553,0.000000,0.000000
4.965892,-0.015568,0.817899,10.026749,0.006719,-0.008219,0.000764,0.061035,0.030518,0.000000
4.975989,-0.016166,0.820893,10.034533,0.006120,-0.005225,0.008548,0.061035,0.061035,-0.030518
4.986083,-0.014370,0.823887,10.038126,0.007917,-0.002231,0.012140,0.030518,0.061035,-0.030518
4.996180,-0.016166,0.822090,10.032138,0.006120,-0.004027,0.006153,0.000000,0.061035,0.000000
5.006276,-0.022154,0.823288,10.024354,0.000133,-0.002830,-0.001631,0.030518,0.091553,0.030518
5.016372,-0.023351,0.827479,10.023755,-0.001065,0.001362,-0.002230,0.030518,0.061035,0.030518
5.026561,-0.019759,0.831671,10.029743,0.002528,0.005553,0.003758,0.061035,0.061035,0.000000
5.036651,-0.020358,0.827479,10.025552,0.001929,0.001362,-0.000433,0.061035,0.061035,0.000000
5.046741,-0.022154,0.817899,10.018965,0.000133,-0.008219,-0.007020,0.030518,0.061035,0.030518
5.056831,-0.017963,0.818498,10.021360,0.004324,-0.007620,-0.004625,0.061035,0.061035,0.000000
5.066922,-0.020358,0.825084,10.024953,0.001929,-0.001033,-0.001032,0.061035,0.030518,0.030518
5.077012,-0.022154,0.822090,10.024354,0.000133,-0.004027,-0.001631,0.061035,0.061035,0.000000
5.087102,-0.020956,0.830473,10.017169,0.001330,0.004355,-0.008816,0.030518,0.091553,0.000000
5.097192,-0.016765,0.826880,10.015373,0.005522,0.000763,-0.010612,0.030518,0.091553,0.000000
5.107281,-0.018561,0.823887,10.011780,0.003725,-0.002231,-0.014205,0.030518,0.061035,0.000000
5.117370,-0.026345,0.829874,10.018367,-0.004058,0.003757,-0.007619,0.030518,0.000000,0.000000
5.127503,-0.026345,0.834664,10.018965,-0.004058,0.008547,-0.007020,0.030518,0.000000,0.000000
5.137625,-0.024549,0.834664,10.020762,-0.002262,0.008547,-0.005224,0.030518,0.000000,0.030518
5.147719,-0.025148,0.837658,10.020163,-0.002861,0.011540,-0.005822,0.061035,0.030518,0.030518
5.157829,-0.024549,0.837059,10.015972,-0.002262,0.010942,-0.010014,0.091553,0.030518,0.030518
5.167928,-0.023351,0.832868,10.027348,-0.001065,0.006750,0.001363,0.091553,0.000000,0.030518
5.178025,-0.029938,0.830473,10.024953,-0.007651,0.004355,-0.001032,0.030518,0.030518,0.000000
5.188122,-0.029339,0.842448,10.021360,-0.007052,0.016330,-0.004625,0.030518,0.091553,0.000000
5.198236,-0.023351,0.837059,10.021959,-0.001065,0.010942,-0.004026,0.000000,0.061035,-0.030518
5.208332,-0.018561,0.837059,10.025552,0.003725,0.010942,-0.000433,0.030518,0.030518,-0.030518
5.218430,-0.022753,0.837658,10.030941,-0.000466,0.011540,0.004955,0.061035,0.061035,-0.030518
5.228627,-0.022753,0.832868,10.032737,-0.000466,0.006750,0.006752,0.030518,0.061035,-0.030518
5.238719,-0.022753,0.829276,10.029144,-0.000466,0.003158,0.003159,0.030518,0.030518,-0.030518
5.248810,-0.023351,0.827479,10.029144,-0.001065,0.001362,0.003159,0.061035,0.061035,-0.030518
5.258920,-0.031135,0.826880,10.020762,-0.008848,0.000763,-0.005224,0.030518,0.030518,-0.030518
5.269012,-0.031734,0.825084,10.023157,-0.009447,-0.001033,-0.002829,0.030518,0.000000,0.000000
5.279104,-0.028740,0.829874,10.024354,-0.006453,0.003757,-0.001631,0.030518,0.030518,0.030518
5.289194,-0.025746,0.828677,10.017768,-0.003460,0.002559,-0.008217,0.030518,0.030518,0.030518
5.299285,-0.017963,0.828078,10.023755,0.004324,0.001960,-0.002230,0.000000,0.000000,0.000000
5.309376,-0.017364,0.829276,10.020163,0.004923,0.003158,-0.005822,0.030518,-0.030518,0.000000
5.319466,-0.025746,0.824485,10.024354,-0.003460,-0.001632,-0.001631,-0.030518,0.000000,0.000000
5.329554,-0.020956,0.818498,10.025552,0.001330,-0.007620,-0.000433,0.000000,0.030518,0.000000
5.339646,-0.026345,0.815504,10.029144,-0.004058,-0.010614,0.003159,0.000000,0.061035,0.030518
5.349756,-0.023351,0.820893,10.023157,-0.001065,-0.005225,-0.002829,0.000000,0.030518,0.030518
5.359893,-0.020358,0.819097,10.021959,0.001929,-0.007021,-0.004026,0.000000,0.000000,0.030518
5.369985,-0.026345,0.831072,10.019564,-0.004058,0.004954,-0.006421,-0.030518,0.061035,0.030518
5.380076,-0.020956,0.831671,10.018965,0.001330,0.005553,-0.007020,0.000000,0.030518,0.030518
5.390165,-0.023950,0.836461,10.015373,-0.001663,0.010343,-0.010612,0.030518,0.030518,0.030518
5.400256,-0.020358,0.832269,10.014175,0.001929,0.006152,-0.011810,0.000000,0.061035,0.030518
5.410346,-0.013173,0.831072,10.017169,0.009114,0.004954,-0.008816,0.030518,0.061035,0.030518
5.420436,-0.021555,0.825683,10.024354,0.000732,-0.000435,-0.001631,0.030518,0.030518,0.030518
5.430560,-0.020358,0.822689,10.020163,0.001929,-0.003428,-0.005822,0.061035,0.030518,0.030518
5.440650,-0.023950,0.823887,10.017169,-0.001663,-0.002231,-0.008816,0.030518,0.061035,0.030518
5.450740,-0.018561,0.818498,10.015373,0.003725,-0.007620,-0.010612,0.030518,0.091553,0.030518
5.460831,-0.017364,0.814307,10.012978,0.004923,-0.011811,-0.013007,0.061035,0.030518,-0.030518
5.470922,-0.022753,0.810714,10.020762,-0.000466,-0.015404,-0.005224,0.091553,0.061035,-0.030518
5.481013,-0.020358,0.815504,10.024953,0.001929,-0.010614,-0.001032,0.091553,0.091553,-0.030518
5.491104,-0.025746,0.820893,10.015972,-0.003460,-0.005225,-0.010014,0.061035,0.030518,-0.061035
5.501206,-0.024549,0.823288,10.021360,-0.002262,-0.002830,-0.004625,0.061035,0.030518,-0.061035
5.511308,-0.020956,0.829276,10.026151,0.001330,0.003158,0.000165,0.000000,0.000000,-0.030518
5.521394,-0.013173,0.825683,10.028546,0.009114,-0.000435,0.002560,0.000000,0.030518,-0.030518
5.531488,-0.019759,0.826880,10.029743,0.002528,0.000763,0.003758,0.000000,0.061035,-0.061035
5.541572,-0.015568,0.822689,10.024354,0.006719,-0.003428,-0.001631,0.030518,0.030518,-0.061035
5.551655,-0.020358,0.820893,10.022558,0.001929,-0.005225,-0.003427,0.000000,0.061035,-0.030518
5.561738,-0.023950,0.823887,10.020163,-0.001663,-0.002231,-0.005822,0.030518,0.061035,0.000000
5.571824,-0.019160,0.828078,10.021360,0.003127,0.001960,-0.004625,0.061035,0.061035,0.000000
5.581908,-0.016166,0.823887,10.024354,0.006120,-0.002231,-0.001631,0.061035,0.061035,0.000000
5.591994,-0.020956,0.826282,10.019564,0.001330,0.000164,-0.006421,0.061035,0.030518,-0.030518
5.602133,-0.012574,0.826880,10.020163,0.009713,0.000763,-0.005822,0.061035,0.030518,0.000000
5.612232,-0.012574,0.828677,10.023755,0.009713,0.002559,-0.002230,0.061035,0.030518,0.000000
5.622319,-0.011975,0.831072,10.028546,0.010312,0.004954,0.002560,0.122070,0.030518,-0.030518
5.632486,-0.014370,0.832269,10.023157,0.007917,0.006152,-0.002829,0.061035,0.030518,0.000000
5.642576,-0.016166,0.826282,10.026151,0.006120,0.000164,0.000165,0.091553,0.030518,0.000000
5.652671,-0.023950,0.823887,10.021959,-0.001663,-0.002231,-0.004026,0.091553,0.030518,0.000000
5.662776,-0.024549,0.822689,10.021360,-0.002262,-0.003428,-0.004625,0.091553,0.030518,-0.061035
5.672920,-0.020956,0.826880,10.026151,0.001330,0.000763,0.000165,0.091553,0.061035,-0.030518
5.683010,-0.021555,0.828078,10.019564,0.000732,0.001960,-0.006421,0.091553,0.061035,0.000000
5.693100,-0.024549,0.828078,10.015972,-0.002262,0.001960,-0.010014,0.061035,0.061035,-0.030518
5.703191,-0.021555,0.831072,10.014175,0.000732,0.004954,-0.011810,0.091553,0.030518,0.000000
5.713283,-0.019759,0.831671,10.017768,0.002528,0.005553,-0.008217,0.091553,0.030518,0.000000
5.723372,-0.019160,0.831671,10.023755,0.003127,0.005553,-0.002230,0.091553,0.030518,0.000000
5.733542,-0.019759,0.830473,10.014175,0.002528,0.004355,-0.011810,0.030518,0.030518,0.000000
5.743636,-0.020956,0.826880,10.015972,0.001330,0.000763,-0.010014,0.030518,0.061035,0.000000
5.753730,-0.016166,0.832868,10.017768,0.006120,0.006750,-0.008217,0.030518,0.091553,0.000000
5.763840,-0.016166,0.831671,10.027348,0.006120,0.005553,0.001363,0.030518,0.091553,0.000000
5.773939,-0.012574,0.827479,10.027348,0.009713,0.001362,0.001363,0.030518,0.061035,0.000000
5.784036,-0.013771,0.823887,10.026749,0.008515,-0.002231,0.000764,0.091553,0.030518,0.000000
5.794133,-0.019759,0.828677,10.032737,0.002528,0.002559,0.006752,0.091553,0.030518,0.030518
5.804229,-0.016166,0.829276,10.032737,0.006120,0.003158,0.006752,0.030518,0.061035,0.030518
5.814326,-0.014370,0.818498,10.036928,0.007917,-0.007620,0.010943,0.030518,0.030518,0.000000
5.824423,-0.013771,0.822689,10.042916,0.008515,-0.003428,0.016930,0.030518,0.030518,0.000000
5.834610,-0.015568,0.824485,10.035132,0.006719,-0.001632,0.009147,0.030518,0.030518,0.000000
5.844699,-0.019759,0.826282,10.033934,0.002528,0.000164,0.007949,0.030518,0.030518,0.030518
5.854789,-0.026345,0.828677,10.027348,-0.004058,0.002559,0.001363,0.030518,0.061035,0.030518
5.864881,-0.028141,0.829874,10.026151,-0.005855,0.003757,0.000165,0.030518,0.061035,0.030518
5.874973,-0.023950,0.828677,10.031539,-0.001663,0.002559,0.005554,0.030518,0.030518,0.030518
5.885062,-0.024549,0.828078,10.023755,-0.002262,0.001960,-0.002230,0.000000,0.030518,0.000000
5.895152,-0.026345,0.825683,10.026151,-0.004058,-0.000435,0.000165,0.000000,0.061035,0.030518
5.905243,-0.031734,0.834066,10.024354,-0.009447,0.007948,-0.001631,0.000000,0.030518,0.030518
5.915334,-0.024549,0.834066,10.030342,-0.002262,0.007948,0.004357,0.000000,0.061035,0.030518
5.925423,-0.027543,0.831072,10.035132,-0.005256,0.004954,0.009147,0.030518,0.061035,0.030518
5.935513,-0.026345,0.828677,10.035132,-0.004058,0.002559,0.009147,0.030518,0.061035,0.030518
5.945607,-0.025148,0.830473,10.031539,-0.002861,0.004355,0.005554,0.000000,0.030518,0.030518
5.955701,-0.029339,0.825683,10.027947,-0.007052,-0.000435,0.001962,0.000000,0.030518,0.030518
5.965798,-0.028141,0.820893,10.033934,-0.005855,-0.005225,0.007949,0.000000,0.030518,0.000000
5.975893,-0.030536,0.825683,10.032737,-0.008250,-0.000435,0.006752,0.000000,0.061035,0.000000
5.985990,-0.029938,0.822090,10.030342,-0.007651,-0.004027,0.004357,0.000000,0.061035,0.000000
5.996082,-0.023950,0.817300,10.030342,-0.001663,-0.008817,0.004357,0.061035,0.061035,0.000000
6.006179,-0.032932,0.817899,10.026151,-0.010645,-0.008219,0.000165,0.030518,0.061035,0.000000
6.016275,-0.029339,0.821492,10.029144,-0.007052,-0.004626,0.003159,0.030518,0.091553,0.000000
6.026372,-0.021555,0.829874,10.039922,0.000732,0.003757,0.013937,0.030518,0.061035,0.000000
6.036502,-0.022154,0.831072,10.034533,0.000133,0.004954,0.008548,0.030518,0.061035,0.000000
6.046599,-0.016765,0.832868,10.023755,0.005522,0.006750,-0.002230,0.030518,0.030518,0.000000
6.056696,-0.017963,0.833467,10.014175,0.004324,0.007349,-0.011810,0.061035,0.061035,0.000000
6.066793,-0.014969,0.822090,10.018965,0.007318,-0.004027,-0.007020,0.030518,0.061035,0.030518
6.076889,-0.021555,0.819695,10.023157,0.000732,-0.006422,-0.002829,0.030518,0.061035,0.030518
6.086984,-0.018561,0.817899,10.023157,0.003725,-0.008219,-0.002829,0.061035,0.061035,0.000000
6.097080,-0.025148,0.813708,10.018965,-0.002861,-0.012410,-0.007020,0.061035,0.061035,0.000000
6.107176,-0.023950,0.816702,10.012379,-0.001663,-0.009416,-0.013606,0.061035,0.061035,0.030518
6.117272,-0.014969,0.819695,10.022558,0.007318,-0.006422,-0.003427,0.030518,0.030518,0.030518
6.127384,-0.014969,0.819097,10.026749,0.007318,-0.007021,0.000764,0.030518,0.030518,0.030518
6.137617,-0.014370,0.828078,10.025552,0.007917,0.001960,-0.000433,0.030518,0.030518,0.000000
6.147707,-0.014969,0.830473,10.020163,0.007318,0.004355,-0.005822,0.000000,0.030518,0.000000
6.157796,-0.010179,0.827479,10.024354,0.012108,0.001362,-0.001631,0.030518,0.030518,-0.030518
6.167886,-0.015568,0.826282,10.030941,0.006719,0.000164,0.004955,0.061035,0.000000,-0.030518
6.177977,-0.015568,0.829874,10.021360,0.006719,0.003757,-0.004625,0.061035,0.030518,-0.030518
6.188067,-0.026944,0.834066,10.018367,-0.004657,0.007948,-0.007619,0.000000,0.030518,0.000000
6.198156,-0.030536,0.835862,10.017768,-0.008250,0.009744,-0.008217,0.000000,0.030518,0.030518
6.208245,-0.025148,0.831671,10.023755,-0.002861,0.005553,-0.002230,0.061035,0.030518,0.030518
6.218822,-0.020956,0.826880,10.030342,0.001330,0.000763,0.004357,0.030518,0.030518,0.030518
6.228948,-0.017963,0.824485,10.031539,0.004324,-0.001632,0.005554,0.000000,0.000000,0.000000
6.239084,-0.019759,0.833467,10.024953,0.002528,0.007349,-0.001032,0.000000,0.030518,0.030518
6.249174,-0.019759,0.832269,10.021959,0.002528,0.006152,-0.004026,0.000000,0.030518,-0.030518
6.259273,-0.024549,0.831671,10.021360,-0.002262,0.005553,-0.004625,0.030518,0.030518,-0.030518
6.269360,-0.027543,0.830473,10.031539,-0.005256,0.004355,0.005554,0.030518,0.000000,0.000000
6.279450,-0.028740,0.825084,10.027947,-0.006453,-0.001033,0.001962,0.030518,0.000000,0.000000
6.289540,-0.026345,0.825084,10.031539,-0.004058,-0.001033,0.005554,0.030518,0.000000,0.030518
6.299628,-0.024549,0.827479,10.024953,-0.002262,0.001362,-0.001032,0.030518,0.030518,0.061035
6.309718,-0.023351,0.834066,10.029144,-0.001065,0.007948,0.003159,0.061035,0.030518,0.061035
6.319808,-0.022753,0.829874,10.036329,-0.000466,0.003757,0.010344,0.030518,0.030518,0.030518
6.329907,-0.027543,0.830473,10.032138,-0.005256,0.004355,0.006153,0.030518,0.030518,0.030518
6.339999,-0.029339,0.820893,10.025552,-0.007052,-0.005225,-0.000433,0.030518,0.030518,0.030518
6.350093,-0.020956,0.831072,10.024354,0.001330,0.004954,-0.001631,-0.030518,0.061035,0.030518
6.360187,-0.019160,0.829276,10.028546,0.003127,0.003158,0.002560,-0.061035,0.061035,0.061035
6.370285,-0.014370,0.831671,10.027947,0.007917,0.005553,0.001962,-0.030518,0.030518,0.030518
6.380381,-0.017963,0.823887,10.028546,0.004324,-0.002231,0.002560,-0.030518,0.000000,0.030518
6.390480,-0.014969,0.828677,10.023157,0.007318,0.002559,-0.002829,-0.030518,0.030518,0.061035
6.400575,-0.016166,0.828677,10.021360,0.006120,0.002559,-0.004625,0.000000,0.030518,0.061035
6.410672,-0.015568,0.829276,10.029743,0.006719,0.003158,0.003758,0.030518,0.000000,0.030518
6.420768,-0.013771,0.829276,10.036329,0.008515,0.003158,0.010344,0.030518,0.000000,0.000000
6.430865,-0.014370,0.827479,10.038126,0.007917,0.001362,0.012140,0.030518,-0.030518,0.000000
6.440988,-0.020358,0.826880,10.030342,0.001929,0.000763,0.004357,0.091553,0.030518,0.000000
6.451085,-0.018561,0.822689,10.023157,0.003725,-0.003428,-0.002829,0.061035,0.000000,0.030518
6.461185,-0.010179,0.823887,10.024953,0.012108,-0.002231,-0.001032,0.030518,0.030518,0.030518
6.471281,-0.012574,0.820294,10.023755,0.009713,-0.005823,-0.002230,0.061035,0.030518,0.000000
6.481409,-0.008981,0.817899,10.023157,0.013306,-0.008219,-0.002829,0.061035,0.061035,-0.030518
6.491510,-0.015568,0.820893,10.020762,0.006719,-0.005225,-0.005224,0.061035,0.030518,-0.030518
6.501605,-0.022154,0.824485,10.017768,0.000133,-0.001632,-0.008217,0.061035,0.030518,-0.030518
6.511700,-0.020358,0.827479,10.020762,0.001929,0.001362,-0.005224,0.030518,0.030518,0.000000
6.521796,-0.022154,0.829276,10.017768,0.000133,0.003158,-0.008217,0.030518,0.000000,0.000000
6.531979,-0.021555,0.827479,10.020163,0.000732,0.001362,-0.005822,0.030518,0.000000,-0.030518
6.542180,-0.025148,0.829276,10.015972,-0.002861,0.003158,-0.010014,0.030518,0.030518,0.000000
6.552268,-0.026345,0.829276,10.015972,-0.004058,0.003158,-0.010014,0.030518,0.030518,0.000000
6.562371,-0.019759,0.823887,10.020163,0.002528,-0.002231,-0.005822,0.030518,0.000000,0.030518
6.572462,-0.022753,0.823288,10.023755,-0.000466,-0.002830,-0.002230,0.000000,-0.030518,0.061035
6.582552,-0.029339,0.814307,10.018367,-0.007052,-0.011811,-0.007619,0.000000,0.030518,0.061035
6.592642,-0.029938,0.814905,10.017169,-0.007651,-0.011212,-0.008816,0.061035,0.030518,0.030518
6.602731,-0.029339,0.819695,10.011780,-0.007052,-0.006422,-0.014205,0.000000,0.000000,-0.030518
6.612821,-0.026345,0.820893,10.019564,-0.004058,-0.005225,-0.006421,0.000000,0.000000,-0.030518
6.622911,-0.029938,0.821492,10.026749,-0.007651,-0.004626,0.000764,0.000000,0.000000,0.030518
6.633000,-0.028740,0.826880,10.023755,-0.006453,0.000763,-0.002230,0.000000,0.030518,0.000000
6.643162,-0.025148,0.828078,10.026151,-0.002861,0.001960,0.000165,0.000000,0.061035,0.000000
6.653259,-0.022753,0.825084,10.020762,-0.000466,-0.001033,-0.005224,0.030518,0.030518,0.000000
6.663368,-0.025746,0.823288,10.027348,-0.003460,-0.002830,0.001363,0.000000,0.061035,0.030518
6.673465,-0.033530,0.814307,10.030941,-0.011243,-0.011811,0.004955,0.061035,0.061035,0.030518
6.683561,-0.032333,0.815504,10.026749,-0.010046,-0.010614,0.000764,0.091553,0.061035,0.030518
6.693658,-0.027543,0.823887,10.021360,-0.005256,-0.002231,-0.004625,0.061035,0.061035,0.061035
6.703756,-0.021555,0.826880,10.021959,0.000732,0.000763,-0.004026,0.091553,0.091553,0.030518
6.713852,-0.017364,0.827479,10.035731,0.004923,0.001362,0.009745,0.061035,0.061035,0.000000
6.723948,-0.022753,0.821492,10.034533,-0.000466,-0.004626,0.008548,0.030518,0.061035,0.000000
6.734052,-0.022154,0.820294,10.028546,0.000133,-0.005823,0.002560,0.000000,0.030518,-0.030518
6.744234,-0.014370,0.823887,10.019564,0.007917,-0.002231,-0.006421,0.030518,0.000000,0.000000
6.754323,-0.016765,0.827479,10.012978,0.005522,0.001362,-0.013007,0.061035,0.030518,-0.030518
6.764424,-0.012574,0.824485,10.018367,0.009713,-0.001632,-0.007619,0.061035,0.091553,0.000000
6.774516,-0.013771,0.831072,10.026151,0.008515,0.004954,0.000165,0.091553,0.061035,0.000000
6.784607,-0.012574,0.829874,10.024953,0.009713,0.003757,-0.001032,0.030518,0.061035,0.000000
6.794697,-0.010778,0.827479,10.026749,0.011509,0.001362,0.000764,0.030518,0.091553,0.000000
6.804787,-0.016765,0.826282,10.024953,0.005522,0.000164,-0.001032,0.030518,0.091553,0.000000
6.814877,-0.017963,0.825683,10.031539,0.004324,-0.000435,0.005554,0.000000,0.061035,-0.030518
6.824967,-0.014969,0.825084,10.029144,0.007318,-0.001033,0.003159,0.000000,0.061035,0.000000
6.835053,-0.019759,0.813708,10.023755,0.002528,-0.012410,-0.002230,0.000000,0.030518,-0.030518
6.845212,-0.020956,0.811313,10.029144,0.001330,-0.014805,0.003159,0.000000,0.061035,0.000000
6.855309,-0.025746,0.820893,10.029144,-0.003460,-0.005225,0.003159,0.030518,0.061035,-0.030518
6.865451,-0.023950,0.820294,10.029144,-0.001663,-0.005823,0.003159,0.030518,0.030518,-0.091553
6.875546,-0.022753,0.817899,10.021959,-0.000466,-0.008219,-0.004026,0.030518,0.000000,-0.091553
6.885648,-0.025746,0.816103,10.011780,-0.003460,-0.010015,-0.014205,0.030518,0.000000,-0.061035
6.895742,-0.023950,0.828078,10.015972,-0.001663,0.001960,-0.010014,0.000000,0.030518,-0.061035
6.905839,-0.028141,0.828078,10.009984,-0.005855,0.001960,-0.016001,0.061035,0.030518,-0.030518
6.915935,-0.028141,0.822689,10.020163,-0.005855,-0.003428,-0.005822,0.061035,0.030518,-0.030518
6.926029,-0.025148,0.822090,10.039323,-0.002861,-0.004027,0.013338,0.030518,0.030518,0.000000
6.936424,-0.024549,0.823887,10.042916,-0.002262,-0.002231,0.016930,0.030518,0.000000,-0.030518
6.946614,-0.023950,0.829276,10.027348,-0.001663,0.003158,0.001363,0.030518,0.000000,-0.030518
6.956706,-0.017364,0.839454,10.023755,0.004923,0.013337,-0.002230,0.030518,0.000000,-0.030518
6.966803,-0.019759,0.836461,10.033336,0.002528,0.010343,0.007350,0.030518,0.000000,0.000000
6.976893,-0.020956,0.834664,10.024953,0.001330,0.008547,-0.001032,0.030518,0.000000,0.000000
6.986984,-0.022753,0.825683,10.024953,-0.000466,-0.000435,-0.001032,0.030518,0.000000,0.030518
6.997074,-0.023351,0.828078,10.023755,-0.001065,0.001960,-0.002230,0.030518,0.000000,0.030518
7.007163,-0.028141,0.832269,10.012379,-0.005855,0.006152,-0.013606,0.000000,-0.030518,0.061035
7.017265,-0.018561,0.834066,10.028546,0.003725,0.007948,0.002560,0.000000,0.030518,0.030518
7.027357,-0.020358,0.835263,10.027947,0.001929,0.009145,0.001962,-0.061035,0.061035,0.000000
7.037447,-0.025746,0.831072,10.022558,-0.003460,0.004954,-0.003427,-0.030518,0.061035,0.000000
7.047573,-0.021555,0.836461,10.011182,0.000732,0.010343,-0.014804,-0.030518,0.061035,0.030518
7.057663,-0.014370,0.839454,10.014774,0.007917,0.013337,-0.011211,-0.030518,0.091553,0.030518
7.067756,-0.019160,0.835862,10.032737,0.003127,0.009744,0.006752,0.030518,0.091553,-0.030518
7.077845,-0.022154,0.831072,10.027348,0.000133,0.004954,0.001363,0.000000,0.030518,-0.030518
7.087935,-0.020956,0.832269,10.021360,0.001330,0.006152,-0.004625,0.030518,0.030518,-0.030518
7.098032,-0.019759,0.826282,10.021360,0.002528,0.000164,-0.004625,0.030518,0.000000,-0.030518
7.108159,-0.025148,0.827479,10.017768,-0.002861,0.001362,-0.008217,0.030518,0.000000,-0.030518
7.118252,-0.026345,0.823288,10.029743,-0.004058,-0.002830,0.003758,0.030518,0.000000,-0.030518
7.128359,-0.029339,0.822090,10.030342,-0.007052,-0.004027,0.004357,0.030518,0.030518,0.000000
7.138451,-0.024549,0.826282,10.016570,-0.002262,0.000164,-0.009415,0.030518,0.030518,0.030518
7.148637,-0.028141,0.832269,10.016570,-0.005855,0.006152,-0.009415,0.000000,0.030518,0.030518
7.158721,-0.031135,0.829874,10.021360,-0.008848,0.003757,-0.004625,0.030518,0.030518,-0.030518
7.168806,-0.029339,0.824485,10.021959,-0.007052,-0.001632,-0.004026,0.030518,0.030518,0.000000
7.178892,-0.025148,0.829276,10.020762,-0.002861,0.003158,-0.005224,0.030518,0.000000,0.000000
7.188976,-0.022753,0.835263,10.019564,-0.000466,0.009145,-0.006421,0.030518,0.000000,0.030518
7.199061,-0.023351,0.833467,10.018367,-0.001065,0.007349,-0.007619,0.061035,0.000000,0.000000
7.209146,-0.023351,0.834664,10.026151,-0.001065,0.008547,0.000165,0.061035,0.030518,0.000000
7.219230,-0.032932,0.832868,10.027947,-0.010645,0.006750,0.001962,0.030518,0.000000,0.000000
7.229315,-0.034728,0.835862,10.025552,-0.012441,0.009744,-0.000433,-0.030518,0.030518,0.000000
7.239400,-0.032333,0.841251,10.020163,-0.010046,0.015133,-0.005822,0.000000,0.030518,0.000000
7.249556,-0.032932,0.841849,10.022558,-0.010645,0.015732,-0.003427,0.030518,0.061035,0.000000
7.259652,-0.028141,0.834664,10.029743,-0.005855,0.008547,0.003758,0.030518,0.030518,-0.030518
7.269748,-0.023351,0.832269,10.030342,-0.001065,0.006152,0.004357,0.061035,0.030518,-0.061035
7.279843,-0.016166,0.829276,10.033336,0.006120,0.003158,0.007350,0.061035,0.030518,-0.030518
7.289939,-0.016765,0.831072,10.028546,0.005522,0.004954,0.002560,0.030518,0.030518,-0.030518
7.300035,-0.022753,0.830473,10.030941,-0.000466,0.004355,0.004955,0.000000,0.061035,-0.030518
7.310127,-0.029339,0.828078,10.033336,-0.007052,0.001960,0.007350,0.030518,0.061035,-0.030518
7.320222,-0.028141,0.826880,10.032138,-0.005855,0.000763,0.006153,-0.030518,0.061035,0.030518
7.330314,-0.029938,0.833467,10.026749,-0.007651,0.007349,0.000764,0.000000,0.030518,0.061035
7.340410,-0.029339,0.831072,10.024953,-0.007052,0.004954,-0.001032,0.000000,0.061035,0.061035
7.350560,-0.018561,0.822689,10.025552,0.003725,-0.003428,-0.000433,-0.030518,0.091553,0.061035
7.360664,-0.020358,0.824485,10.031539,0.001929,-0.001632,0.005554,-0.030518,0.091553,0.061035
7.370762,-0.020956,0.832868,10.038126,0.001330,0.006750,0.012140,0.000000,0.061035,0.061035
7.380860,-0.018561,0.833467,10.028546,0.003725,0.007349,0.002560,0.030518,0.061035,0.030518
7.390959,-0.017364,0.838856,10.027348,0.004923,0.012738,0.001363,0.030518,0.061035,0.000000
7.401055,-0.009580,0.841849,10.021959,0.012707,0.015732,-0.004026,0.030518,0.061035,0.000000
7.411145,-0.010778,0.837059,10.024953,0.011509,0.010942,-0.001032,0.061035,0.030518,0.000000
7.421243,-0.017963,0.829874,10.024354,0.004324,0.003757,-0.001631,0.061035,0.000000,0.000000
7.431341,-0.020358,0.828677,10.025552,0.001929,0.002559,-0.000433,0.061035,0.030518,0.000000
7.441437,-0.023950,0.829276,10.017768,-0.001663,0.003158,-0.008217,0.061035,0.000000,0.030518
7.451636,-0.022154,0.825084,10.018367,0.000133,-0.001033,-0.007619,0.061035,0.000000,0.030518
7.461726,-0.025746,0.826282,10.034533,-0.003460,0.000164,0.008548,0.030518,0.030518,0.000000
7.471819,-0.025746,0.826880,10.032138,-0.003460,0.000763,0.006153,0.061035,0.030518,0.030518
7.481908,-0.024549,0.826880,10.024354,-0.002262,0.000763,-0.001631,0.030518,0.030518,0.000000
7.491999,-0.025746,0.820893,10.027947,-0.003460,-0.005225,0.001962,0.061035,0.061035,-0.030518
7.502090,-0.027543,0.819097,10.026151,-0.005256,-0.007021,0.000165,0.030518,0.030518,0.000000
7.512180,-0.028740,0.816702,10.034533,-0.006453,-0.009416,0.008548,0.061035,0.030518,0.000000
7.522270,-0.025746,0.820893,10.031539,-0.003460,-0.005225,0.005554,0.030518,0.030518,0.000000
7.532370,-0.017364,0.829276,10.024953,0.004923,0.003158,-0.001032,0.030518,0.091553,0.000000
7.542456,-0.013771,0.829276,10.024953,0.008515,0.003158,-0.001032,0.061035,0.091553,-0.030518
7.552575,-0.010179,0.825683,10.027348,0.012108,-0.000435,0.001363,0.061035,0.061035,0.000000
7.562665,-0.017364,0.820893,10.038724,0.004923,-0.005225,0.012739,0.000000,0.091553,0.000000
7.572756,-0.019160,0.826282,10.037527,0.003127,0.000164,0.011542,0.030518,0.091553,0.030518
7.582974,-0.019160,0.827479,10.034533,0.003127,0.001362,0.008548,0.030518,0.030518,0.000000
7.593064,-0.013771,0.824485,10.031539,0.008515,-0.001632,0.005554,0.030518,0.061035,0.030518
7.603153,-0.019160,0.823288,10.029144,0.003127,-0.002830,0.003159,0.000000,0.061035,-0.030518
7.613243,-0.017364,0.823288,10.032737,0.004923,-0.002830,0.006752,0.030518,0.030518,0.000000
7.623332,-0.016166,0.825683,10.027947,0.006120,-0.000435,0.001962,0.030518,0.061035,-0.030518
7.633422,-0.014370,0.823288,10.023755,0.007917,-0.002830,-0.002230,0.030518,0.091553,-0.030518
7.643511,-0.013173,0.827479,10.025552,0.009114,0.001362,-0.000433,0.000000,0.091553,-0.030518
7.653682,-0.014969,0.826880,10.021959,0.007318,0.000763,-0.004026,0.000000,0.091553,-0.030518
7.663793,-0.017963,0.826282,10.030941,0.004324,0.000164,0.004955,0.000000,0.091553,-0.030518
7.673890,-0.022154,0.824485,10.020762,0.000133,-0.001632,-0.005224,0.000000,0.091553,0.000000
7.683986,-0.020956,0.826282,10.023157,0.001330,0.000164,-0.002829,-0.030518,0.061035,0.000000
7.694082,-0.031135,0.825683,10.018965,-0.008848,-0.000435,-0.007020,0.000000,0.061035,0.000000
7.704178,-0.027543,0.824485,10.016570,-0.005256,-0.001632,-0.009415,0.030518,0.030518,0.000000
7.714274,-0.029339,0.817899,10.019564,-0.007052,-0.008219,-0.006421,0.030518,0.061035,0.030518
7.724370,-0.030536,0.814307,10.013577,-0.008250,-0.011811,-0.012409,0.030518,0.030518,0.000000
7.734474,-0.028740,0.809517,10.009385,-0.006453,-0.016601,-0.016600,0.000000,0.030518,0.030518
7.744565,-0.026944,0.809517,10.012978,-0.004657,-0.016601,-0.013007,0.000000,0.061035,0.030518
7.754752,-0.028141,0.807122,10.012379,-0.005855,-0.018996,-0.013606,0.030518,0.061035,0.000000
7.764853,-0.032333,0.816103,10.017768,-0.010046,-0.010015,-0.008217,-0.030518,0.000000,0.000000
7.774944,-0.038919,0.819097,10.021360,-0.016632,-0.007021,-0.004625,-0.061035,-0.030518,0.030518
7.785033,-0.037123,0.825084,10.018965,-0.014836,-0.001033,-0.007020,0.000000,0.030518,0.030518
7.795121,-0.036524,0.821492,10.013577,-0.014237,-0.004626,-0.012409,0.000000,0.030518,0.030518
7.805211,-0.035327,0.817899,10.008188,-0.013040,-0.008219,-0.017797,0.000000,0.030518,0.000000
7.815301,-0.028740,0.827479,10.021360,-0.006453,0.001362,-0.004625,0.000000,0.030518,-0.030518
7.825390,-0.020956,0.830473,10.021360,0.001330,0.004355,-0.004625,0.030518,0.030518,0.000000
7.835479,-0.017963,0.837658,10.026151,0.004324,0.011540,0.000165,0.000000,0.030518,-0.030518
7.845569,-0.018561,0.834066,10.024953,0.003725,0.007948,-0.001032,0.000000,0.030518,-0.030518
7.855733,-0.018561,0.830473,10.026151,0.003725,0.004355,0.000165,-0.030518,0.061035,-0.030518
7.865844,-0.021555,0.829276,10.025552,0.000732,0.003158,-0.000433,-0.030518,0.091553,-0.030518
7.875942,-0.020956,0.826880,10.021360,0.001330,0.000763,-0.004625,0.000000,0.091553,-0.030518
7.886039,-0.020358,0.831072,10.021959,0.001929,0.004954,-0.004026,0.000000,0.061035,0.000000
7.896147,-0.023351,0.836461,10.020762,-0.001065,0.010343,-0.005224,0.000000,0.061035,0.030518
7.906244,-0.022753,0.836461,10.027348,-0.000466,0.010343,0.001363,-0.030518,0.061035,0.061035
7.916341,-0.019160,0.834664,10.026749,0.003127,0.008547,0.000764,-0.030518,0.061035,0.030518
7.926436,-0.019160,0.829874,10.022558,0.003127,0.003757,-0.003427,0.000000,0.030518,0.000000
7.936528,-0.007784,0.834066,10.020163,0.014503,0.007948,-0.005822,0.000000,0.030518,-0.030518
7.946619,-0.011975,0.834664,10.023755,0.010312,0.008547,-0.002230,-0.030518,0.061035,0.000000
7.956711,-0.014370,0.833467,10.030342,0.007917,0.007349,0.004357,-0.030518,0.030518,0.000000
7.966817,-0.023351,0.825084,10.036329,-0.001065,-0.001033,0.010344,-0.030518,0.000000,0.000000
7.976981,-0.023950,0.817899,10.032138,-0.001663,-0.008219,0.006153,-0.061035,0.000000,0.000000
7.987502,-0.029938,0.818498,10.029743,-0.007651,-0.007620,0.003758,0.000000,0.000000,0.000000
7.997596,-0.019759,0.819097,10.020163,0.002528,-0.007021,-0.005822,0.000000,0.030518,0.000000
8.007686,-0.025746,0.822090,10.019564,-0.003460,-0.004027,-0.006421,-0.030518,0.030518,-0.030518
8.017776,-0.024549,0.825683,10.021360,-0.002262,-0.000435,-0.004625,0.030518,0.061035,-0.030518
8.027899,-0.021555,0.822689,10.020163,0.000732,-0.003428,-0.005822,0.030518,0.030518,-0.030518
8.037990,-0.029339,0.828078,10.017768,-0.007052,0.001960,-0.008217,0.030518,0.030518,0.030518
8.048079,-0.033530,0.829276,10.015972,-0.011243,0.003158,-0.010014,0.030518,0.061035,0.030518
8.058266,-0.038320,0.831072,10.020163,-0.016033,0.004954,-0.005822,0.061035,0.061035,0.000000
8.068364,-0.043709,0.831671,10.022558,-0.021422,0.005553,-0.003427,0.061035,0.091553,0.000000
8.078451,-0.038320,0.838856,10.014774,-0.016033,0.012738,-0.011211,0.030518,0.061035,0.000000
8.088536,-0.036524,0.838257,10.012379,-0.014237,0.012139,-0.013606,0.000000,0.061035,0.030518
8.098621,-0.028740,0.835862,10.015972,-0.006453,0.009744,-0.010014,0.000000,0.061035,0.000000
8.108707,-0.025746,0.835862,10.024354,-0.003460,0.009744,-0.001631,-0.030518,0.091553,-0.061035
8.118793,-0.027543,0.837658,10.024953,-0.005256,0.011540,-0.001032,0.030518,0.061035,-0.061035
8.128889,-0.026944,0.840053,10.025552,-0.004657,0.013935,-0.000433,0.030518,0.030518,-0.061035
8.138974,-0.022154,0.838257,10.020762,0.000133,0.012139,-0.005224,0.030518,0.030518,-0.061035
8.149057,-0.018561,0.831072,10.019564,0.003725,0.004954,-0.006421,0.030518,0.030518,-0.030518
8.159225,-0.025746,0.825084,10.025552,-0.003460,-0.001033,-0.000433,0.030518,0.030518,0.000000
8.169314,-0.023351,0.824485,10.026151,-0.001065,-0.001632,0.000165,0.061035,0.061035,-0.030518
8.179403,-0.024549,0.820893,10.021360,-0.002262,-0.005225,-0.004625,0.030518,0.061035,-0.030518
8.189493,-0.022154,0.822689,10.023755,0.000133,-0.003428,-0.002230,0.030518,0.061035,-0.030518
8.199582,-0.025148,0.820294,10.028546,-0.002861,-0.005823,0.002560,0.030518,0.030518,-0.030518
8.209669,-0.031734,0.824485,10.036928,-0.009447,-0.001632,0.010943,0.030518,0.061035,-0.030518
8.219758,-0.029938,0.828677,10.033934,-0.007651,0.002559,0.007949,0.030518,0.061035,-0.030518
8.229860,-0.027543,0.832868,10.029144,-0.005256,0.006750,0.003159,0.030518,0.061035,-0.030518
8.239955,-0.021555,0.826282,10.024354,0.000732,0.000164,-0.001631,0.030518,0.061035,0.000000
8.250046,-0.020956,0.832868,10.021360,0.001330,0.006750,-0.004625,0.030518,0.030518,-0.030518
8.260135,-0.024549,0.832269,10.024953,-0.002262,0.006152,-0.001032,0.030518,0.061035,-0.061035
8.270227,-0.014969,0.834664,10.024953,0.007318,0.008547,-0.001032,0.030518,0.030518,-0.030518
8.280317,-0.007784,0.828078,10.014774,0.014503,0.001960,-0.011211,0.061035,0.030518,-0.030518
8.290407,-0.007784,0.822090,10.015972,0.014503,-0.004027,-0.010014,0.030518,0.000000,-0.030518
8.300498,-0.014370,0.824485,10.024354,0.007917,-0.001632,-0.001631,0.030518,0.000000,-0.061035
8.310587,-0.022753,0.827479,10.032737,-0.000466,0.001362,0.006752,0.030518,0.030518,-0.061035
8.320676,-0.020358,0.823288,10.025552,0.001929,-0.002830,-0.000433,0.061035,0.000000,-0.030518
8.330781,-0.023351,0.819695,10.025552,-0.001065,-0.006422,-0.000433,0.030518,0.000000,-0.030518
8.340884,-0.029339,0.818498,10.022558,-0.007052,-0.007620,-0.003427,0.000000,0.000000,-0.030518
8.350968,-0.026345,0.820893,10.028546,-0.004058,-0.005225,0.002560,0.030518,0.000000,0.000000
8.361093,-0.025746,0.822689,10.030342,-0.003460,-0.003428,0.004357,0.030518,0.000000,0.000000
8.371185,-0.020358,0.820893,10.020163,0.001929,-0.005225,-0.005822,0.030518,0.030518,0.000000
8.381274,-0.020358,0.812510,10.030342,0.001929,-0.013607,0.004357,0.000000,0.030518,0.000000
8.391365,-0.017364,0.814905,10.019564,0.004923,-0.011212,-0.006421,0.000000,0.061035,-0.030518
8.401455,-0.020956,0.816702,10.012379,0.001330,-0.009416,-0.013606,0.030518,0.030518,-0.030518
8.411545,-0.014370,0.821492,10.030941,0.007917,-0.004626,0.004955,0.000000,0.091553,-0.030518
8.421634,-0.017963,0.824485,10.027348,0.004324,-0.001632,0.001363,0.000000,0.091553,-0.030518
8.431724,-0.019759,0.819695,10.023157,0.002528,-0.006422,-0.002829,-0.030518,0.030518,-0.091553
8.441814,-0.021555,0.817899,10.028546,0.000732,-0.008219,0.002560,0.000000,0.061035,-0.061035
8.451902,-0.024549,0.816702,10.027348,-0.002262,-0.009416,0.001363,0.000000,0.030518,-0.091553
8.462069,-0.029938,0.822689,10.033336,-0.007651,-0.003428,0.007350,-0.030518,0.030518,-0.030518
8.472167,-0.031135,0.826282,10.026749,-0.008848,0.000164,0.000764,0.000000,0.030518,-0.030518
8.482280,-0.026345,0.822090,10.017169,-0.004058,-0.004027,-0.008816,0.000000,0.030518,0.000000
8.492379,-0.022753,0.822090,10.012379,-0.000466,-0.004027,-0.013606,0.000000,0.000000,0.000000
8.502476,-0.024549,0.823887,10.011182,-0.002262,-0.002231,-0.014804,0.030518,-0.061035,-0.030518
8.512572,-0.014969,0.819695,10.032737,0.007318,-0.006422,0.006752,0.091553,-0.061035,0.000000
8.522668,-0.009580,0.827479,10.024354,0.012707,0.001362,-0.001631,0.213623,-0.091553,0.030518
8.532774,0.031135,1.058000,9.659713,0.053422,0.231882,-0.366273,-0.549316,0.244141,0.061035
8.542884,0.128732,1.259182,9.338181,0.151019,0.433064,-0.687804,-6.713867,1.922607,0.030518
8.552975,0.005389,0.820294,9.875264,0.027676,-0.005823,-0.150721,-13.488770,4.608154,1.190186
8.563169,-0.119152,0.575403,10.118359,-0.096865,-0.250714,0.092374,-11.077881,3.479004,1.708984
8.573257,-0.060474,0.528102,10.155482,-0.038187,-0.298016,0.129496,-6.896973,2.197266,3.051758
8.583347,-0.030536,0.475411,10.141111,-0.008250,-0.350706,0.115126,-5.432129,1.953125,5.065918
8.593437,-0.023351,0.431104,10.142309,-0.001065,-0.395014,0.116324,-3.173828,1.983643,11.444092
8.603527,-0.025148,0.431104,10.087822,-0.002861,-0.395014,0.061837,-2.410889,2.075195,15.167236
8.613616,-0.040715,0.481998,10.083631,-0.018428,-0.344120,0.057646,-1.739502,2.258301,18.341064
8.623706,-0.051493,0.582589,10.051897,-0.029206,-0.243529,0.025912,-0.885010,2.502441,22.583008
8.633795,-0.043709,0.607736,10.047107,-0.021422,-0.218381,0.021122,-0.427246,2.502441,23.803711
8.643884,-0.080233,0.713117,10.030941,-0.057946,-0.113001,0.004955,-0.152588,2.441406,24.414062
8.653974,-0.086221,0.746049,10.039922,-0.063934,-0.080069,0.013937,-0.091553,2.380371,23.529053
8.664125,-0.055085,0.764011,10.057885,-0.032799,-0.062106,0.031899,-0.122070,2.166748,21.362305
8.674223,-0.025148,0.723296,10.044712,-0.002861,-0.102822,0.018727,0.122070,2.197266,20.996094
8.684318,-0.028141,0.693358,10.043514,-0.005855,-0.132760,0.017529,0.091553,2.197266,21.392822
8.694414,-0.034728,0.629291,10.036928,-0.012441,-0.196826,0.010943,0.152588,2.349854,23.681641
8.704508,-0.030536,0.606539,10.041718,-0.008250,-0.219579,0.015733,0.030518,2.441406,25.634766
8.714621,-0.029339,0.607137,10.055490,-0.007052,-0.218980,0.029504,0.244141,2.716064,29.235840
8.724719,-0.023950,0.637674,10.070458,-0.001663,-0.188444,0.044473,0.610352,3.112793,30.670166
8.734823,-0.035925,0.638273,10.042317,-0.013638,-0.187845,0.016332,-0.701904,3.448486,34.118652
8.744914,-0.064067,0.780178,10.021360,-0.041780,-0.045940,-0.004625,-2.166748,3.234863,35.247803
8.755105,-0.055085,0.833467,10.027947,-0.032799,0.007349,0.001962,-3.906250,3.021240,35.369873
8.765222,-0.065863,0.871787,10.039922,-0.043576,0.045669,0.013937,-4.882812,2.746582,31.921387
8.775313,-0.074246,0.897534,10.020762,-0.051959,0.071416,-0.005224,-4.180908,2.593994,28.625488
8.785404,0.034129,0.812510,10.030941,0.056416,-0.013607,0.004955,-4.089355,1.892090,22.491455
8.795493,0.030536,0.881966,10.020762,0.052823,0.055848,-0.005224,-2.746582,2.044678,21.362305
8.805583,0.078437,0.900527,10.016570,0.100724,0.074410,-0.009415,-2.410889,1.922607,20.538330
8.815670,0.100591,0.876577,10.030342,0.122878,0.050459,0.004357,-2.502441,1.739502,20.172119
8.825761,0.088017,0.865201,10.021360,0.110304,0.039083,-0.004625,-1.617432,1.861572,20.202637
8.835884,0.095801,0.820294,10.034533,0.118088,-0.005823,0.008548,-1.770020,1.831055,20.385742
8.845981,0.111368,0.792751,10.022558,0.133655,-0.033366,-0.003427,-1.739502,1.556396,19.958496
8.856082,0.038919,0.876577,10.059681,0.061206,0.050459,0.033696,-3.326416,0.885010,19.378662
8.866173,0.040715,0.847238,10.060878,0.063002,0.021120,0.034893,-5.828857,0.335693,18.768311
8.876260,0.062271,0.726888,10.042916,0.084557,-0.099229,0.016930,-9.155273,-0.183105,18.035889
8.886345,0.023351,0.704136,10.053094,0.045638,-0.121982,0.027109,-10.040283,-0.457764,17.700195
8.896428,0.025148,0.677192,10.044113,0.047435,-0.148926,0.018128,-10.314941,-0.061035,17.944336
8.906515,0.079036,0.615520,10.094409,0.101322,-0.210598,0.068423,-10.650635,0.488281,17.700195
8.916600,0.124541,0.595761,10.082433,0.146828,-0.230357,0.056448,-11.199951,0.915527,17.486572
8.926685,0.079036,0.584385,10.145303,0.101322,-0.241733,0.119317,-13.275146,1.312256,17.395020
8.936770,0.070054,0.581391,10.108779,0.092341,-0.244727,0.082793,-14.678955,1.464844,17.730713
8.946852,0.042512,0.499960,10.033336,0.064798,-0.326157,0.007350,-15.380859,1.770020,20.202637
8.956935,0.043110,0.448467,9.997410,0.065397,-0.377650,-0.028575,-14.221191,1.922607,21.759033
8.967020,0.043110,0.399968,10.019564,0.065397,-0.426149,-0.006421,-11.566162,1.983643,24.475098
8.977116,0.052092,0.470023,10.079440,0.074379,-0.356095,0.053454,-11.596680,2.044678,25.939941
8.987212,0.040715,0.460443,10.105785,0.063002,-0.365675,0.079800,-12.573242,2.349854,27.618408
8.997307,0.002994,0.352068,10.074650,0.025281,-0.474050,0.048664,-12.451172,2.380371,30.761719
9.007403,0.038320,0.307760,10.089020,0.060607,-0.518358,0.063035,-12.634277,2.532959,32.287598
9.017499,0.125739,0.219743,10.108180,0.148025,-0.606375,0.082195,-11.901855,3.906250,34.790039
9.027595,0.134121,0.127535,10.142309,0.156408,-0.698583,0.116324,-10.986328,5.401611,35.675049
9.037693,0.123344,0.126936,10.158475,0.145630,-0.699182,0.132490,-7.263184,9.918213,37.506104
9.047790,0.156874,-0.028740,10.175839,0.179161,-0.854858,0.149854,-5.035400,12.481689,37.933350
9.057882,0.139510,-0.023950,10.156679,0.161797,-0.850068,0.130694,-2.410889,14.984131,38.085938
9.067975,0.061073,-0.016765,10.184821,0.083360,-0.842883,0.158835,2.105713,20.141602,37.872314
9.078062,0.032932,0.037722,10.172247,0.055218,-0.788396,0.146261,3.265381,22.644043,37.567139
9.088152,-0.157473,0.090412,10.147698,-0.135186,-0.735706,0.121712,4.943848,26.794434,37.414551
9.098241,-0.191602,0.110770,10.099797,-0.169315,-0.715348,0.073812,5.462646,28.137207,37.292480
9.108393,-0.341290,0.180225,10.057885,-0.319003,-0.645892,0.031899,6.072998,29.113770,36.712646
9.118491,-0.437091,0.220941,10.032138,-0.414804,-0.605177,0.006153,6.164551,29.022217,36.956787
9.128602,-0.528701,0.238304,10.025552,-0.506414,-0.587813,-0.000433,5.126953,27.618408,37.780762
9.138692,-0.768801,0.203577,10.038724,-0.746514,-0.622541,0.012739,3.753662,26.702881,37.994385
9.148779,-0.877775,0.194595,10.029144,-0.855488,-0.631522,0.003159,2.410889,25.817871,37.902832
9.158874,-0.944835,0.164658,10.036329,-0.922548,-0.661460,0.010344,1.708984,25.054932,37.353516
9.169008,-0.938848,0.120948,10.038126,-0.916561,-0.705169,0.012140,1.495361,24.749756,36.102295
9.179097,-0.902324,0.119152,10.019564,-0.880037,-0.706965,-0.006421,0.671387,23.406982,31.127930
9.189188,-0.949625,0.188009,10.021360,-0.927338,-0.638109,-0.004625,0.335693,22.552490,28.259277
9.199277,-0.975970,0.224533,10.036329,-0.953684,-0.601585,0.010344,-2.288818,20.568848,22.247314
9.209367,-1.050216,0.319136,10.019564,-1.027929,-0.506981,-0.006421,-4.028320,19.409180,19.561768
9.219457,-1.060994,0.302970,9.950109,-1.038707,-0.523148,-0.075877,-5.462646,17.913818,16.876221
9.229546,-1.086141,0.333506,9.927356,-1.063855,-0.492611,-0.098629,-6.805420,14.007568,11.718750
9.239635,-1.090931,0.359852,9.900412,-1.068645,-0.466266,-0.125573,-7.751465,11.718750,9.460449
9.249724,-1.092728,0.416135,9.917776,-1.070441,-0.409983,-0.108209,-11.016846,6.561279,5.157471
9.259814,-1.049617,0.422721,9.942924,-1.027330,-0.403397,-0.083062,-12.664795,4.028320,3.326416
9.269998,-1.052611,0.426912,9.995614,-1.030324,-0.399205,-0.030371,-15.899658,0.427246,0.122070
9.280095,-0.981359,0.337698,9.996812,-0.959072,-0.488420,-0.029174,-16.693115,-0.244141,-1.403809
9.290190,-0.965193,0.323926,10.020163,-0.942906,-0.502191,-0.005822,-15.655518,-0.579834,-2.441406
9.300286,-0.943638,0.241897,10.058483,-0.921351,-0.584221,0.032498,-12.359619,0.976562,-4.272461
9.310382,-0.911904,0.234113,10.036329,-0.889617,-0.592005,0.010344,-9.948730,2.166748,-4.943848
9.320478,-0.918490,0.236508,10.047107,-0.896203,-0.589610,0.021122,-5.096436,4.730225,-5.706787
9.330570,-0.933459,0.270038,10.011182,-0.911172,-0.556079,-0.014804,-2.868652,5.249023,-5.706787
9.340664,-0.971180,0.272433,9.945319,-0.948894,-0.553684,-0.080667,-0.396729,4.882812,-5.645752
9.350757,-0.974174,0.276026,9.930948,-0.951887,-0.550092,-0.095037,0.122070,3.723145,-5.706787
9.360853,-0.932261,0.305365,9.914183,-0.909974,-0.520753,-0.111802,-0.488281,0.122070,-5.126953
9.370981,-0.858615,0.305964,9.965676,-0.836328,-0.520154,-0.060309,-1.434326,-1.708984,-4.913330
9.381078,-0.800535,0.279020,9.993818,-0.778248,-0.547098,-0.032168,-2.105713,-3.204346,-4.730225
9.391175,-0.750240,0.198787,10.047107,-0.727953,-0.627331,0.021122,-1.678467,-4.241943,-4.547119
9.401271,-0.719703,0.161664,10.056687,-0.697417,-0.664454,0.030702,-0.640869,-4.119873,-4.699707
9.411366,-0.721500,0.156874,10.038724,-0.699213,-0.669244,0.012739,2.349854,-3.082275,-5.187988
9.421459,-0.732277,0.208965,10.023755,-0.709990,-0.617152,-0.002230,3.387451,-2.929688,-5.401611
9.431556,-0.729882,0.253273,10.000404,-0.707595,-0.572844,-0.025581,3.387451,-4.089355,-5.706787
9.441652,-0.734073,0.325723,10.018367,-0.711787,-0.500395,-0.007619,2.655029,-5.249023,-5.706787
9.451747,-0.680186,0.336500,10.035731,-0.657899,-0.489617,0.009745,1.708984,-6.439209,-5.615234
9.461858,-0.608335,0.314945,10.074051,-0.586048,-0.511173,0.048066,-0.427246,-8.117676,-5.859375
9.471989,-0.578996,0.290396,10.086625,-0.556709,-0.535722,0.060639,-1.037598,-8.270264,-6.042480
9.482086,-0.565225,0.270038,10.102791,-0.542938,-0.556079,0.076806,-1.434326,-7.537842,-6.713867
9.492182,-0.564027,0.273032,10.114167,-0.541740,-0.553085,0.088182,-1.495361,-6.866455,-7.171631
9.502279,-0.573607,0.268242,10.122550,-0.551320,-0.557875,0.096565,-1.861572,-5.218506,-8.209229
9.512376,-0.582589,0.269440,10.149494,-0.560302,-0.556678,0.123509,-2.258301,-4.302979,-8.819580
9.522473,-0.593965,0.252675,10.157877,-0.571678,-0.573443,0.131891,-2.593994,-3.234863,-9.552002
9.532569,-0.591570,0.210163,10.163265,-0.569283,-0.615955,0.137280,-2.868652,-0.518799,-11.169434
9.542664,-0.602347,0.190404,10.159673,-0.580061,-0.635714,0.133688,-2.655029,1.129150,-12.023926
9.552758,-0.648452,0.170046,10.133328,-0.626165,-0.656071,0.107342,-1.678467,4.272461,-13.885498
9.562855,-0.683778,0.178429,10.117760,-0.661491,-0.647689,0.091775,-1.342773,5.401611,-14.801025
9.573053,-0.758622,0.193997,10.063872,-0.736336,-0.632121,0.037887,-1.586914,6.164551,-16.571045
9.583140,-0.799338,0.205373,10.036928,-0.777051,-0.620745,0.010943,-2.166748,5.737305,-17.333984
9.593231,-0.835862,0.205373,10.009385,-0.813575,-0.620745,-0.016600,-4.119873,3.295898,-18.707275
9.603321,-0.901126,0.192799,9.952504,-0.878839,-0.633319,-0.073482,-5.371094,1.342773,-19.287109
9.613411,-0.919687,0.194595,9.930948,-0.897401,-0.631522,-0.095037,-6.744385,-1.007080,-19.805908
9.623529,-0.935854,0.164658,9.895622,-0.913567,-0.661460,-0.130363,-10.009766,-6.713867,-20.507812
9.633621,-0.927471,0.144899,9.881851,-0.905184,-0.681219,-0.144135,-11.535645,-9.826660,-20.782471
9.643711,-0.895139,0.129331,9.896221,-0.872852,-0.696787,-0.129765,-14.556885,-16.326904,-21.392822
9.653801,-0.865800,0.111967,9.909992,-0.843513,-0.714151,-0.115993,-16.296387,-19.531250,-21.759033
9.663891,-0.826880,0.067061,9.917177,-0.804594,-0.759057,-0.108808,-19.226074,-25.421143,-22.644043
9.674016,-0.763412,-0.034728,9.928553,-0.741126,-0.860845,-0.097432,-20.202637,-28.106689,-23.101807
9.684106,-0.694556,-0.098795,9.956096,-0.672269,-0.924912,-0.069889,-20.599365,-30.303955,-23.681641
9.694196,-0.602347,-0.204175,9.986034,-0.580061,-1.030293,-0.039951,-20.385742,-33.233643,-24.932861
9.704292,-0.580792,-0.253872,9.983040,-0.558505,-1.079990,-0.042945,-19.897461,-34.332275,-25.665283
9.714416,-0.507145,-0.326321,9.954899,-0.484859,-1.152439,-0.071087,-18.554688,-36.437988,-27.282715
9.724511,-0.447869,-0.352667,10.000404,-0.425582,-1.178784,-0.025581,-17.761230,-37.811279,-27.954102
9.734602,-0.268841,-0.396974,10.036329,-0.246554,-1.223092,0.010344,-9.033203,-33.081055,-29.418945
9.744692,0.143701,-0.546064,10.123748,0.165988,-1.372182,0.097762,-0.091553,-24.566650,-30.792236
9.754780,0.114961,-0.448467,10.124945,0.137248,-1.274585,0.098960,6.713867,-18.524170,-32.287598
9.764867,0.016765,-0.302371,10.271041,0.039052,-1.128489,0.245056,13.824463,-13.183594,-34.515381
9.774997,0.062869,-0.235311,10.082433,0.085156,-1.061428,0.056448,16.571045,-10.253906,-35.308838
9.785088,-0.006586,-0.199984,10.111174,0.015701,-1.026102,0.085188,20.172119,-6.561279,-36.804199
9.795178,-0.008383,-0.206570,10.116563,0.013904,-1.032688,0.090577,21.667480,-5.554199,-37.567139
9.805269,-0.041913,-0.153880,10.061477,-0.019626,-0.979998,0.035492,24.627686,-3.906250,-39.001465
9.815360,-0.001796,-0.037722,10.122550,0.020491,-0.863839,0.096565,25.085449,-3.448486,-39.245605
9.825450,0.004191,0.070653,10.180031,0.026478,-0.755465,0.154045,23.986816,-3.234863,-39.245605
9.835540,-0.047900,0.134121,10.150093,-0.025614,-0.691997,0.124108,18.920898,-2.502441,-38.574219
9.845630,-0.018561,0.104183,10.143506,0.003725,-0.721934,0.117521,17.120361,-2.197266,-38.421631
9.855719,-0.005389,0.099393,10.131531,0.016898,-0.726724,0.105546,14.495850,-1.922607,-37.567139
9.865810,0.002395,0.092807,10.121951,0.024682,-0.733311,0.095966,13.519287,-1.861572,-36.926270
9.875981,0.064067,0.229323,10.085427,0.086354,-0.596795,0.059442,12.359619,-1.770020,-34.088135
9.886079,0.023950,0.268242,10.089619,0.046237,-0.557875,0.063633,11.993408,-1.708984,-31.768799
9.896176,0.004790,0.247286,10.086026,0.027077,-0.578832,0.060041,11.901855,-1.525879,-26.824951
9.906272,0.037123,0.232317,10.062076,0.059410,-0.593801,0.036091,12.176514,-1.403809,-24.414062
9.916365,0.028141,0.263452,10.056687,0.050428,-0.562666,0.030702,12.634277,-1.312256,-21.759033
9.926459,0.020358,0.234712,10.067465,0.042645,-0.591406,0.041479,13.824463,-1.159668,-16.174316
9.936552,0.026345,0.228126,10.036928,0.048632,-0.597992,0.010943,14.709473,-1.159668,-13.458252
9.946645,0.037722,0.180824,9.997410,0.060008,-0.645294,-0.028575,17.120361,-1.037598,-8.270264
9.956738,0.046104,0.192200,9.997410,0.068391,-0.633917,-0.028575,18.859863,-0.854492,-5.523682
9.966861,0.058079,0.149689,10.030941,0.080366,-0.676429,0.004955,21.972656,-0.793457,-0.732422
9.977070,0.083227,0.171244,10.010583,0.105514,-0.654874,-0.015402,23.468018,-0.701904,1.159668
9.987160,0.114362,0.201780,9.996812,0.136649,-0.624337,-0.029174,25.024414,-0.640869,2.838135
9.997249,0.143701,0.141905,10.163864,0.165988,-0.684213,0.137879,27.557373,0.366211,4.913330
10.007340,0.101788,0.130529,10.133926,0.124075,-0.695589,0.107941,28.930664,2.075195,5.218506
10.017429,-0.092208,0.529299,10.248289,-0.069921,-0.296818,0.222303,28.015137,3.234863,5.126953
10.027520,-0.188608,0.634081,10.189012,-0.166321,-0.192036,0.163027,21.667480,2.502441,4.608154
10.037610,-0.143102,0.569416,10.160272,-0.120816,-0.256702,0.134286,12.634277,1.434326,3.051758
10.047700,-0.065264,0.376617,10.165660,-0.042977,-0.449501,0.139675,13.061523,1.739502,2.532959
10.057790,-0.097597,0.795146,10.045909,-0.075310,-0.030971,0.019924,15.167236,2.380371,2.044678
10.067882,-0.082029,0.688568,10.123149,-0.059743,-0.137550,0.097164,8.697510,1.220703,1.922607
10.078062,-0.105980,0.723296,10.041718,-0.083693,-0.102822,0.015733,6.866455,1.098633,1.495361
10.088159,-0.086819,0.737067,10.029144,-0.064533,-0.089050,0.003159,4.272461,0.701904,0.854492
10.098257,-0.073048,0.736469,10.045311,-0.050761,-0.089649,0.019325,3.448486,0.549316,0.640869
10.108354,-0.065264,0.729283,10.055490,-0.042977,-0.096834,0.029504,2.227783,0.366211,0.335693
10.118450,-0.064666,0.726888,10.054891,-0.042379,-0.099229,0.028905,1.800537,0.274658,0.244141
10.128560,-0.067659,0.724493,10.051298,-0.045372,-0.101624,0.025313,1.129150,0.183105,0.122070
10.138652,-0.066462,0.723296,10.039922,-0.044175,-0.102822,0.013937,0.885010,0.152588,0.091553
10.148747,-0.064067,0.716111,10.042916,-0.041780,-0.110007,0.016930,0.671387,0.122070,0.061035
10.158841,-0.061073,0.711321,10.050699,-0.038786,-0.114797,0.024714,0.335693,0.091553,-0.061035
10.168938,-0.070653,0.702339,10.048903,-0.048366,-0.123778,0.022918,0.244141,0.061035,-0.152588
10.179135,-0.088017,0.670007,10.054891,-0.065730,-0.156111,0.028905,0.183105,-0.030518,-0.946045
10.189225,-0.095801,0.684377,10.044113,-0.073514,-0.141741,0.018128,0.183105,-0.152588,-2.136230
10.199316,-0.063468,0.710123,10.042317,-0.041181,-0.115994,0.016332,0.122070,-0.152588,-2.319336
10.209406,-0.050295,0.737666,10.040521,-0.028009,-0.088452,0.014535,0.152588,-0.122070,-1.831055
10.219496,-0.053289,0.735870,10.047107,-0.031002,-0.090248,0.021122,0.152588,-0.061035,-1.403809
10.229584,-0.059875,0.733475,10.038724,-0.037589,-0.092643,0.012739,0.152588,0.000000,-0.854492
10.239673,-0.053289,0.729283,10.035132,-0.031002,-0.096834,0.009147,0.183105,0.000000,-0.640869
10.249764,-0.064666,0.713117,10.081835,-0.042379,-0.113001,0.055849,0.427246,-0.091553,-0.335693
10.259890,-0.073647,0.696352,10.119556,-0.051360,-0.129766,0.093571,1.068115,-0.274658,-0.274658
10.269980,-0.076042,0.696352,10.129735,-0.053755,-0.129766,0.103750,3.051758,-0.793457,-0.152588
10.280143,-0.077239,0.694556,10.123149,-0.054953,-0.131562,0.097164,3.997803,-1.068115,-0.091553
10.290241,-0.072449,0.691562,10.124945,-0.050162,-0.134556,0.098960,6.072998,-1.617432,-0.061035
10.300336,-0.067061,0.710722,10.121353,-0.044774,-0.115396,0.095367,7.141113,-1.922607,0.000000
10.310433,-0.064067,0.725092,10.113569,-0.041780,-0.101026,0.087583,8.056641,-2.166748,0.030518
10.320530,-0.055085,0.744252,10.094409,-0.032799,-0.081865,0.068423,9.735107,-2.685547,0.061035
10.330624,-0.053888,0.763412,10.091415,-0.031601,-0.062705,0.065430,10.467529,-2.868652,0.061035
10.340719,-0.049098,0.796344,10.077045,-0.026811,-0.029774,0.051059,11.718750,-3.143311,0.061035
10.350812,-0.043709,0.814905,10.078841,-0.021422,-0.011212,0.052856,12.298584,-3.326416,0.061035
10.360909,-0.031734,0.831072,10.069860,-0.009447,0.004954,0.043874,13.153076,-3.509521,0.061035
10.371006,-0.023351,0.878972,10.032737,-0.001065,0.052854,0.006752,13.336182,-3.540039,0.061035
10.381134,0.026345,0.996328,9.883048,0.048632,0.170210,-0.142937,13.061523,-3.509521,0.061035
10.391232,0.001198,1.014890,9.917177,0.023484,0.188772,-0.108808,6.103516,-1.556396,0.061035
10.401330,0.001796,0.960403,10.008188,0.024083,0.134285,-0.017797,4.974365,-1.281738,0.061035
10.411427,0.017364,1.026865,9.905801,0.039651,0.200747,-0.120184,3.875732,-1.007080,0.061035
10.421520,0.015568,0.983156,9.979448,0.037854,0.157038,-0.046538,2.593994,-0.671387,0.061035
10.431617,0.006586,0.961002,10.006392,0.028873,0.134884,-0.019594,1.770020,-0.457764,0.061035
10.441713,0.011975,0.977168,9.981244,0.034262,0.151050,-0.044741,1.159668,-0.274658,0.030518
10.451807,0.010778,0.975372,9.990824,0.033064,0.149254,-0.035161,0.610352,-0.122070,0.000000
10.461904,0.021555,0.971180,9.953102,0.043842,0.145063,-0.072883,-0.274658,0.091553,-0.122070
10.472004,0.041314,0.956212,9.905801,0.063601,0.130094,-0.120184,-1.373291,0.396729,-0.488281
10.482271,0.035327,0.956810,9.886042,0.057613,0.130693,-0.139943,-4.791260,1.220703,-1.861572
10.492363,0.031734,0.991538,9.846524,0.054021,0.165420,-0.179461,-6.774902,1.708984,-2.502441
10.502453,-0.011376,1.055006,9.901011,0.010911,0.228888,-0.124975,-11.016846,2.868652,-2.197266
10.512541,-0.013173,1.003513,9.942924,0.009114,0.177396,-0.083062,-12.390137,3.326416,-1.739502
10.522630,-0.016765,0.962798,9.960886,0.005522,0.136680,-0.065099,-14.099121,3.875732,-1.098633
10.532718,-0.011376,0.925076,9.962682,0.010911,0.098959,-0.063303,-14.862061,4.119873,-0.915527
10.542806,-0.017963,0.886756,9.975256,0.004324,0.060638,-0.050729,-15.594482,4.364014,-0.732422
10.552893,-0.135917,0.596360,10.520722,-0.113631,-0.229758,0.494737,-15.014648,4.089355,-0.396729
10.562992,-0.051493,0.637674,10.271640,-0.029206,-0.188444,0.245655,-11.840820,3.204346,-0.396729
10.573117,-0.099393,0.691562,10.105186,-0.077106,-0.134556,0.079201,-7.049561,2.014160,-0.396729
10.583251,-0.083826,0.695154,10.108779,-0.061539,-0.130963,0.082793,-5.493164,1.556396,-0.366211
10.593342,-0.073647,0.685574,10.109976,-0.051360,-0.140543,0.083991,-3.417969,0.854492,-0.427246
10.603431,-0.063468,0.699944,10.089020,-0.041181,-0.126173,0.063035,-2.655029,0.671387,-0.396729
10.613516,-0.065863,0.710722,10.072255,-0.043576,-0.115396,0.046269,-1.983643,0.549316,-0.366211
10.623605,-0.065863,0.710123,10.062675,-0.043576,-0.115994,0.036689,-1.129150,0.335693,-0.244141
10.633695,-0.062271,0.712518,10.053094,-0.039984,-0.113599,0.027109,-0.885010,0.274658,-0.183105
10.643785,-0.064067,0.722697,10.053094,-0.041780,-0.103421,0.027109,-0.457764,0.183105,-0.091553
10.653874,-0.059277,0.726888,10.052496,-0.036990,-0.099229,0.026510,-0.335693,0.152588,-0.091553
10.663978,-0.053888,0.727487,10.051298,-0.031601,-0.098630,0.025313,-0.244141,0.091553,-0.091553
10.674069,-0.052092,0.729882,10.044113,-0.029805,-0.096235,0.018128,-0.213623,0.122070,-0.061035
10.684251,-0.044907,0.735870,10.044712,-0.022620,-0.090248,0.018727,-0.213623,0.091553,-0.030518
10.694349,-0.046104,0.735870,10.049502,-0.023817,-0.090248,0.023517,-0.152588,0.061035,-0.030518
10.704440,-0.044308,0.739462,10.053693,-0.022021,-0.086655,0.027708,-0.152588,0.061035,-0.061035
10.714530,-0.049697,0.731678,10.041718,-0.027410,-0.094439,0.015733,-0.061035,0.061035,-0.030518
10.724628,-0.050894,0.731080,10.041718,-0.028607,-0.095038,0.015733,-0.061035,0.061035,-0.030518
10.734725,-0.052690,0.728685,10.044113,-0.030404,-0.097433,0.018128,-0.091553,0.030518,-0.061035
10.744820,-0.058079,0.734672,10.051897,-0.035792,-0.091445,0.025912,-0.122070,0.061035,-0.030518
10.754915,-0.056283,0.725691,10.049502,-0.033996,-0.100427,0.023517,-0.213623,0.091553,-0.305176
10.765012,-0.073647,0.690963,10.045909,-0.051360,-0.135155,0.019924,-0.244141,0.030518,-0.640869
10.775109,-0.125739,0.679587,10.044712,-0.103452,-0.146531,0.018727,-0.274658,0.000000,-1.220703
10.785295,-0.234113,0.637075,10.038724,-0.211826,-0.189042,0.012739,-0.152588,-0.152588,-2.929688
10.795386,-0.228724,0.624501,10.051298,-0.206438,-0.201616,0.025313,-0.335693,-0.274658,-3.509521
10.805476,-0.147892,0.616119,10.068662,-0.125606,-0.209999,0.042677,-0.183105,-0.305176,-4.364014
10.815566,-0.089813,0.626298,10.074650,-0.067526,-0.199820,0.048664,-0.152588,-0.305176,-4.638672
10.825681,-0.050894,0.613125,10.063273,-0.028607,-0.212993,0.037288,0.122070,-0.122070,-5.432129
10.835772,-0.080233,0.695753,10.039922,-0.057946,-0.130365,0.013937,0.061035,-0.122070,-5.676270
10.845862,-0.110770,0.695753,10.036928,-0.088483,-0.130365,0.010943,-0.030518,-0.213623,-5.920410
10.855952,-0.163460,0.671803,10.064471,-0.141173,-0.154315,0.038486,-0.061035,-0.366211,-6.530762
10.866058,-0.180225,0.659229,10.059681,-0.157938,-0.166889,0.033696,0.030518,-0.366211,-6.805420
10.876147,-0.227527,0.661624,10.048903,-0.205240,-0.164494,0.022918,0.061035,-0.457764,-7.019043
10.886273,-0.215552,0.700543,10.041119,-0.193265,-0.125574,0.015134,0.061035,-0.518799,-7.202148
10.896363,-0.206570,0.679587,10.029144,-0.184284,-0.146531,0.003159,-0.030518,-0.610352,-7.904053
10.906452,-0.298779,0.614921,10.042916,-0.276492,-0.211196,0.016930,0.000000,-0.762939,-8.422852
10.916542,-0.302371,0.600551,10.063872,-0.280084,-0.225567,0.037887,-0.091553,-0.976562,-8.728027
10.926629,-0.263452,0.645458,10.027348,-0.241165,-0.180660,0.001363,0.061035,-1.007080,-8.605957
10.936716,-0.303569,0.647254,10.007589,-0.281282,-0.178864,-0.018396,0.061035,-1.403809,-8.514404
10.946803,-0.203577,0.717907,10.062675,-0.181290,-0.108211,0.036689,-0.244141,-1.739502,-7.110596
10.956934,-0.126936,0.792751,10.053094,-0.104649,-0.033366,0.027109,-0.030518,-1.556396,-6.195068
10.967021,0.022154,0.868195,10.087822,0.044441,0.042077,0.061837,0.122070,-0.762939,-4.669189
10.977111,0.208367,0.944236,10.027947,0.230654,0.118119,0.001962,0.274658,-0.518799,-4.119873
10.987289,0.265847,0.966989,10.013577,0.288134,0.140871,-0.012409,0.213623,-0.274658,-3.112793
10.997386,0.364043,0.989143,10.015373,0.386330,0.163025,-0.010612,0.122070,-0.213623,-2.532959
11.007482,0.380808,0.915496,10.028546,0.403095,0.089379,0.002560,0.091553,-0.152588,-2.044678
11.017578,0.210762,0.837059,10.027947,0.233049,0.010942,0.001962,0.152588,-0.061035,-1.251221
11.027673,0.152682,0.809517,10.025552,0.174969,-0.016601,-0.000433,0.183105,-0.030518,-0.976562
11.037770,0.070054,0.770598,10.025552,0.092341,-0.055520,-0.000433,0.244141,-0.030518,-0.549316
11.047864,0.041913,0.758622,10.035132,0.064200,-0.067495,0.009147,0.274658,-0.030518,-0.427246
11.057960,0.017963,0.750240,10.042916,0.040250,-0.075878,0.016930,0.396729,-0.061035,-0.244141
11.068055,-0.016765,0.722098,10.077643,0.005522,-0.104019,0.051658,0.762939,-0.183105,-0.183105
11.078152,-0.026345,0.717907,10.075248,-0.004058,-0.108211,0.049263,1.190186,-0.305176,-0.152588
11.088332,-0.033530,0.727487,10.055490,-0.011243,-0.098630,0.029504,1.861572,-0.457764,-0.061035
11.098423,-0.039518,0.736469,10.050699,-0.017231,-0.089649,0.024714,1.983643,-0.518799,-0.030518
11.108512,-0.038919,0.741259,10.050101,-0.016632,-0.084859,0.024115,1.922607,-0.518799,-0.030518
11.118599,-0.038320,0.746049,10.041718,-0.016033,-0.080069,0.015733,1.831055,-0.518799,0.000000
11.128718,-0.038919,0.746647,10.045311,-0.016632,-0.079470,0.019325,1.831055,-0.518799,0.061035
11.138808,-0.046104,0.744252,10.045311,-0.023817,-0.081865,0.019325,1.861572,-0.518799,0.061035
11.148895,-0.055085,0.734073,10.069860,-0.032799,-0.092044,0.043874,2.105713,-0.549316,0.061035
11.158981,-0.061672,0.711920,10.109377,-0.039385,-0.114198,0.083392,3.173828,-0.854492,0.152588
11.169083,-0.064067,0.713716,10.115964,-0.041780,-0.112402,0.089978,4.119873,-1.129150,0.152588
11.179173,-0.061073,0.728086,10.117161,-0.038786,-0.098032,0.091176,6.011963,-1.678467,0.274658
11.189297,-0.054487,0.738265,10.105785,-0.032200,-0.087853,0.079800,6.988525,-1.953125,0.274658
11.199386,-0.047900,0.749042,10.100995,-0.025614,-0.077075,0.075010,8.636475,-2.380371,0.213623
11.209476,-0.044308,0.765209,10.105785,-0.022021,-0.060909,0.079800,9.490967,-2.655029,0.183105
11.219565,-0.039518,0.784369,10.084828,-0.017231,-0.041749,0.058843,10.345459,-2.868652,0.183105
11.229654,-0.025746,0.816702,10.060280,-0.003460,-0.009416,0.034294,11.566162,-3.204346,0.213623
11.239743,-0.019160,0.834664,10.056088,0.003127,0.008547,0.030103,12.054443,-3.326416,0.213623
11.249833,-0.011376,0.867596,10.050699,0.010911,0.041478,0.024714,12.878418,-3.570557,0.213623
11.259922,0.000599,0.894540,10.045311,0.022886,0.068422,0.019325,13.244629,-3.631592,0.244141
11.270024,-0.000599,0.925675,10.045909,0.021688,0.099557,0.019924,13.946533,-3.845215,0.213623
11.280115,0.046703,1.110690,9.753717,0.068990,0.284573,-0.272268,13.427734,-3.540039,0.213623
11.290288,0.098795,1.195115,9.602232,0.121081,0.368997,-0.423753,5.767822,-1.556396,0.274658
11.300385,0.024549,1.004711,10.010583,0.046836,0.178593,-0.015402,5.096436,-1.373291,0.335693
11.310481,0.046104,1.059197,9.928553,0.068391,0.233080,-0.097432,4.882812,-1.281738,0.305176
11.320576,0.027543,1.019081,10.014774,0.049830,0.192963,-0.011211,2.441406,-0.640869,0.183105
11.330681,0.040715,1.041235,9.962682,0.063002,0.215117,-0.063303,2.349854,-0.610352,0.152588
11.340781,0.027543,1.008902,10.034533,0.049830,0.182784,0.008548,1.190186,-0.274658,0.061035
11.350875,0.042512,1.037043,9.978250,0.064798,0.210926,-0.047735,1.220703,-0.244141,0.061035
11.360969,0.042512,1.021476,9.996213,0.064798,0.195358,-0.029772,0.671387,-0.091553,0.030518
11.371079,0.042512,1.020877,9.992021,0.064798,0.194759,-0.033964,0.549316,-0.030518,0.030518
11.381177,0.031135,1.010099,10.024354,0.053422,0.183982,-0.001631,0.335693,0.030518,0.061035
11.391379,0.028740,1.016686,10.009984,0.051027,0.190568,-0.016001,0.244141,0.000000,0.061035
11.401469,0.029339,1.014890,10.023755,0.051626,0.188772,-0.002230,0.213623,0.000000,0.061035
11.411558,0.031734,1.017883,10.018367,0.054021,0.191766,-0.007619,0.091553,0.030518,0.061035
11.421657,0.028141,1.022075,10.011182,0.050428,0.195957,-0.014804,0.122070,0.030518,0.061035
11.431793,0.021555,1.016087,10.016570,0.043842,0.189969,-0.009415,0.000000,0.030518,0.061035
11.441890,0.025148,1.020877,10.008787,0.047435,0.194759,-0.017199,0.061035,0.000000,0.030518
11.451980,0.021555,1.024470,10.014774,0.043842,0.198352,-0.011211,0.000000,0.030518,0.030518
11.462076,0.016765,1.028661,10.009385,0.039052,0.202543,-0.016600,0.061035,0.000000,0.030518
11.472179,0.015568,1.023871,10.015373,0.037854,0.197753,-0.010612,0.000000,0.030518,0.030518
11.482270,0.020956,1.025667,10.005793,0.043243,0.199549,-0.020192,0.061035,0.091553,-0.030518
11.492452,0.022753,1.019680,10.008188,0.045040,0.193562,-0.017797,0.030518,0.091553,-0.030518
11.502534,0.019759,1.016087,10.020762,0.042046,0.189969,-0.005224,0.030518,0.061035,0.000000
11.512620,0.018561,1.011297,10.023755,0.040848,0.185179,-0.002230,0.030518,0.061035,0.000000
11.522704,0.026944,1.019081,10.010583,0.049231,0.192963,-0.015402,0.000000,0.061035,-0.030518
11.532785,0.035925,1.013692,10.005194,0.058212,0.187574,-0.020791,0.030518,0.061035,0.000000
11.542869,0.039518,1.016686,10.010583,0.061805,0.190568,-0.015402,0.030518,0.061035,0.030518
11.552952,0.037123,1.019680,10.012379,0.059410,0.193562,-0.013606,0.061035,0.030518,-0.030518
11.563036,0.037123,1.022075,10.017768,0.059410,0.195957,-0.008217,0.030518,0.030518,-0.030518
11.573133,0.030536,1.017285,10.003398,0.052823,0.191167,-0.022587,0.122070,0.030518,0.030518
11.583219,0.023950,1.019081,10.002200,0.046237,0.192963,-0.023785,0.091553,0.061035,0.061035
11.593383,0.026944,1.022075,10.006990,0.049231,0.195957,-0.018995,0.061035,0.061035,0.061035
11.604802,0.026944,1.025068,10.016570,0.049231,0.198951,-0.009415,0.030518,0.061035,0.061035
11.614937,0.026345,1.027463,10.014175,0.048632,0.201346,-0.011810,0.000000,0.091553,0.030518
11.625059,0.020956,1.021476,10.009385,0.043243,0.195358,-0.016600,0.000000,0.061035,0.061035
11.635170,0.017364,1.022075,10.009984,0.039651,0.195957,-0.016001,0.030518,0.030518,0.061035
11.645281,0.018561,1.013692,10.017768,0.040848,0.187574,-0.008217,0.000000,0.030518,0.030518
11.655386,0.019160,1.014291,10.019564,0.041447,0.188173,-0.006421,0.000000,0.030518,0.030518
11.665525,0.022154,1.017285,10.012978,0.044441,0.191167,-0.013007,0.000000,0.000000,0.000000
11.675665,0.020358,1.014291,10.008787,0.042645,0.188173,-0.017199,0.061035,0.000000,0.000000
11.685812,0.022753,1.011896,10.011182,0.045040,0.185778,-0.014804,0.030518,0.030518,0.030518
11.696031,0.028141,1.010698,10.013577,0.050428,0.184581,-0.012409,0.030518,0.030518,0.030518
11.706151,0.029938,1.010698,10.014175,0.052225,0.184581,-0.011810,0.000000,0.000000,-0.030518
11.716251,0.025746,1.007704,10.011182,0.048033,0.181587,-0.014804,0.030518,0.000000,-0.030518
11.726349,0.032932,1.007704,10.007589,0.055218,0.181587,-0.018396,0.000000,0.000000,-0.030518
11.736461,0.034728,1.019680,10.006392,0.057015,0.193562,-0.019594,-0.030518,0.061035,-0.061035
11.746552,0.030536,1.022673,10.010583,0.052823,0.196556,-0.015402,0.000000,0.030518,-0.030518
11.756633,0.020956,1.022673,10.014774,0.043243,0.196556,-0.011211,0.000000,0.061035,-0.030518
11.766711,0.016765,1.020877,10.013577,0.039052,0.194759,-0.012409,0.000000,0.061035,-0.030518
11.776786,0.011975,1.021476,10.008787,0.034262,0.195358,-0.017199,0.030518,0.091553,0.000000
11.786851,0.020956,1.019680,10.009984,0.043243,0.193562,-0.016001,0.030518,0.061035,0.030518
11.796917,0.023351,1.024470,10.012978,0.045638,0.198352,-0.013007,0.030518,0.061035,0.061035
11.806982,0.022753,1.026865,10.013577,0.045040,0.200747,-0.012409,0.030518,0.061035,0.000000
11.817055,0.028141,1.024470,10.013577,0.050428,0.198352,-0.012409,0.000000,0.061035,0.000000
11.827122,0.021555,1.023871,10.001003,0.043842,0.197753,-0.024982,0.061035,0.061035,0.000000
11.837198,0.023950,1.024470,10.002200,0.046237,0.198352,-0.023785,0.030518,0.030518,0.000000
11.847264,0.028740,1.026266,10.008188,0.051027,0.200148,-0.017797,0.030518,0.061035,0.000000
11.857330,0.028740,1.022673,10.012978,0.051027,0.196556,-0.013007,0.061035,0.091553,0.000000
11.867438,0.029339,1.025068,10.012978,0.051626,0.198951,-0.013007,0.030518,0.091553,0.000000
11.877509,0.033530,1.021476,10.008787,0.055817,0.195358,-0.017199,0.061035,0.091553,-0.030518
11.887582,0.029938,1.024470,10.009984,0.052225,0.198352,-0.016001,0.030518,0.061035,-0.030518
11.897654,0.032333,1.020877,10.020762,0.054620,0.194759,-0.005224,0.061035,0.061035,-0.061035
11.907720,0.028141,1.023272,10.019564,0.050428,0.197154,-0.006421,0.061035,0.061035,0.000000
11.917785,0.029938,1.020877,10.016570,0.052225,0.194759,-0.009415,0.030518,0.030518,0.030518
11.927851,0.019160,1.023272,10.015972,0.041447,0.197154,-0.010014,0.030518,0.061035,0.000000
11.937918,0.019160,1.020877,10.009385,0.041447,0.194759,-0.016600,0.030518,0.030518,0.030518
11.947990,0.018561,1.016686,10.014175,0.040848,0.190568,-0.011810,0.030518,0.030518,0.000000
11.958062,0.021555,1.013692,10.013577,0.043842,0.187574,-0.012409,0.000000,0.000000,0.000000
11.968127,0.020358,1.018482,10.007589,0.042645,0.192364,-0.018396,-0.030518,0.030518,0.000000
11.978193,0.025148,1.017285,10.009984,0.047435,0.191167,-0.016001,-0.030518,0.061035,0.030518
11.988259,0.026345,1.011896,10.005793,0.048632,0.185778,-0.020192,0.000000,0.091553,0.000000
11.998324,0.026944,1.008902,10.012379,0.049231,0.182784,-0.013606,0.000000,0.091553,0.000000
12.008400,0.023351,1.011896,10.012379,0.045638,0.185778,-0.013606,0.000000,0.091553,0.000000
12.018466,0.023950,1.009501,10.011780,0.046237,0.183383,-0.014205,0.000000,0.061035,0.030518
