time,ax_raw,ay_raw,az_raw,ax,ay,az,gx,gy,gz
0.001755,-0.018561,-0.746049,10.050699,-0.002516,0.003078,0.001102,0.061035,0.000000,0.030518
0.011849,-0.026944,-0.753832,10.045311,-0.010898,-0.004706,-0.004286,0.030518,-0.030518,0.030518
0.021949,-0.028740,-0.754431,10.047706,-0.012694,-0.005305,-0.001891,0.030518,-0.030518,0.000000
0.032047,-0.022154,-0.758024,10.050699,-0.006108,-0.008897,0.001102,0.030518,-0.030518,0.000000
0.042145,-0.020956,-0.756826,10.049502,-0.004911,-0.007700,-0.000095,0.061035,-0.030518,0.030518
0.052241,-0.025148,-0.756227,10.045311,-0.009102,-0.007101,-0.004286,0.061035,-0.030518,0.030518
0.062336,-0.027543,-0.759221,10.050101,-0.011497,-0.010095,0.000504,0.061035,0.000000,0.030518
0.072434,-0.030536,-0.759820,10.044712,-0.014491,-0.010694,-0.004885,0.030518,0.061035,0.000000
0.082520,-0.022753,-0.750839,10.058483,-0.006707,-0.001712,0.008886,0.000000,0.030518,0.030518
0.092603,-0.025746,-0.751437,10.063872,-0.009701,-0.002311,0.014275,0.000000,0.000000,0.030518
0.102689,-0.022154,-0.752635,10.062076,-0.006108,-0.003509,0.012479,0.000000,0.030518,0.061035
0.112774,-0.023351,-0.744252,10.058483,-0.007306,0.004874,0.008886,0.000000,0.030518,0.030518
0.122859,-0.023950,-0.750240,10.059681,-0.007904,-0.001114,0.010084,0.000000,0.061035,0.030518
0.132944,-0.018561,-0.747246,10.062675,-0.002516,0.001880,0.013078,0.030518,0.030518,0.061035
0.143029,-0.016166,-0.752635,10.061477,-0.000120,-0.003509,0.011880,0.061035,0.030518,0.061035
0.153115,-0.017364,-0.749641,10.053094,-0.001318,-0.000515,0.003497,0.061035,0.030518,0.061035
0.163200,-0.012574,-0.750240,10.043514,0.003472,-0.001114,-0.006083,0.061035,0.061035,0.061035
0.173285,-0.005988,-0.743654,10.048304,0.010058,0.005473,-0.001293,0.061035,0.061035,0.061035
0.183380,-0.005389,-0.748444,10.054292,0.010657,0.000683,0.004695,0.030518,0.061035,0.061035
0.193478,-0.011975,-0.742456,10.050699,0.004071,0.006670,0.001102,0.030518,0.030518,0.030518
0.203574,-0.009580,-0.740660,10.045311,0.006466,0.008466,-0.004286,0.030518,0.030518,0.030518
0.213672,-0.014370,-0.741857,10.045311,0.001676,0.007269,-0.004286,0.030518,0.030518,0.030518
0.223770,-0.016765,-0.738265,10.053094,-0.000719,0.010861,0.003497,0.030518,0.030518,0.061035
0.233868,-0.016765,-0.740061,10.056687,-0.000719,0.009065,0.007090,0.030518,0.030518,0.061035
0.243964,-0.017364,-0.743654,10.059082,-0.001318,0.005473,0.009485,0.061035,0.030518,0.061035
0.254060,-0.019759,-0.747246,10.053094,-0.003713,0.001880,0.003497,0.061035,0.030518,0.061035
0.264156,-0.017963,-0.738265,10.048304,-0.001917,0.010861,-0.001293,0.061035,0.061035,0.061035
0.274252,-0.020358,-0.743055,10.056088,-0.004312,0.006071,0.006491,0.061035,0.030518,0.061035
0.284391,-0.020358,-0.751437,10.059082,-0.004312,-0.002311,0.009485,0.030518,0.030518,0.061035
0.294489,-0.014370,-0.746647,10.056088,0.001676,0.002479,0.006491,0.061035,0.000000,0.061035
0.304587,-0.015568,-0.745450,10.053693,0.000478,0.003676,0.004096,0.061035,0.091553,0.061035
0.314686,-0.008981,-0.753832,10.052496,0.007065,-0.004706,0.002899,0.061035,0.061035,0.030518
0.324782,-0.012574,-0.755629,10.051897,0.003472,-0.006502,0.002300,0.061035,0.061035,0.030518
0.334880,-0.017364,-0.758024,10.061477,-0.001318,-0.008897,0.011880,0.061035,0.030518,0.030518
0.344978,-0.014370,-0.757425,10.053693,0.001676,-0.008299,0.004096,0.030518,0.030518,0.000000
0.355075,-0.016765,-0.763412,10.049502,-0.000719,-0.014286,-0.000095,0.061035,0.030518,0.030518
0.365172,-0.017364,-0.764011,10.044113,-0.001318,-0.014885,-0.005484,0.030518,0.030518,0.030518
0.375270,-0.014969,-0.758622,10.048304,0.001077,-0.009496,-0.001293,0.061035,0.000000,0.030518
0.385362,-0.010179,-0.752635,10.053693,0.005867,-0.003509,0.004096,0.000000,0.000000,0.030518
0.395453,-0.006586,-0.757425,10.049502,0.009460,-0.008299,-0.000095,0.030518,0.000000,0.030518
0.405544,-0.006586,-0.755030,10.047706,0.009460,-0.005904,-0.001891,0.091553,0.030518,0.030518
0.415631,-0.006586,-0.749042,10.047706,0.009460,0.000084,-0.001891,0.091553,0.061035,0.030518
0.425722,-0.008981,-0.740061,10.056687,0.007065,0.009065,0.007090,0.061035,0.061035,0.061035
0.435812,-0.011376,-0.740660,10.057286,0.004670,0.008466,0.007689,0.030518,0.061035,0.061035
0.445902,-0.013173,-0.741857,10.053693,0.002873,0.007269,0.004096,0.000000,0.061035,0.030518
0.455993,-0.022154,-0.744252,10.048903,-0.006108,0.004874,-0.000694,0.000000,0.030518,0.030518
0.466093,-0.017364,-0.743654,10.048903,-0.001318,0.005473,-0.000694,0.000000,0.030518,0.030518
0.476184,-0.014969,-0.738265,10.048903,0.001077,0.010861,-0.000694,0.030518,0.000000,0.061035
0.486279,-0.015568,-0.743055,10.049502,0.000478,0.006071,-0.000095,0.030518,0.000000,0.061035
0.496377,-0.008981,-0.755030,10.056687,0.007065,-0.005904,0.007090,0.030518,0.061035,0.061035
0.506474,-0.012574,-0.752036,10.055490,0.003472,-0.002910,0.005892,0.000000,0.030518,0.061035
0.516572,-0.012574,-0.755030,10.054292,0.003472,-0.005904,0.004695,0.030518,0.000000,0.061035
0.526669,-0.008981,-0.745450,10.056088,0.007065,0.003676,0.006491,0.030518,-0.030518,0.030518
0.536767,-0.012574,-0.747845,10.052496,0.003472,0.001281,0.002899,0.030518,-0.030518,0.030518
0.546864,-0.012574,-0.742456,10.047706,0.003472,0.006670,-0.001891,0.061035,0.000000,0.000000
0.556962,-0.015568,-0.746647,10.053693,0.000478,0.002479,0.004096,0.061035,0.000000,0.000000
0.567059,-0.016166,-0.755030,10.042317,-0.000120,-0.005904,-0.007280,0.030518,0.030518,-0.030518
0.577155,-0.014969,-0.753832,10.038724,0.001077,-0.004706,-0.010873,0.030518,0.030518,-0.030518
0.587252,-0.016166,-0.750839,10.046508,-0.000120,-0.001712,-0.003089,0.061035,0.030518,-0.030518
0.597349,-0.017963,-0.756227,10.050699,-0.001917,-0.007101,0.001102,0.061035,0.061035,-0.030518
0.607443,-0.019759,-0.755629,10.046508,-0.003713,-0.006502,-0.003089,0.061035,0.061035,0.030518
0.617540,-0.016166,-0.757425,10.047107,-0.000120,-0.008299,-0.002490,0.030518,0.061035,0.030518
0.627638,-0.013173,-0.759820,10.047107,0.002873,-0.010694,-0.002490,0.030518,0.000000,0.030518
0.637735,-0.011376,-0.752036,10.057286,0.004670,-0.002910,0.007689,0.030518,0.000000,0.000000
0.647833,-0.012574,-0.750240,10.057286,0.003472,-0.001114,0.007689,0.030518,0.000000,0.030518
0.657930,-0.008981,-0.747845,10.051298,0.007065,0.001281,0.001701,0.000000,0.000000,0.061035
0.668027,-0.006586,-0.748444,10.044712,0.009460,0.000683,-0.004885,0.000000,0.000000,0.061035
0.678218,-0.003593,-0.747246,10.050101,0.012453,0.001880,0.000504,0.030518,0.061035,0.061035
0.688309,-0.005389,-0.746647,10.050699,0.010657,0.002479,0.001102,0.061035,0.061035,0.061035
0.698398,-0.009580,-0.746647,10.045909,0.006466,0.002479,-0.003688,0.030518,0.030518,0.030518
0.708490,-0.008383,-0.750240,10.039323,0.007663,-0.001114,-0.010274,0.030518,0.061035,0.030518
0.718580,-0.014370,-0.752635,10.043514,0.001676,-0.003509,-0.006083,0.030518,0.061035,0.000000
0.728670,-0.009580,-0.747845,10.055490,0.006466,0.001281,0.005892,0.061035,0.061035,0.000000
0.738760,-0.006586,-0.748444,10.053693,0.009460,0.000683,0.004096,0.061035,0.061035,0.000000
0.748851,-0.006586,-0.752635,10.051897,0.009460,-0.003509,0.002300,0.061035,0.030518,0.030518
0.758942,-0.010778,-0.737666,10.041718,0.005268,0.011460,-0.007879,0.030518,0.030518,0.061035
0.769033,-0.017364,-0.738864,10.044712,-0.001318,0.010263,-0.004885,0.030518,0.030518,0.030518
0.779125,-0.018561,-0.741259,10.054891,-0.002516,0.007868,0.005294,0.061035,0.030518,0.030518
0.789221,-0.014370,-0.742456,10.056088,0.001676,0.006670,0.006491,0.061035,0.030518,0.030518
0.799318,-0.013771,-0.747845,10.044712,0.002275,0.001281,-0.004885,0.061035,0.000000,0.030518
0.809423,-0.010778,-0.747246,10.047107,0.005268,0.001880,-0.002490,0.061035,0.030518,0.030518
0.819520,-0.005389,-0.747246,10.044712,0.010657,0.001880,-0.004885,0.061035,0.000000,0.030518
0.829618,-0.001796,-0.741857,10.045909,0.014250,0.007269,-0.003688,0.061035,0.000000,0.061035
0.839717,-0.001796,-0.743654,10.050699,0.014250,0.005473,0.001102,0.030518,0.030518,0.061035
0.849814,-0.010179,-0.741857,10.053094,0.005867,0.007269,0.003497,0.000000,0.061035,0.061035
0.859911,-0.011376,-0.743055,10.044712,0.004670,0.006071,-0.004885,0.030518,0.061035,0.061035
0.870005,-0.013173,-0.744851,10.050699,0.002873,0.004275,0.001102,0.030518,0.030518,0.061035
0.880100,-0.012574,-0.740061,10.053094,0.003472,0.009065,0.003497,0.030518,0.030518,0.061035
0.890204,-0.010778,-0.747845,10.050101,0.005268,0.001281,0.000504,0.061035,0.030518,0.030518
0.900297,-0.008383,-0.743055,10.050101,0.007663,0.006071,0.000504,0.061035,0.000000,0.000000
0.910388,-0.007784,-0.740061,10.045311,0.008262,0.009065,-0.004286,0.030518,0.000000,0.030518
0.920478,-0.009580,-0.744252,10.050699,0.006466,0.004874,0.001102,0.030518,0.030518,0.061035
0.930569,-0.005389,-0.743055,10.050699,0.010657,0.006071,0.001102,0.000000,0.030518,0.061035
0.940660,-0.011975,-0.744851,10.051897,0.004071,0.004275,0.002300,0.030518,0.000000,0.030518
0.950750,-0.014370,-0.748444,10.057286,0.001676,0.000683,0.007689,0.030518,0.030518,0.000000
0.960841,-0.017364,-0.745450,10.050699,-0.001318,0.003676,0.001102,0.030518,0.030518,-0.030518
0.970931,-0.015568,-0.749641,10.053693,0.000478,-0.000515,0.004096,0.030518,0.000000,-0.030518
0.981022,-0.017963,-0.746049,10.052496,-0.001917,0.003078,0.002899,0.000000,0.000000,0.000000
0.991115,-0.019759,-0.752635,10.042916,-0.003713,-0.003509,-0.006681,0.000000,0.000000,0.030518
1.001212,-0.020956,-0.747246,10.043514,-0.004911,0.001880,-0.006083,0.000000,0.061035,0.061035
1.011310,-0.011376,-0.753832,10.036329,0.004670,-0.004706,-0.013268,0.000000,0.061035,0.030518
1.021404,-0.006586,-0.746049,10.041718,0.009460,0.003078,-0.007879,0.030518,0.061035,0.061035
1.031501,-0.017364,-0.749042,10.054292,-0.001318,0.000084,0.004695,0.061035,0.061035,0.061035
1.041599,-0.019160,-0.749042,10.050699,-0.003114,0.000084,0.001102,0.061035,0.030518,0.061035
1.051696,-0.017963,-0.743055,10.050699,-0.001917,0.006071,0.001102,0.000000,0.030518,0.061035
1.061793,-0.014969,-0.749042,10.044113,0.001077,0.000084,-0.005484,0.000000,0.000000,0.061035
1.071890,-0.014969,-0.750240,10.047706,0.001077,-0.001114,-0.001891,0.030518,0.000000,0.061035
1.081987,-0.011376,-0.753234,10.054891,0.004670,-0.004107,0.005294,-0.030518,0.030518,0.030518
1.092084,-0.009580,-0.755629,10.049502,0.006466,-0.006502,-0.000095,0.000000,0.030518,0.030518
1.102181,-0.008981,-0.747246,10.044113,0.007065,0.001880,-0.005484,-0.030518,0.000000,0.030518
1.112278,-0.010179,-0.743055,10.042317,0.005867,0.006071,-0.007280,0.000000,0.000000,0.030518
1.122375,-0.009580,-0.747246,10.045909,0.006466,0.001880,-0.003688,0.000000,0.000000,0.000000
1.132472,-0.013173,-0.741857,10.059082,0.002873,0.007269,0.009485,0.000000,0.000000,0.000000
1.142569,-0.009580,-0.738864,10.057885,0.006466,0.010263,0.008288,-0.030518,0.000000,-0.030518
1.152666,-0.016765,-0.740660,10.059681,-0.000719,0.008466,0.010084,-0.030518,0.000000,0.000000
1.162766,-0.010179,-0.747246,10.054292,0.005867,0.001880,0.004695,-0.030518,0.000000,0.000000
1.172864,-0.014969,-0.741259,10.062675,0.001077,0.007868,0.013078,-0.030518,0.000000,0.000000
1.182962,-0.012574,-0.736469,10.058483,0.003472,0.012658,0.008886,-0.030518,0.000000,0.030518
1.193058,-0.004790,-0.740061,10.062076,0.011256,0.009065,0.012479,-0.030518,0.000000,0.061035
1.203155,-0.005389,-0.737067,10.056687,0.010657,0.012059,0.007090,0.000000,0.030518,0.000000
1.213252,-0.005389,-0.739462,10.050101,0.010657,0.009664,0.000504,0.000000,0.000000,0.000000
1.223349,-0.008981,-0.744851,10.063872,0.007065,0.004275,0.014275,0.030518,0.000000,0.030518
1.233446,-0.017963,-0.746647,10.069261,-0.001917,0.002479,0.019664,0.030518,0.030518,0.030518
1.243544,-0.013173,-0.741259,10.065668,0.002873,0.007868,0.016071,0.030518,0.030518,-0.030518
1.253642,-0.011376,-0.743654,10.059681,0.004670,0.005473,0.010084,0.030518,0.030518,-0.030518
1.263738,-0.007784,-0.743055,10.051298,0.008262,0.006071,0.001701,0.000000,0.030518,-0.030518
1.273838,-0.007185,-0.748444,10.054891,0.008861,0.000683,0.005294,0.030518,0.000000,-0.061035
1.283935,-0.010179,-0.749641,10.059681,0.005867,-0.000515,0.010084,0.061035,0.030518,-0.030518
1.294028,-0.003593,-0.749641,10.057885,0.012453,-0.000515,0.008288,0.030518,0.030518,0.000000
1.304118,-0.002395,-0.759221,10.055490,0.013651,-0.010095,0.005892,0.030518,0.030518,0.000000
1.314209,0.000000,-0.752635,10.053693,0.016046,-0.003509,0.004096,0.061035,0.000000,0.000000
1.324299,-0.006586,-0.753832,10.062076,0.009460,-0.004706,0.012479,0.030518,0.000000,0.000000
1.334390,-0.001198,-0.752036,10.055490,0.014848,-0.002910,0.005892,0.030518,0.061035,0.000000
1.344481,-0.001796,-0.753234,10.056088,0.014250,-0.004107,0.006491,0.030518,0.061035,0.000000
1.354572,-0.002994,-0.752036,10.054292,0.013052,-0.002910,0.004695,0.061035,0.000000,0.030518
1.364662,-0.009580,-0.756826,10.048903,0.006466,-0.007700,-0.000694,0.030518,0.000000,0.030518
1.374751,-0.014370,-0.758622,10.056687,0.001676,-0.009496,0.007090,0.030518,0.000000,0.000000
1.384841,-0.014370,-0.757425,10.054292,0.001676,-0.008299,0.004695,0.030518,0.000000,0.030518
1.394935,-0.013771,-0.755030,10.055490,0.002275,-0.005904,0.005892,0.061035,0.030518,0.030518
1.405032,-0.012574,-0.749042,10.054292,0.003472,0.000084,0.004695,0.000000,0.030518,0.061035
1.415129,-0.011975,-0.750839,10.049502,0.004071,-0.001712,-0.000095,0.030518,0.030518,0.030518
1.425225,-0.013173,-0.751437,10.059082,0.002873,-0.002311,0.009485,0.030518,0.030518,0.030518
1.435321,-0.007185,-0.747845,10.066267,0.008861,0.001281,0.016670,0.030518,0.000000,0.000000
1.445418,-0.004191,-0.748444,10.057286,0.011855,0.000683,0.007689,0.030518,0.000000,0.030518
1.455515,-0.010778,-0.749042,10.048903,0.005268,0.000084,-0.000694,0.030518,0.000000,0.000000
1.465609,-0.014969,-0.746049,10.048903,0.001077,0.003078,-0.000694,0.000000,0.000000,0.030518
1.475706,-0.017963,-0.750240,10.048903,-0.001917,-0.001114,-0.000694,0.061035,0.030518,0.061035
1.485803,-0.016765,-0.752635,10.050101,-0.000719,-0.003509,0.000504,0.091553,0.061035,0.030518
1.495899,-0.020358,-0.755030,10.042317,-0.004312,-0.005904,-0.007280,0.091553,0.061035,0.061035
1.505995,-0.025148,-0.755629,10.037527,-0.009102,-0.006502,-0.012070,0.061035,0.061035,0.061035
1.516092,-0.025148,-0.752635,10.036329,-0.009102,-0.003509,-0.013268,0.030518,0.061035,0.030518
1.526189,-0.023351,-0.752635,10.043514,-0.007306,-0.003509,-0.006083,0.030518,0.030518,0.030518
1.536283,-0.025746,-0.753234,10.041718,-0.009701,-0.004107,-0.007879,0.000000,0.030518,0.000000
1.546683,-0.015568,-0.749641,10.047107,0.000478,-0.000515,-0.002490,0.030518,0.030518,0.000000
1.556783,-0.016166,-0.750839,10.045311,-0.000120,-0.001712,-0.004286,0.061035,0.030518,0.000000
1.566878,-0.013771,-0.741857,10.050101,0.002275,0.007269,0.000504,0.061035,0.030518,0.030518
1.576976,-0.017364,-0.745450,10.057885,-0.001318,0.003676,0.008288,0.122070,0.030518,0.030518
1.587073,-0.017963,-0.746647,10.059082,-0.001917,0.002479,0.009485,0.122070,0.000000,0.061035
1.597164,-0.017364,-0.753234,10.052496,-0.001318,-0.004107,0.002899,0.122070,0.030518,0.061035
1.607256,-0.011975,-0.754431,10.056088,0.004071,-0.005305,0.006491,0.091553,0.030518,0.061035
1.617347,-0.010778,-0.749042,10.054292,0.005268,0.000084,0.004695,0.061035,0.030518,0.061035
1.627438,-0.014370,-0.742456,10.056088,0.001676,0.006670,0.006491,0.061035,0.061035,0.030518
1.637528,-0.008383,-0.746049,10.053693,0.007663,0.003078,0.004096,0.061035,0.061035,0.061035
1.647619,-0.008981,-0.749641,10.048903,0.007065,-0.000515,-0.000694,0.061035,0.061035,0.061035
1.657710,-0.008981,-0.754431,10.042916,0.007065,-0.005305,-0.006681,0.030518,0.061035,0.061035
1.667801,-0.006586,-0.760419,10.042317,0.009460,-0.011293,-0.007280,0.061035,0.061035,0.061035
1.678274,-0.010778,-0.765209,10.050699,0.005268,-0.016083,0.001102,0.091553,0.000000,0.000000
1.688364,-0.023351,-0.762215,10.056088,-0.007306,-0.013089,0.006491,0.091553,0.030518,0.000000
1.698456,-0.023950,-0.758024,10.048304,-0.007904,-0.008897,-0.001293,0.061035,0.061035,0.030518
1.708551,-0.018561,-0.753832,10.041718,-0.002516,-0.004706,-0.007879,0.030518,0.000000,0.030518
1.718693,-0.019160,-0.752635,10.047706,-0.003114,-0.003509,-0.001891,0.061035,-0.061035,0.030518
1.728828,-0.013173,-0.752635,10.054292,0.002873,-0.003509,0.004695,0.030518,-0.061035,0.000000
1.738955,-0.008383,-0.752036,10.051897,0.007663,-0.002910,0.002300,-0.030518,-0.030518,0.030518
1.749061,-0.014370,-0.748444,10.050699,0.001676,0.000683,0.001102,0.061035,-0.061035,0.030518
1.759178,-0.014370,-0.745450,10.043514,0.001676,0.003676,-0.006083,0.030518,-0.061035,0.061035
1.770255,-0.019759,-0.746647,10.047107,-0.003713,0.002479,-0.002490,0.000000,-0.061035,0.030518
1.780457,-0.014370,-0.748444,10.048903,0.001676,0.000683,-0.000694,0.000000,-0.030518,0.030518
1.790589,-0.016765,-0.747246,10.049502,-0.000719,0.001880,-0.000095,0.030518,-0.030518,0.030518
1.800686,-0.019160,-0.752036,10.050101,-0.003114,-0.002910,0.000504,0.000000,0.000000,0.061035
1.810785,-0.014370,-0.747845,10.050101,0.001676,0.001281,0.000504,-0.030518,0.000000,0.061035
1.820891,-0.019759,-0.746049,10.055490,-0.003713,0.003078,0.005892,0.000000,0.000000,0.061035
1.830986,-0.019160,-0.743654,10.057885,-0.003114,0.005473,0.008288,0.000000,-0.030518,0.030518
1.841081,-0.019160,-0.747246,10.060878,-0.003114,0.001880,0.011281,0.000000,0.030518,0.000000
1.851166,-0.018561,-0.748444,10.050101,-0.002516,0.000683,0.000504,0.030518,0.061035,0.000000
1.861234,-0.010778,-0.748444,10.053094,0.005268,0.000683,0.003497,0.061035,0.000000,0.000000
1.871308,-0.013771,-0.750839,10.058483,0.002275,-0.001712,0.008886,0.061035,0.000000,0.061035
1.881377,-0.016765,-0.753832,10.063872,-0.000719,-0.004706,0.014275,0.061035,0.000000,0.061035
1.891451,-0.020956,-0.756826,10.057286,-0.004911,-0.007700,0.007689,0.000000,0.000000,0.030518
1.901520,-0.019759,-0.749042,10.057885,-0.003713,0.000084,0.008288,0.030518,0.030518,0.000000
1.911586,-0.028740,-0.749042,10.049502,-0.012694,0.000084,-0.000095,0.000000,0.061035,0.030518
1.921653,-0.027543,-0.752036,10.055490,-0.011497,-0.002910,0.005892,0.000000,0.030518,0.061035
1.931730,-0.033530,-0.753832,10.057885,-0.017484,-0.004706,0.008288,0.061035,0.030518,0.061035
1.941796,-0.021555,-0.747845,10.057286,-0.005509,0.001281,0.007689,0.030518,0.030518,0.061035
1.951861,-0.018561,-0.744252,10.052496,-0.002516,0.004874,0.002899,0.000000,0.030518,0.061035
1.961928,-0.023950,-0.758024,10.048304,-0.007904,-0.008897,-0.001293,0.000000,0.030518,0.000000
1.971995,-0.026345,-0.756826,10.049502,-0.010299,-0.007700,-0.000095,0.061035,0.030518,0.030518
1.982062,-0.028740,-0.755030,10.042317,-0.012694,-0.005904,-0.007280,0.091553,0.030518,0.030518
1.992137,-0.023351,-0.749641,10.040521,-0.007306,-0.000515,-0.009076,0.061035,0.030518,0.030518
2.002323,-0.019160,-0.747246,10.036329,-0.003114,0.001880,-0.013268,0.061035,0.061035,0.000000
2.012399,-0.021555,-0.750240,10.038724,-0.005509,-0.001114,-0.010873,0.061035,0.030518,0.030518
2.022470,-0.017963,-0.743654,10.045311,-0.001917,0.005473,-0.004286,0.061035,0.030518,0.061035
2.032539,-0.022753,-0.741259,10.052496,-0.006707,0.007868,0.002899,0.030518,0.030518,0.061035
2.042608,-0.020358,-0.741259,10.048304,-0.004312,0.007868,-0.001293,0.030518,0.030518,0.061035
2.052691,-0.020358,-0.744851,10.044113,-0.004312,0.004275,-0.005484,0.061035,0.030518,0.061035
2.062760,-0.012574,-0.747845,10.044712,0.003472,0.001281,-0.004885,0.061035,0.030518,0.030518
2.072826,-0.012574,-0.754431,10.049502,0.003472,-0.005305,-0.000095,0.061035,0.000000,0.030518
2.082894,-0.008981,-0.753234,10.050101,0.007065,-0.004107,0.000504,0.091553,0.030518,0.030518
2.092963,-0.010778,-0.755030,10.053693,0.005268,-0.005904,0.004096,0.061035,0.030518,0.000000
2.103029,-0.011376,-0.750240,10.053094,0.004670,-0.001114,0.003497,0.030518,0.000000,0.030518
2.113107,-0.009580,-0.752635,10.049502,0.006466,-0.003509,-0.000095,0.061035,0.030518,0.030518
2.123174,-0.015568,-0.750240,10.063273,0.000478,-0.001114,0.013676,0.030518,0.000000,0.000000
2.133241,-0.016166,-0.753234,10.059681,-0.000120,-0.004107,0.010084,0.000000,0.030518,0.061035
2.143307,-0.021555,-0.755030,10.053693,-0.005509,-0.005904,0.004096,-0.030518,0.030518,0.061035
2.153374,-0.029938,-0.751437,10.047107,-0.013892,-0.002311,-0.002490,0.000000,0.030518,0.061035
2.163440,-0.029938,-0.755629,10.046508,-0.013892,-0.006502,-0.003089,0.000000,0.000000,0.061035
2.173525,-0.031734,-0.758622,10.044113,-0.015688,-0.009496,-0.005484,0.000000,0.000000,0.030518
2.183592,-0.033530,-0.753832,10.054292,-0.017484,-0.004706,0.004695,0.000000,0.030518,0.030518
2.193658,-0.033530,-0.750839,10.053094,-0.017484,-0.001712,0.003497,0.061035,0.030518,0.030518
2.203724,-0.031135,-0.752635,10.045909,-0.015089,-0.003509,-0.003688,0.061035,0.061035,0.061035
2.213790,-0.034129,-0.750240,10.048903,-0.018083,-0.001114,-0.000694,0.000000,0.061035,0.061035
2.223857,-0.025746,-0.749042,10.051897,-0.009701,0.000084,0.002300,0.000000,0.061035,0.030518
2.233935,-0.025746,-0.747845,10.051298,-0.009701,0.001281,0.001701,0.000000,0.061035,0.030518
2.244003,-0.024549,-0.752635,10.048903,-0.008503,-0.003509,-0.000694,0.000000,0.061035,0.030518
2.254070,-0.020358,-0.758024,10.042916,-0.004312,-0.008897,-0.006681,0.000000,0.030518,0.000000
2.264137,-0.017364,-0.761616,10.051298,-0.001318,-0.012490,0.001701,0.030518,0.061035,0.030518
2.274204,-0.017963,-0.762215,10.056088,-0.001917,-0.013089,0.006491,0.000000,0.091553,0.030518
2.284269,-0.019759,-0.761616,10.052496,-0.003713,-0.012490,0.002899,0.030518,0.091553,0.061035
2.294343,-0.016765,-0.752036,10.048903,-0.000719,-0.002910,-0.000694,0.000000,0.061035,0.030518
2.304411,-0.011975,-0.752036,10.048903,0.004071,-0.002910,-0.000694,0.000000,0.030518,0.030518
2.314478,-0.013173,-0.755030,10.050699,0.002873,-0.005904,0.001102,0.030518,0.030518,0.061035
2.324545,-0.019160,-0.749641,10.063273,-0.003114,-0.000515,0.013676,0.030518,0.030518,0.030518
2.334611,-0.024549,-0.756227,10.064471,-0.008503,-0.007101,0.014874,0.000000,0.030518,0.030518
2.344679,-0.020358,-0.758622,10.058483,-0.004312,-0.009496,0.008886,0.000000,0.000000,0.030518
2.354756,-0.017364,-0.760419,10.050699,-0.001318,-0.011293,0.001102,-0.030518,0.000000,0.061035
2.364824,-0.017364,-0.754431,10.044113,-0.001318,-0.005305,-0.005484,0.030518,0.030518,0.030518
2.374890,-0.020956,-0.759820,10.048304,-0.004911,-0.010694,-0.001293,0.030518,0.061035,0.000000
2.384957,-0.026944,-0.761017,10.056088,-0.010898,-0.011891,0.006491,0.061035,0.061035,-0.030518
2.395023,-0.026345,-0.758622,10.054292,-0.010299,-0.009496,0.004695,0.061035,0.030518,0.000000
2.405090,-0.020358,-0.761616,10.050699,-0.004312,-0.012490,0.001102,0.061035,0.061035,0.030518
2.415164,-0.020358,-0.756227,10.051298,-0.004312,-0.007101,0.001701,0.030518,0.061035,0.030518
2.425231,-0.023351,-0.755629,10.055490,-0.007306,-0.006502,0.005892,0.000000,0.061035,0.030518
2.435297,-0.020956,-0.761616,10.055490,-0.004911,-0.012490,0.005892,0.000000,0.091553,0.030518
2.445364,-0.016765,-0.755629,10.053094,-0.000719,-0.006502,0.003497,0.030518,0.091553,0.061035
2.455430,-0.018561,-0.750240,10.045909,-0.002516,-0.001114,-0.003688,0.061035,0.030518,0.030518
2.465495,-0.016765,-0.752036,10.040521,-0.000719,-0.002910,-0.009076,0.030518,0.000000,0.030518
2.475567,-0.021555,-0.745450,10.051897,-0.005509,0.003676,0.002300,0.030518,0.000000,0.030518
2.485643,-0.024549,-0.745450,10.051897,-0.008503,0.003676,0.002300,0.061035,0.000000,0.030518
2.495711,-0.025148,-0.750240,10.054292,-0.009102,-0.001114,0.004695,0.091553,0.000000,0.030518
2.505778,-0.029938,-0.758024,10.048903,-0.013892,-0.008897,-0.000694,0.091553,-0.030518,0.030518
2.515844,-0.027543,-0.761017,10.045311,-0.011497,-0.011891,-0.004286,0.091553,0.000000,0.061035
2.525911,-0.026944,-0.752635,10.051897,-0.010898,-0.003509,0.002300,0.061035,0.000000,0.061035
2.535978,-0.025148,-0.753832,10.051298,-0.009102,-0.004706,0.001701,0.091553,0.000000,0.061035
2.546051,-0.025148,-0.753234,10.055490,-0.009102,-0.004107,0.005892,0.091553,0.000000,0.061035
2.556117,-0.017963,-0.757425,10.050699,-0.001917,-0.008299,0.001102,0.091553,0.000000,0.061035
2.566185,-0.013771,-0.760419,10.053094,0.002275,-0.011293,0.003497,0.030518,0.061035,0.061035
2.576252,-0.008383,-0.757425,10.063872,0.007663,-0.008299,0.014275,0.061035,0.061035,0.030518
2.586318,-0.013771,-0.759221,10.056687,0.002275,-0.010095,0.007090,0.030518,0.061035,0.061035
2.596384,-0.010778,-0.752036,10.055490,0.005268,-0.002910,0.005892,0.061035,0.061035,0.030518
2.606457,-0.012574,-0.751437,10.054292,0.003472,-0.002311,0.004695,0.091553,0.061035,0.030518
2.616524,-0.019759,-0.749042,10.056687,-0.003713,0.000084,0.007090,0.091553,0.061035,0.061035
2.626590,-0.020358,-0.750839,10.057885,-0.004312,-0.001712,0.008288,0.091553,0.030518,0.061035
2.636657,-0.020956,-0.750240,10.053693,-0.004911,-0.001114,0.004096,0.061035,0.061035,0.030518
2.646723,-0.026345,-0.758622,10.052496,-0.010299,-0.009496,0.002899,0.061035,0.030518,0.000000
2.656789,-0.025746,-0.762215,10.054292,-0.009701,-0.013089,0.004695,0.030518,0.030518,0.030518
2.666856,-0.022753,-0.765807,10.059681,-0.006707,-0.016681,0.010084,0.061035,0.030518,0.030518
2.676922,-0.025746,-0.756227,10.063273,-0.009701,-0.007101,0.013676,0.061035,0.030518,0.030518
2.686996,-0.028740,-0.755030,10.060280,-0.012694,-0.005904,0.010683,0.030518,0.061035,0.030518
2.697063,-0.028740,-0.758024,10.059082,-0.012694,-0.008897,0.009485,0.061035,0.061035,0.030518
2.707129,-0.028740,-0.760419,10.053693,-0.012694,-0.011293,0.004096,0.061035,0.091553,0.061035
2.717195,-0.033530,-0.765209,10.059681,-0.017484,-0.016083,0.010084,0.061035,0.030518,0.030518
2.727261,-0.029339,-0.766406,10.057885,-0.013293,-0.017280,0.008288,0.030518,0.030518,0.000000
2.737331,-0.020358,-0.770598,10.056687,-0.004312,-0.021471,0.007090,0.091553,0.000000,0.030518
2.747397,-0.017364,-0.768203,10.050101,-0.001318,-0.019076,0.000504,0.091553,-0.030518,0.061035
2.757463,-0.017963,-0.759820,10.044113,-0.001917,-0.010694,-0.005484,0.061035,0.030518,0.030518
2.767545,-0.019160,-0.765209,10.051298,-0.003114,-0.016083,0.001701,0.061035,0.030518,0.030518
2.777625,-0.020956,-0.761017,10.053094,-0.004911,-0.011891,0.003497,0.091553,0.030518,0.000000
2.787692,-0.026345,-0.758024,10.060280,-0.010299,-0.008897,0.010683,0.091553,0.000000,0.030518
2.797760,-0.022753,-0.761616,10.063273,-0.006707,-0.012490,0.013676,0.061035,-0.030518,0.030518
2.807826,-0.020956,-0.755030,10.060878,-0.004911,-0.005904,0.011281,0.030518,-0.030518,0.030518
2.817892,-0.020956,-0.752635,10.067465,-0.004911,-0.003509,0.017868,0.030518,-0.030518,0.030518
2.827958,-0.023950,-0.757425,10.064471,-0.007904,-0.008299,0.014874,0.061035,0.030518,0.030518
2.838024,-0.023351,-0.760419,10.057885,-0.007306,-0.011293,0.008288,0.091553,0.000000,0.061035
2.848091,-0.026944,-0.764011,10.056088,-0.010898,-0.014885,0.006491,0.061035,0.000000,0.030518
2.858160,-0.025746,-0.759820,10.054891,-0.009701,-0.010694,0.005294,0.000000,0.000000,0.030518
2.868226,-0.025148,-0.752635,10.053094,-0.009102,-0.003509,0.003497,0.030518,0.000000,0.030518
2.878292,-0.023351,-0.754431,10.055490,-0.007306,-0.005305,0.005892,0.061035,0.000000,0.061035
2.888476,-0.020358,-0.757425,10.054891,-0.004312,-0.008299,0.005294,0.061035,-0.030518,0.061035
2.898541,-0.021555,-0.760419,10.045311,-0.005509,-0.011293,-0.004286,0.091553,0.030518,0.061035
2.908635,-0.016765,-0.761616,10.050101,-0.000719,-0.012490,0.000504,0.091553,0.030518,0.061035
2.918700,-0.018561,-0.758024,10.068662,-0.002516,-0.008897,0.019065,0.000000,0.000000,0.030518
2.928765,-0.019160,-0.753832,10.073452,-0.003114,-0.004706,0.023855,0.000000,0.030518,0.030518
2.938829,-0.016765,-0.752635,10.073452,-0.000719,-0.003509,0.023855,0.000000,0.030518,0.061035
2.948894,-0.014370,-0.750839,10.062076,0.001676,-0.001712,0.012479,0.030518,0.061035,0.061035
2.958964,-0.016166,-0.750839,10.057885,-0.000120,-0.001712,0.008288,0.030518,0.030518,0.061035
2.969028,-0.010778,-0.756826,10.062076,0.005268,-0.007700,0.012479,0.091553,0.000000,0.061035
2.979093,-0.006586,-0.754431,10.065070,0.009460,-0.005305,0.015473,0.091553,0.030518,0.061035
2.989166,-0.007784,-0.750839,10.067465,0.008262,-0.001712,0.017868,0.061035,0.000000,0.030518
2.999232,-0.013173,-0.749641,10.065668,0.002873,-0.000515,0.016071,0.061035,0.000000,0.030518
3.009296,-0.012574,-0.747246,10.064471,0.003472,0.001880,0.014874,0.030518,0.030518,0.061035
3.019361,-0.020956,-0.755629,10.061477,-0.004911,-0.006502,0.011880,0.030518,0.061035,0.061035
3.029426,-0.027543,-0.752635,10.063273,-0.011497,-0.003509,0.013676,0.061035,0.061035,0.061035
3.039490,-0.026345,-0.752635,10.059082,-0.010299,-0.003509,0.009485,0.061035,0.061035,0.061035
3.049562,-0.023950,-0.762215,10.059681,-0.007904,-0.013089,0.010084,0.061035,0.061035,0.061035
3.059626,-0.020358,-0.756227,10.051298,-0.004312,-0.007101,0.001701,0.091553,0.030518,0.061035
3.069691,-0.026944,-0.758622,10.056687,-0.010898,-0.009496,0.007090,0.122070,0.030518,0.061035
3.079756,-0.023950,-0.757425,10.058483,-0.007904,-0.008299,0.008886,0.122070,0.000000,0.030518
3.089820,-0.020956,-0.768801,10.063273,-0.004911,-0.019675,0.013676,0.122070,0.000000,0.030518
3.099885,-0.018561,-0.767005,10.064471,-0.002516,-0.017879,0.014874,0.122070,0.000000,0.000000
3.109956,-0.012574,-0.761616,10.064471,0.003472,-0.012490,0.014874,0.061035,0.000000,0.030518
3.120021,-0.016166,-0.754431,10.071656,-0.000120,-0.005305,0.022059,0.061035,0.000000,0.000000
3.130091,-0.006586,-0.746049,10.072853,0.009460,0.003078,0.023256,0.030518,0.000000,-0.030518
3.140162,-0.004790,-0.746049,10.068662,0.011256,0.003078,0.019065,0.030518,-0.030518,-0.030518
3.150227,-0.010179,-0.749641,10.057885,0.005867,-0.000515,0.008288,0.091553,0.000000,0.030518
3.160291,-0.011376,-0.752036,10.053693,0.004670,-0.002910,0.004096,0.061035,0.030518,0.030518
3.170362,-0.016765,-0.750839,10.062076,-0.000719,-0.001712,0.012479,0.030518,0.030518,0.000000
3.180426,-0.020358,-0.752036,10.069860,-0.004312,-0.002910,0.020263,0.030518,0.030518,0.000000
3.190491,-0.018561,-0.751437,10.066267,-0.002516,-0.002311,0.016670,0.030518,0.030518,0.030518
3.200556,-0.014969,-0.754431,10.060280,0.001077,-0.005305,0.010683,0.030518,0.000000,-0.030518
3.210621,-0.021555,-0.755629,10.056088,-0.005509,-0.006502,0.006491,0.030518,-0.030518,-0.030518
3.220686,-0.023950,-0.752635,10.054891,-0.007904,-0.003509,0.005294,0.030518,-0.030518,0.030518
3.230760,-0.025746,-0.761616,10.054891,-0.009701,-0.012490,0.005294,0.030518,-0.030518,0.061035
3.240827,-0.025148,-0.762215,10.054891,-0.009102,-0.013089,0.005294,0.030518,0.000000,0.061035
3.250892,-0.022753,-0.758024,10.054292,-0.006707,-0.008897,0.004695,0.091553,0.000000,0.030518
3.260959,-0.022154,-0.755030,10.056687,-0.006108,-0.005904,0.007090,0.091553,0.000000,0.030518
3.271024,-0.013771,-0.753832,10.066866,0.002275,-0.004706,0.017269,0.061035,0.061035,0.061035
3.281089,-0.018561,-0.750240,10.069261,-0.002516,-0.001114,0.019664,0.030518,0.030518,0.030518
3.291161,-0.019160,-0.752036,10.069261,-0.003114,-0.002910,0.019664,0.030518,0.061035,0.000000
3.301227,-0.020956,-0.745450,10.058483,-0.004911,0.003676,0.008886,0.030518,0.061035,0.000000
3.311292,-0.013771,-0.749042,10.054292,0.002275,0.000084,0.004695,0.061035,0.030518,0.000000
3.321358,-0.013771,-0.756826,10.066866,0.002275,-0.007700,0.017269,0.061035,0.030518,0.030518
3.331422,-0.017364,-0.756826,10.069860,-0.001318,-0.007700,0.020263,0.061035,0.061035,0.030518
3.341488,-0.025148,-0.763412,10.067465,-0.009102,-0.014286,0.017868,0.030518,0.030518,0.000000
3.351560,-0.028740,-0.761017,10.065070,-0.012694,-0.011891,0.015473,0.000000,0.030518,0.000000
3.361627,-0.025148,-0.759820,10.063273,-0.009102,-0.010694,0.013676,0.061035,0.000000,0.000000
3.371691,-0.020358,-0.755030,10.069860,-0.004312,-0.005904,0.020263,0.091553,0.000000,0.000000
3.381757,-0.021555,-0.759820,10.075847,-0.005509,-0.010694,0.026250,0.091553,0.000000,0.000000
3.391823,-0.018561,-0.747246,10.071057,-0.002516,0.001880,0.021460,0.061035,0.030518,-0.030518
3.401888,-0.019160,-0.744851,10.068063,-0.003114,0.004275,0.018466,0.061035,0.030518,0.030518
3.411961,-0.014370,-0.743055,10.067465,0.001676,0.006071,0.017868,0.061035,0.000000,0.030518
3.422027,-0.011376,-0.741857,10.072853,0.004670,0.007269,0.023256,0.061035,0.030518,0.061035
3.432092,-0.013173,-0.743055,10.071656,0.002873,0.006071,0.022059,0.030518,0.030518,0.061035
3.442157,-0.010778,-0.743055,10.061477,0.005268,0.006071,0.011880,0.030518,0.061035,0.061035
3.452221,-0.007784,-0.743055,10.067465,0.008262,0.006071,0.017868,0.061035,0.061035,0.061035
3.462286,-0.010778,-0.746049,10.062675,0.005268,0.003078,0.013078,0.030518,0.091553,0.061035
3.472353,-0.011376,-0.743654,10.066866,0.004670,0.005473,0.017269,0.030518,0.061035,0.061035
3.482427,-0.019759,-0.747845,10.073452,-0.003713,0.001281,0.023855,0.030518,0.061035,0.061035
3.492494,-0.019160,-0.752036,10.071057,-0.003114,-0.002910,0.021460,0.000000,0.061035,0.061035
3.502560,-0.017364,-0.753234,10.069860,-0.001318,-0.004107,0.020263,0.030518,0.030518,0.030518
3.512626,-0.020956,-0.745450,10.071656,-0.004911,0.003676,0.022059,0.000000,0.030518,0.030518
3.522692,-0.021555,-0.744851,10.074051,-0.005509,0.004275,0.024454,0.000000,0.030518,0.000000
3.532757,-0.023351,-0.740061,10.077045,-0.007306,0.009065,0.027448,0.000000,0.061035,0.030518
3.542829,-0.024549,-0.738265,10.068662,-0.008503,0.010861,0.019065,0.030518,0.000000,0.000000
3.552894,-0.019160,-0.747845,10.064471,-0.003114,0.001281,0.014874,0.030518,0.000000,0.061035
3.562964,-0.017364,-0.744252,10.066267,-0.001318,0.004874,0.016670,0.030518,0.030518,0.061035
3.573035,-0.013173,-0.745450,10.069860,0.002873,0.003676,0.020263,0.061035,0.030518,0.061035
3.583101,-0.018561,-0.743055,10.074650,-0.002516,0.006071,0.025053,0.091553,0.030518,0.061035
3.593167,-0.019759,-0.741857,10.072255,-0.003713,0.007269,0.022658,0.091553,0.030518,0.061035
3.603240,-0.023351,-0.740061,10.070458,-0.007306,0.009065,0.020861,0.061035,0.030518,0.000000
3.613307,-0.020956,-0.743654,10.066866,-0.004911,0.005473,0.017269,0.061035,0.061035,0.000000
3.623373,-0.010778,-0.755629,10.065668,0.005268,-0.006502,0.016071,0.061035,0.000000,0.000000
3.633440,-0.009580,-0.756826,10.062675,0.006466,-0.007700,0.013078,0.061035,0.000000,0.030518
3.643506,-0.009580,-0.758024,10.057885,0.006466,-0.008897,0.008288,0.061035,-0.061035,0.000000
3.653572,-0.015568,-0.758622,10.056687,0.000478,-0.009496,0.007090,0.030518,-0.030518,0.030518
3.663644,-0.015568,-0.759221,10.060280,0.000478,-0.010095,0.010683,0.061035,0.030518,0.030518
3.673711,-0.005389,-0.753832,10.063872,0.010657,-0.004706,0.014275,0.061035,0.030518,0.030518
3.683786,-0.012574,-0.755030,10.065668,0.003472,-0.005904,0.016071,0.061035,0.030518,0.000000
3.693852,-0.017963,-0.752635,10.064471,-0.001917,-0.003509,0.014874,0.030518,0.030518,0.061035
3.703918,-0.019160,-0.751437,10.061477,-0.003114,-0.002311,0.011880,0.061035,0.000000,0.061035
3.713985,-0.025148,-0.747246,10.062675,-0.009102,0.001880,0.013078,0.061035,0.030518,0.061035
3.724052,-0.019759,-0.751437,10.065070,-0.003713,-0.002311,0.015473,0.091553,0.030518,0.061035
3.734117,-0.023950,-0.749042,10.067465,-0.007904,0.000084,0.017868,0.091553,0.030518,0.030518
3.744275,-0.023950,-0.749042,10.068063,-0.007904,0.000084,0.018466,0.122070,0.061035,0.030518
3.754342,-0.025746,-0.749641,10.063872,-0.009701,-0.000515,0.014275,0.091553,0.061035,0.000000
3.764408,-0.019759,-0.752635,10.069860,-0.003713,-0.003509,0.020263,0.030518,0.061035,0.030518
3.774474,-0.020358,-0.753234,10.068662,-0.004312,-0.004107,0.019065,0.030518,0.061035,0.000000
3.784542,-0.018561,-0.752635,10.071656,-0.002516,-0.003509,0.022059,0.061035,0.061035,0.030518
3.794608,-0.031734,-0.750839,10.059681,-0.015688,-0.001712,0.010084,0.061035,0.091553,0.030518
3.804682,-0.032333,-0.750839,10.068662,-0.016287,-0.001712,0.019065,0.061035,0.061035,0.030518
3.814751,-0.032333,-0.750240,10.068063,-0.016287,-0.001114,0.018466,0.000000,0.061035,0.000000
3.824817,-0.027543,-0.758024,10.071057,-0.011497,-0.008897,0.021460,0.030518,0.061035,0.000000
3.834884,-0.029339,-0.753832,10.072255,-0.013293,-0.004706,0.022658,0.061035,0.061035,0.000000
3.844950,-0.029339,-0.744851,10.073452,-0.013293,0.004275,0.023855,0.061035,0.030518,0.000000
3.855016,-0.022753,-0.743654,10.076446,-0.006707,0.005473,0.026849,0.091553,0.030518,0.030518
3.865091,-0.016765,-0.741259,10.074650,-0.000719,0.007868,0.025053,0.061035,0.030518,0.030518
3.875157,-0.020358,-0.743055,10.078841,-0.004312,0.006071,0.029244,0.030518,0.030518,0.061035
3.885224,-0.016166,-0.747246,10.069860,-0.000120,0.001880,0.020263,0.061035,0.061035,0.061035
3.895291,-0.008981,-0.748444,10.071057,0.007065,0.000683,0.021460,0.030518,0.061035,0.030518
3.905357,-0.010179,-0.753832,10.067465,0.005867,-0.004706,0.017868,0.030518,0.030518,0.030518
3.915424,-0.006586,-0.753832,10.068662,0.009460,-0.004706,0.019065,0.061035,0.030518,0.000000
3.925495,-0.011376,-0.752635,10.070458,0.004670,-0.003509,0.020861,0.030518,0.030518,0.000000
3.935561,-0.019160,-0.753234,10.070458,-0.003114,-0.004107,0.020861,0.000000,0.061035,0.030518
3.945634,-0.019160,-0.747246,10.066866,-0.003114,0.001880,0.017269,0.030518,0.030518,0.000000
3.955700,-0.013173,-0.750240,10.052496,0.002873,-0.001114,0.002899,0.000000,0.000000,0.030518
3.965768,-0.011975,-0.753832,10.056088,0.004071,-0.004706,0.006491,0.061035,0.061035,0.030518
3.975834,-0.019759,-0.749641,10.067465,-0.003713,-0.000515,0.017868,0.061035,0.061035,-0.030518
3.985909,-0.023351,-0.747246,10.063273,-0.007306,0.001880,0.013676,0.030518,0.061035,0.000000
3.995976,-0.022753,-0.743654,10.060878,-0.006707,0.005473,0.011281,0.061035,0.030518,0.000000
4.006042,-0.027543,-0.756826,10.052496,-0.011497,-0.007700,0.002899,0.061035,0.000000,0.000000
4.016108,-0.020358,-0.754431,10.059681,-0.004312,-0.005305,0.010084,0.061035,0.000000,0.030518
4.026175,-0.022154,-0.759221,10.071057,-0.006108,-0.010095,0.021460,0.091553,0.000000,0.030518
4.036241,-0.021555,-0.757425,10.071057,-0.005509,-0.008299,0.021460,0.091553,0.000000,0.061035
4.046308,-0.019759,-0.754431,10.063872,-0.003713,-0.005305,0.014275,0.061035,0.000000,0.061035
4.056375,-0.015568,-0.755629,10.059681,0.000478,-0.006502,0.010084,0.091553,0.030518,0.000000
4.066441,-0.019160,-0.750240,10.062076,-0.003114,-0.001114,0.012479,0.030518,0.030518,0.030518
4.076507,-0.018561,-0.752635,10.062076,-0.002516,-0.003509,0.012479,0.030518,0.030518,0.000000
4.086573,-0.017364,-0.747845,10.060878,-0.001318,0.001281,0.011281,0.061035,0.000000,0.030518
4.096640,-0.011975,-0.744851,10.057286,0.004071,0.004275,0.007689,0.061035,0.000000,0.000000
4.106709,-0.011975,-0.749042,10.057286,0.004071,0.000084,0.007689,0.061035,0.000000,0.030518
4.116775,-0.013173,-0.743055,10.058483,0.002873,0.006071,0.008886,0.091553,0.030518,0.061035
4.126841,-0.014370,-0.747246,10.060878,0.001676,0.001880,0.011281,0.061035,0.030518,0.000000
4.136907,-0.014969,-0.747246,10.056088,0.001077,0.001880,0.006491,0.030518,0.030518,0.030518
4.146973,-0.017364,-0.742456,10.057885,-0.001318,0.006670,0.008288,0.030518,0.030518,0.000000
4.157039,-0.017364,-0.746049,10.057286,-0.001318,0.003078,0.007689,0.000000,0.061035,-0.030518
4.167107,-0.020956,-0.756227,10.061477,-0.004911,-0.007101,0.011880,0.030518,0.061035,0.000000
4.177174,-0.024549,-0.762215,10.063872,-0.008503,-0.013089,0.014275,0.030518,0.091553,0.030518
4.187240,-0.023351,-0.759820,10.057286,-0.007306,-0.010694,0.007689,0.030518,0.030518,0.030518
4.197306,-0.019759,-0.759820,10.058483,-0.003713,-0.010694,0.008886,0.030518,0.030518,0.030518
4.207372,-0.019160,-0.751437,10.059681,-0.003114,-0.002311,0.010084,0.000000,0.061035,0.030518
4.217438,-0.015568,-0.751437,10.061477,0.000478,-0.002311,0.011880,0.030518,0.030518,0.030518
4.227505,-0.015568,-0.746049,10.063273,0.000478,0.003078,0.013676,-0.030518,0.030518,0.030518
4.237575,-0.010778,-0.741857,10.063872,0.005268,0.007269,0.014275,-0.030518,0.030518,0.030518
4.247641,-0.012574,-0.744252,10.066267,0.003472,0.004874,0.016670,-0.030518,0.000000,0.061035
4.257708,-0.013771,-0.749042,10.068662,0.002275,0.000084,0.019065,0.000000,0.030518,0.030518
4.267779,-0.014969,-0.746647,10.069860,0.001077,0.002479,0.020263,0.030518,0.030518,0.061035
4.277844,-0.023950,-0.749042,10.071656,-0.007904,0.000084,0.022059,0.000000,0.030518,0.061035
4.287911,-0.016166,-0.753234,10.069261,-0.000120,-0.004107,0.019664,0.030518,0.061035,0.061035
4.297977,-0.026345,-0.754431,10.065668,-0.010299,-0.005305,0.016071,0.061035,0.030518,0.030518
4.308043,-0.026944,-0.759221,10.056088,-0.010898,-0.010095,0.006491,0.030518,0.030518,0.000000
4.318110,-0.026345,-0.761017,10.060280,-0.010299,-0.011891,0.010683,0.061035,0.000000,0.030518
4.328175,-0.019160,-0.755030,10.059681,-0.003114,-0.005904,0.010084,0.091553,0.030518,0.030518
4.338243,-0.016166,-0.756826,10.056687,-0.000120,-0.007700,0.007090,0.091553,0.030518,0.030518
4.348310,-0.009580,-0.757425,10.055490,0.006466,-0.008299,0.005892,0.061035,0.000000,0.030518
4.358380,-0.011975,-0.758024,10.053094,0.004071,-0.008897,0.003497,0.061035,0.030518,0.061035
4.368445,-0.013771,-0.760419,10.057885,0.002275,-0.011293,0.008288,0.030518,0.030518,0.061035
4.378510,-0.026944,-0.758024,10.060280,-0.010898,-0.008897,0.010683,0.000000,0.030518,0.061035
4.388575,-0.017963,-0.754431,10.063872,-0.001917,-0.005305,0.014275,0.000000,0.030518,0.030518
4.398639,-0.014370,-0.756826,10.063872,0.001676,-0.007700,0.014275,0.030518,0.030518,0.030518
4.408711,-0.016765,-0.755030,10.056687,-0.000719,-0.005904,0.007090,0.000000,0.000000,0.000000
4.418777,-0.021555,-0.759820,10.065668,-0.005509,-0.010694,0.016071,-0.030518,0.000000,0.000000
4.428842,-0.016765,-0.752635,10.064471,-0.000719,-0.003509,0.014874,-0.030518,0.000000,0.000000
4.438908,-0.016166,-0.752635,10.066866,-0.000120,-0.003509,0.017269,0.000000,0.030518,0.030518
4.448972,-0.022753,-0.753234,10.062076,-0.006707,-0.004107,0.012479,0.030518,0.061035,0.000000
4.459037,-0.013173,-0.750240,10.065668,0.002873,-0.001114,0.016071,0.000000,0.061035,0.000000
4.469101,-0.014370,-0.750240,10.067465,0.001676,-0.001114,0.017868,0.000000,0.030518,0.000000
4.479166,-0.015568,-0.752635,10.068662,0.000478,-0.003509,0.019065,0.000000,0.030518,0.000000
4.489239,-0.023351,-0.752036,10.065668,-0.007306,-0.002910,0.016071,0.000000,0.030518,0.061035
4.499305,-0.026944,-0.757425,10.059681,-0.010898,-0.008299,0.010084,0.030518,0.030518,0.030518
4.509369,-0.020358,-0.756826,10.066267,-0.004312,-0.007700,0.016670,0.000000,0.030518,0.030518
4.519434,-0.017364,-0.759820,10.069261,-0.001318,-0.010694,0.019664,0.000000,0.000000,0.061035
4.529499,-0.018561,-0.753234,10.066866,-0.002516,-0.004107,0.017269,0.000000,0.000000,0.061035
4.539564,-0.022753,-0.754431,10.060878,-0.006707,-0.005305,0.011281,0.030518,0.061035,0.061035
4.549637,-0.022753,-0.755030,10.053094,-0.006707,-0.005904,0.003497,0.030518,0.030518,0.061035
4.559702,-0.027543,-0.759820,10.056687,-0.011497,-0.010694,0.007090,0.061035,0.061035,0.030518
4.569767,-0.029339,-0.759820,10.061477,-0.013293,-0.010694,0.011880,0.091553,0.061035,0.000000
4.579832,-0.033530,-0.757425,10.061477,-0.017484,-0.008299,0.011880,0.030518,0.030518,0.000000
4.589896,-0.026944,-0.764011,10.066267,-0.010898,-0.014885,0.016670,0.030518,0.061035,0.030518
4.599961,-0.029938,-0.759221,10.059082,-0.013892,-0.010095,0.009485,0.061035,0.030518,0.061035
4.610036,-0.029339,-0.753832,10.057885,-0.013293,-0.004706,0.008288,0.061035,0.000000,0.061035
4.620112,-0.031135,-0.752635,10.067465,-0.015089,-0.003509,0.017868,0.030518,0.000000,0.061035
4.630177,-0.028141,-0.752635,10.071656,-0.012096,-0.003509,0.022059,0.030518,-0.030518,0.030518
4.640242,-0.026944,-0.755629,10.064471,-0.010898,-0.006502,0.014874,0.061035,-0.030518,0.030518
4.650307,-0.017364,-0.753234,10.066267,-0.001318,-0.004107,0.016670,0.091553,0.030518,0.030518
4.660372,-0.014969,-0.755030,10.061477,0.001077,-0.005904,0.011880,0.091553,0.030518,0.030518
4.670444,-0.013173,-0.758024,10.068063,0.002873,-0.008897,0.018466,0.091553,0.030518,0.030518
4.680509,-0.015568,-0.750839,10.070458,0.000478,-0.001712,0.020861,0.061035,0.030518,0.061035
4.690576,-0.014370,-0.752635,10.066866,0.001676,-0.003509,0.017269,0.030518,0.061035,0.061035
4.700641,-0.013173,-0.752036,10.054891,0.002873,-0.002910,0.005294,0.030518,0.091553,0.030518
4.710708,-0.016166,-0.743654,10.058483,-0.000120,0.005473,0.008886,0.030518,0.061035,0.061035
4.720777,-0.015568,-0.744851,10.065668,0.000478,0.004275,0.016071,-0.030518,0.000000,0.061035
4.730851,-0.019160,-0.748444,10.065070,-0.003114,0.000683,0.015473,-0.030518,0.000000,0.061035
4.740918,-0.020358,-0.751437,10.063872,-0.004312,-0.002311,0.014275,0.000000,0.030518,0.061035
4.750983,-0.014370,-0.762215,10.067465,0.001676,-0.013089,0.017868,0.000000,0.030518,0.030518
4.761056,-0.015568,-0.758024,10.065668,0.000478,-0.008897,0.016071,0.030518,0.061035,0.000000
4.771122,-0.019759,-0.746647,10.074650,-0.003713,0.002479,0.025053,0.000000,0.030518,0.061035
4.781187,-0.021555,-0.749641,10.071656,-0.005509,-0.000515,0.022059,0.000000,0.030518,0.030518
4.791258,-0.018561,-0.752635,10.072853,-0.002516,-0.003509,0.023256,0.030518,0.030518,0.000000
4.801323,-0.016765,-0.746049,10.067465,-0.000719,0.003078,0.017868,0.061035,0.030518,0.000000
4.811388,-0.018561,-0.753234,10.071057,-0.002516,-0.004107,0.021460,0.061035,0.030518,0.030518
4.821455,-0.011376,-0.749042,10.075248,0.004670,0.000084,0.025651,0.091553,0.061035,0.000000
4.831520,-0.017963,-0.747246,10.071656,-0.001917,0.001880,0.022059,0.091553,0.030518,0.000000
4.841584,-0.019160,-0.744252,10.070458,-0.003114,0.004874,0.020861,0.091553,0.030518,0.000000
4.851649,-0.017364,-0.747246,10.066866,-0.001318,0.001880,0.017269,0.030518,0.061035,0.000000
4.861724,-0.016765,-0.744851,10.062675,-0.000719,0.004275,0.013078,0.061035,0.030518,-0.030518
4.871789,-0.015568,-0.747845,10.071057,0.000478,0.001281,0.021460,0.000000,0.000000,-0.030518
4.881854,-0.015568,-0.742456,10.074650,0.000478,0.006670,0.025053,-0.030518,-0.030518,-0.030518
4.891922,-0.019160,-0.753234,10.065070,-0.003114,-0.004107,0.015473,-0.030518,0.000000,0.000000
4.901988,-0.015568,-0.754431,10.066866,0.000478,-0.005305,0.017269,-0.030518,0.030518,0.000000
4.912052,-0.011975,-0.751437,10.077643,0.004071,-0.002311,0.028046,-0.030518,0.000000,0.000000
4.922123,-0.012574,-0.749042,10.077643,0.003472,0.000084,0.028046,0.000000,0.000000,0.030518
4.932188,-0.017364,-0.754431,10.072853,-0.001318,-0.005305,0.023256,0.030518,0.000000,0.000000
4.942254,-0.016166,-0.756227,10.069860,-0.000120,-0.007101,0.020263,0.061035,0.000000,0.030518
4.952319,-0.021555,-0.754431,10.068063,-0.005509,-0.005305,0.018466,0.030518,-0.030518,0.030518
4.962384,-0.012574,-0.746049,10.071656,0.003472,0.003078,0.022059,0.030518,0.000000,0.000000
4.972450,-0.011376,-0.746049,10.077643,0.004670,0.003078,0.028046,0.061035,0.030518,0.000000
4.982522,-0.014370,-0.748444,10.072853,0.001676,0.000683,0.023256,0.061035,0.030518,0.030518
4.992588,-0.011376,-0.747845,10.068662,0.004670,0.001281,0.019065,0.030518,0.030518,0.030518
5.002654,-0.007784,-0.747845,10.062675,0.008262,0.001281,0.013078,0.061035,0.030518,0.030518
5.012720,-0.016166,-0.737067,10.073452,-0.000120,0.012059,0.023855,0.061035,0.030518,0.030518
5.022786,-0.011975,-0.733475,10.077045,0.004071,0.015651,0.027448,0.030518,0.061035,0.030518
5.032852,-0.023950,-0.738265,10.069860,-0.007904,0.010861,0.020263,0.061035,0.030518,-0.030518
5.042924,-0.023950,-0.739462,10.068063,-0.007904,0.009664,0.018466,0.030518,0.030518,0.000000
5.052990,-0.023950,-0.741259,10.066267,-0.007904,0.007868,0.016670,0.030518,0.030518,0.000000
5.063055,-0.022753,-0.743055,10.066267,-0.006707,0.006071,0.016670,0.061035,0.030518,0.030518
5.073122,-0.024549,-0.746049,10.066267,-0.008503,0.003078,0.016670,0.061035,0.030518,0.061035
5.083187,-0.023351,-0.741857,10.070458,-0.007306,0.007269,0.020861,0.091553,0.030518,0.061035
5.093252,-0.025746,-0.740061,10.068662,-0.009701,0.009065,0.019065,0.091553,0.030518,0.030518
5.103326,-0.020956,-0.747246,10.065668,-0.004911,0.001880,0.016071,0.091553,0.000000,0.030518
5.113399,-0.014370,-0.739462,10.066267,0.001676,0.009664,0.016670,0.061035,-0.030518,0.030518
5.123465,-0.019160,-0.738265,10.074051,-0.003114,0.010861,0.024454,0.030518,-0.030518,0.030518
5.133537,-0.018561,-0.738864,10.070458,-0.002516,0.010263,0.020861,0.030518,0.000000,0.000000
5.143602,-0.015568,-0.741857,10.068063,0.000478,0.007269,0.018466,0.030518,0.000000,0.061035
5.153667,-0.017963,-0.736469,10.063273,-0.001917,0.012658,0.013676,0.030518,0.000000,0.030518
5.163738,-0.011376,-0.740061,10.066866,0.004670,0.009065,0.017269,0.030518,0.030518,0.030518
5.173810,-0.013771,-0.738265,10.075248,0.002275,0.010861,0.025651,0.061035,0.030518,0.030518
5.183876,-0.013173,-0.741857,10.074650,0.002873,0.007269,0.025053,0.061035,0.061035,0.030518
5.193944,-0.016765,-0.748444,10.075847,-0.000719,0.000683,0.026250,0.030518,0.030518,0.061035
5.204011,-0.014969,-0.752036,10.068063,0.001077,-0.002910,0.018466,0.030518,0.061035,0.061035
5.214076,-0.016765,-0.750839,10.068063,-0.000719,-0.001712,0.018466,0.030518,0.061035,0.061035
5.224142,-0.009580,-0.743654,10.073452,0.006466,0.005473,0.023855,0.061035,0.030518,0.061035
5.234218,-0.011975,-0.738864,10.071057,0.004071,0.010263,0.021460,0.091553,0.030518,0.030518
5.244284,-0.013771,-0.749042,10.062675,0.002275,0.000084,0.013078,0.091553,0.030518,0.030518
5.254357,-0.010179,-0.756227,10.058483,0.005867,-0.007101,0.008886,0.091553,0.061035,0.030518
5.264424,-0.011376,-0.752036,10.062076,0.004670,-0.002910,0.012479,0.091553,0.061035,0.000000
5.274489,-0.015568,-0.752635,10.063872,0.000478,-0.003509,0.014275,0.061035,0.061035,0.030518
5.284555,-0.015568,-0.748444,10.066267,0.000478,0.000683,0.016670,0.030518,0.061035,0.000000
5.294630,-0.009580,-0.754431,10.062076,0.006466,-0.005305,0.012479,0.000000,0.030518,-0.030518
5.304696,-0.009580,-0.754431,10.059681,0.006466,-0.005305,0.010084,0.030518,0.030518,0.030518
5.314764,-0.004790,-0.752036,10.072853,0.011256,-0.002910,0.023256,0.030518,0.030518,0.030518
5.324837,-0.008981,-0.752635,10.071656,0.007065,-0.003509,0.022059,0.030518,0.030518,0.030518
5.334903,-0.014969,-0.755030,10.067465,0.001077,-0.005904,0.017868,0.000000,0.030518,0.030518
5.344968,-0.019759,-0.756227,10.062675,-0.003713,-0.007101,0.013078,0.000000,0.030518,0.000000
5.355041,-0.024549,-0.751437,10.062675,-0.008503,-0.002311,0.013078,0.030518,0.061035,0.000000
5.365113,-0.028141,-0.749042,10.072255,-0.012096,0.000084,0.022658,0.061035,0.061035,0.030518
5.375180,-0.023351,-0.750240,10.074051,-0.007306,-0.001114,0.024454,0.030518,0.091553,0.000000
5.385245,-0.028740,-0.746647,10.071057,-0.012694,0.002479,0.021460,0.000000,0.061035,0.000000
5.395311,-0.032333,-0.746049,10.070458,-0.016287,0.003078,0.020861,0.030518,0.061035,0.000000
5.405377,-0.027543,-0.740660,10.072255,-0.011497,0.008466,0.022658,0.000000,0.061035,0.030518
5.415450,-0.021555,-0.734672,10.074650,-0.005509,0.014454,0.025053,0.000000,0.091553,0.030518
5.425516,-0.016765,-0.743654,10.078242,-0.000719,0.005473,0.028645,0.000000,0.061035,0.000000
5.435583,-0.016166,-0.741857,10.073452,-0.000120,0.007269,0.023855,0.000000,0.030518,0.030518
5.445649,-0.013173,-0.743055,10.068662,0.002873,0.006071,0.019065,0.030518,0.061035,0.030518
5.455714,-0.005389,-0.750240,10.064471,0.010657,-0.001114,0.014874,0.030518,0.030518,0.000000
5.465780,-0.005389,-0.750240,10.068063,0.010657,-0.001114,0.018466,0.030518,0.061035,0.000000
5.475846,-0.016765,-0.749042,10.074650,-0.000719,0.000084,0.025053,0.000000,0.061035,0.000000
5.485912,-0.015568,-0.749641,10.075847,0.000478,-0.000515,0.026250,0.030518,0.030518,-0.030518
5.496036,-0.021555,-0.751437,10.063872,-0.005509,-0.002311,0.014275,-0.030518,0.061035,0.000000
5.506103,-0.023351,-0.749641,10.065070,-0.007306,-0.000515,0.015473,-0.061035,0.030518,0.000000
5.516169,-0.019759,-0.746647,10.071057,-0.003713,0.002479,0.021460,-0.030518,0.030518,0.000000
5.526236,-0.017364,-0.750240,10.069860,-0.001318,-0.001114,0.020263,0.000000,0.030518,0.000000
5.536301,-0.013173,-0.755629,10.066866,0.002873,-0.006502,0.017269,-0.030518,0.030518,0.000000
5.546366,-0.007185,-0.749641,10.065668,0.008861,-0.000515,0.016071,0.030518,0.030518,0.030518
5.556434,-0.009580,-0.753234,10.057286,0.006466,-0.004107,0.007689,0.030518,0.061035,0.030518
5.566500,-0.011975,-0.750240,10.065668,0.004071,-0.001114,0.016071,0.000000,0.061035,0.030518
5.576566,-0.021555,-0.751437,10.062675,-0.005509,-0.002311,0.013078,0.030518,0.030518,0.030518
5.586632,-0.023351,-0.754431,10.061477,-0.007306,-0.005305,0.011880,0.030518,0.061035,0.030518
5.596699,-0.023351,-0.748444,10.059082,-0.007306,0.000683,0.009485,0.000000,0.030518,0.030518
5.606764,-0.026944,-0.741259,10.057286,-0.010898,0.007868,0.007689,0.000000,0.000000,0.030518
5.616833,-0.028740,-0.752036,10.066267,-0.012694,-0.002910,0.016670,0.030518,0.061035,0.000000
5.626902,-0.030536,-0.755030,10.074051,-0.014491,-0.005904,0.024454,0.061035,0.061035,0.030518
5.636968,-0.034129,-0.750839,10.071656,-0.018083,-0.001712,0.022059,0.061035,0.030518,0.000000
5.647041,-0.031135,-0.756227,10.066866,-0.015089,-0.007101,0.017269,0.061035,0.030518,0.000000
5.657107,-0.033530,-0.754431,10.062675,-0.017484,-0.005305,0.013078,0.061035,0.030518,0.000000
5.667172,-0.028141,-0.750839,10.069261,-0.012096,-0.001712,0.019664,0.030518,0.030518,0.000000
5.677450,-0.018561,-0.752036,10.072853,-0.002516,-0.002910,0.023256,0.061035,0.030518,0.000000
5.687545,-0.019160,-0.744252,10.068662,-0.003114,0.004874,0.019065,0.061035,0.000000,-0.030518
5.697612,-0.019160,-0.747246,10.064471,-0.003114,0.001880,0.014874,0.091553,0.000000,0.000000
5.707676,-0.016166,-0.743654,10.063273,-0.000120,0.005473,0.013676,0.091553,0.061035,0.030518
5.717742,-0.013173,-0.742456,10.069860,0.002873,0.006670,0.020263,0.061035,0.030518,0.030518
5.727805,-0.016166,-0.740061,10.072853,-0.000120,0.009065,0.023256,0.061035,0.061035,0.030518
5.737873,-0.023950,-0.740061,10.063872,-0.007904,0.009065,0.014275,0.061035,0.061035,0.030518
5.747941,-0.023351,-0.741259,10.068662,-0.007306,0.007868,0.019065,0.061035,0.091553,0.030518
5.758008,-0.020358,-0.748444,10.077045,-0.004312,0.000683,0.027448,0.030518,0.030518,0.061035
5.768075,-0.016765,-0.749042,10.086625,-0.000719,0.000084,0.037028,0.030518,0.000000,0.061035
5.778143,-0.016166,-0.754431,10.082433,-0.000120,-0.005305,0.032836,0.000000,0.061035,0.000000
5.788208,-0.011376,-0.753234,10.077643,0.004670,-0.004107,0.028046,0.030518,0.061035,0.030518
5.798275,-0.008981,-0.752036,10.071656,0.007065,-0.002910,0.022059,0.061035,0.091553,0.061035
5.808342,-0.011975,-0.749042,10.065668,0.004071,0.000084,0.016071,0.061035,0.091553,0.061035
5.818412,-0.016166,-0.749641,10.069261,-0.000120,-0.000515,0.019664,0.030518,0.061035,0.061035
5.828478,-0.019160,-0.758024,10.065070,-0.003114,-0.008897,0.015473,0.091553,0.030518,-0.030518
5.838544,-0.019160,-0.751437,10.061477,-0.003114,-0.002311,0.011880,0.061035,0.000000,0.000000
5.848614,-0.022753,-0.756227,10.051897,-0.006707,-0.007101,0.002300,0.030518,0.030518,0.000000
5.858685,-0.025148,-0.753234,10.057286,-0.009102,-0.004107,0.007689,0.061035,0.000000,0.000000
5.868748,-0.022154,-0.753832,10.060280,-0.006108,-0.004706,0.010683,0.030518,0.000000,0.000000
5.878818,-0.017963,-0.751437,10.063872,-0.001917,-0.002311,0.014275,0.030518,0.030518,0.000000
5.888888,-0.020956,-0.749641,10.058483,-0.004911,-0.000515,0.008886,0.030518,0.030518,0.030518
5.898952,-0.017364,-0.747845,10.055490,-0.001318,0.001281,0.005892,0.000000,0.091553,0.030518
5.909024,-0.019759,-0.747246,10.051298,-0.003713,0.001880,0.001701,-0.030518,0.091553,0.030518
5.919093,-0.020358,-0.751437,10.066866,-0.004312,-0.002311,0.017269,-0.030518,0.030518,0.000000
5.929157,-0.014969,-0.746647,10.065070,0.001077,0.002479,0.015473,0.000000,0.061035,0.000000
5.939227,-0.013771,-0.745450,10.063872,0.002275,0.003676,0.014275,0.030518,0.030518,0.000000
5.949297,-0.013173,-0.752036,10.053094,0.002873,-0.002910,0.003497,0.030518,0.030518,-0.030518
5.959361,-0.012574,-0.750240,10.049502,0.003472,-0.001114,-0.000095,0.030518,0.030518,-0.030518
5.969432,-0.017364,-0.747845,10.055490,-0.001318,0.001281,0.005892,0.030518,-0.030518,-0.061035
5.979502,-0.014370,-0.754431,10.052496,0.001676,-0.005305,0.002899,0.030518,0.000000,-0.061035
5.989567,-0.008383,-0.756227,10.048903,0.007663,-0.007101,-0.000694,0.000000,0.030518,-0.030518
5.999639,-0.005389,-0.756826,10.048304,0.010657,-0.007700,-0.001293,0.030518,0.030518,-0.030518
6.009709,-0.007784,-0.752635,10.049502,0.008262,-0.003509,-0.000095,0.061035,0.030518,0.000000
6.019774,-0.010778,-0.750839,10.063872,0.005268,-0.001712,0.014275,0.000000,0.030518,0.000000
6.029844,-0.009580,-0.752036,10.060280,0.006466,-0.002910,0.010683,0.030518,0.030518,0.000000
6.039916,-0.012574,-0.761017,10.051897,0.003472,-0.011891,0.002300,0.061035,0.061035,0.000000
6.049980,-0.013173,-0.757425,10.048903,0.002873,-0.008299,-0.000694,0.061035,0.061035,0.000000
6.060051,-0.009580,-0.759820,10.050699,0.006466,-0.010694,0.001102,0.061035,0.000000,0.000000
6.070121,-0.008383,-0.753832,10.054292,0.007663,-0.004706,0.004695,0.122070,0.030518,0.000000
6.080186,-0.008981,-0.745450,10.056088,0.007065,0.003676,0.006491,0.122070,0.030518,0.000000
6.090256,-0.011376,-0.742456,10.050699,0.004670,0.006670,0.001102,0.091553,0.061035,0.000000
6.100338,-0.013771,-0.749042,10.044712,0.002275,0.000084,-0.004885,0.061035,0.091553,0.030518
6.110402,-0.014969,-0.753234,10.047706,0.001077,-0.004107,-0.001891,0.061035,0.091553,0.030518
6.120473,-0.013771,-0.750839,10.052496,0.002275,-0.001712,0.002899,0.061035,0.091553,0.061035
6.130543,-0.010778,-0.745450,10.050101,0.005268,0.003676,0.000504,0.061035,0.061035,0.061035
6.140607,-0.008383,-0.741259,10.052496,0.007663,0.007868,0.002899,0.061035,0.030518,0.061035
6.150677,-0.007185,-0.743055,10.050101,0.008861,0.006071,0.000504,0.061035,0.030518,0.030518
6.160749,-0.001198,-0.747845,10.051298,0.014848,0.001281,0.001701,0.061035,0.061035,0.000000
6.170814,-0.002994,-0.745450,10.057885,0.013052,0.003676,0.008288,0.030518,0.030518,0.000000
6.180885,-0.007185,-0.752036,10.051298,0.008861,-0.002910,0.001701,0.061035,0.030518,0.000000
6.190956,-0.001198,-0.751437,10.050699,0.014848,-0.002311,0.001102,0.030518,0.000000,0.000000
6.201021,-0.009580,-0.751437,10.035731,0.006466,-0.002311,-0.013866,0.030518,0.061035,-0.030518
6.211091,-0.014969,-0.758024,10.045311,0.001077,-0.008897,-0.004286,0.000000,0.030518,0.000000
6.221162,-0.019160,-0.765807,10.053693,-0.003114,-0.016681,0.004096,0.030518,0.000000,0.000000
6.231227,-0.016166,-0.767604,10.052496,-0.000120,-0.018478,0.002899,0.000000,-0.030518,-0.030518
6.241299,-0.015568,-0.762215,10.050101,0.000478,-0.013089,0.000504,0.000000,0.000000,-0.030518
6.251369,-0.017963,-0.755030,10.042916,-0.001917,-0.005904,-0.006681,0.000000,0.030518,-0.030518
6.261435,-0.017963,-0.755629,10.050101,-0.001917,-0.006502,0.000504,0.030518,0.061035,-0.030518
6.271505,-0.024549,-0.751437,10.063872,-0.008503,-0.002311,0.014275,0.061035,0.061035,-0.030518
6.281577,-0.019160,-0.752036,10.057885,-0.003114,-0.002910,0.008288,0.061035,0.061035,-0.030518
6.291642,-0.016166,-0.748444,10.053094,-0.000120,0.000683,0.003497,0.061035,0.030518,0.030518
6.301714,-0.018561,-0.750240,10.053693,-0.002516,-0.001114,0.004096,0.061035,0.030518,0.000000
6.311785,-0.017963,-0.744851,10.053693,-0.001917,0.004275,0.004096,0.061035,0.030518,0.000000
6.321850,-0.017963,-0.744851,10.056088,-0.001917,0.004275,0.006491,0.000000,0.030518,0.000000
6.331920,-0.015568,-0.746647,10.054891,0.000478,0.002479,0.005294,0.030518,0.030518,-0.030518
6.341991,-0.016166,-0.746049,10.044712,-0.000120,0.003078,-0.004885,0.000000,0.000000,-0.030518
6.352057,-0.014969,-0.744851,10.040521,0.001077,0.004275,-0.009076,0.030518,0.000000,0.000000
6.362133,-0.017963,-0.749042,10.050699,-0.001917,0.000084,0.001102,0.030518,0.000000,-0.030518
6.372202,-0.019160,-0.752635,10.058483,-0.003114,-0.003509,0.008886,0.061035,0.000000,-0.030518
6.382268,-0.014370,-0.756826,10.057885,0.001676,-0.007700,0.008288,0.061035,-0.030518,0.000000
6.392339,-0.016166,-0.758024,10.054891,-0.000120,-0.008897,0.005294,0.030518,-0.030518,0.000000
6.402411,-0.020358,-0.754431,10.051897,-0.004312,-0.005305,0.002300,0.030518,-0.030518,-0.030518
6.412477,-0.022154,-0.751437,10.064471,-0.006108,-0.002311,0.014874,0.030518,0.000000,-0.061035
6.422548,-0.017364,-0.744252,10.066267,-0.001318,0.004874,0.016670,0.030518,0.000000,-0.061035
6.432620,-0.018561,-0.743055,10.066267,-0.002516,0.006071,0.016670,0.030518,0.000000,-0.061035
6.442685,-0.016765,-0.746647,10.058483,-0.000719,0.002479,0.008886,0.000000,0.000000,-0.091553
6.452756,-0.017364,-0.746647,10.055490,-0.001318,0.002479,0.005892,0.000000,0.000000,-0.122070
6.462827,-0.019160,-0.753832,10.059082,-0.003114,-0.004706,0.009485,0.000000,0.000000,-0.152588
6.472893,-0.020956,-0.752635,10.063872,-0.004911,-0.003509,0.014275,-0.030518,0.000000,-0.183105
6.482965,-0.029339,-0.752036,10.055490,-0.013293,-0.002910,0.005892,0.000000,0.030518,-0.213623
6.493036,-0.032333,-0.752635,10.049502,-0.016287,-0.003509,-0.000095,0.000000,0.061035,-0.213623
6.503101,-0.019160,-0.750240,10.048903,-0.003114,-0.001114,-0.000694,0.000000,0.091553,-0.244141
6.513172,-0.019759,-0.755629,10.054891,-0.003713,-0.006502,0.005294,0.030518,0.061035,-0.305176
6.523243,-0.023351,-0.761017,10.053693,-0.007306,-0.011891,0.004096,0.000000,0.061035,-0.488281
6.533308,-0.022154,-0.768801,10.063872,-0.006108,-0.019675,0.014275,0.000000,0.091553,-0.671387
6.543379,-0.020956,-0.777783,10.055490,-0.004911,-0.028656,0.005892,0.000000,0.122070,-0.976562
6.553452,-0.031135,-0.829874,10.044113,-0.015089,-0.080748,-0.005484,-0.030518,0.152588,-2.044678
6.563518,-0.038919,-0.884361,10.029144,-0.022873,-0.135235,-0.020453,-0.061035,0.305176,-3.021240
6.573589,-0.031734,-0.822090,10.060280,-0.015688,-0.072964,0.010683,-0.061035,0.549316,-5.462646
6.583661,-0.020956,-0.790955,10.070458,-0.004911,-0.041829,0.020861,-0.061035,0.610352,-5.889893
6.593727,-0.016765,-0.737067,10.064471,-0.000719,0.012059,0.014874,-0.122070,0.579834,-5.828857
6.603798,-0.022753,-0.744851,10.056687,-0.006707,0.004275,0.007090,-0.122070,0.549316,-5.767822
6.613870,-0.026345,-0.728685,10.072255,-0.010299,0.020441,0.022658,-0.152588,0.518799,-5.676270
6.623936,-0.031734,-0.773591,10.065668,-0.015688,-0.024465,0.016071,-0.183105,0.457764,-5.493164
6.634007,-0.029938,-0.768203,10.063273,-0.013892,-0.019076,0.013676,-0.183105,0.488281,-5.737305
6.644078,-0.020956,-0.750240,10.051897,-0.004911,-0.001114,0.002300,-0.061035,0.457764,-5.859375
6.654143,-0.014969,-0.714913,10.054891,0.001077,0.034213,0.005294,-0.030518,0.427246,-5.737305
6.664214,0.000599,-0.659229,10.056088,0.016645,0.089897,0.006491,0.030518,0.274658,-4.241943
6.674285,0.003593,-0.681982,10.062675,0.019638,0.067144,0.013078,0.030518,0.213623,-3.295898
6.684357,0.004191,-0.692161,10.059082,0.020237,0.056966,0.009485,0.000000,0.152588,-2.593994
6.694430,0.000000,-0.719703,10.053094,0.016046,0.029423,0.003497,0.030518,0.091553,-1.586914
6.704502,-0.010179,-0.722697,10.045311,0.005867,0.026429,-0.004286,0.061035,0.061035,-1.220703
6.714569,-0.009580,-0.731678,10.053094,0.006466,0.017448,0.003497,0.030518,0.061035,-0.732422
6.724640,-0.008383,-0.738265,10.051298,0.007663,0.010861,0.001701,0.061035,0.091553,-0.549316
6.734712,-0.005389,-0.738265,10.054891,0.010657,0.010861,0.005294,0.061035,0.091553,-0.335693
6.744778,-0.012574,-0.740061,10.057885,0.003472,0.009065,0.008288,0.030518,0.061035,-0.274658
6.754849,-0.011975,-0.741857,10.048304,0.004071,0.007269,-0.001293,0.061035,0.061035,-0.213623
6.764921,-0.016765,-0.749042,10.057885,-0.000719,0.000084,0.008288,0.061035,0.000000,-0.152588
6.774987,-0.017364,-0.753234,10.051298,-0.001318,-0.004107,0.001701,0.061035,0.000000,-0.152588
6.785058,-0.024549,-0.756826,10.053094,-0.008503,-0.007700,0.003497,0.030518,0.030518,-0.183105
6.795130,-0.026944,-0.759221,10.049502,-0.010898,-0.010095,-0.000095,0.030518,0.030518,-0.244141
6.805224,-0.037722,-0.790356,10.057286,-0.021676,-0.041230,0.007689,-0.030518,0.030518,-0.640869
6.815327,-0.044907,-0.802930,10.060280,-0.028861,-0.053804,0.010683,-0.030518,0.061035,-1.373291
6.825426,-0.037123,-0.777184,10.047706,-0.021077,-0.028058,-0.001891,-0.030518,0.122070,-3.112793
6.835525,-0.042512,-0.757425,10.053094,-0.026466,-0.008299,0.003497,-0.091553,0.244141,-3.875732
6.845623,-0.049098,-0.775986,10.059082,-0.033052,-0.026860,0.009485,-0.061035,0.305176,-4.730225
6.855721,-0.059277,-0.838257,10.059681,-0.043231,-0.089131,0.010084,0.000000,0.518799,-6.866455
6.865820,-0.023351,-0.825084,10.054891,-0.007306,-0.075958,0.005294,0.061035,0.518799,-8.056641
6.875919,-0.056882,-0.932860,10.053094,-0.040836,-0.183734,0.003497,0.091553,0.701904,-10.284424
6.886017,-0.052092,-0.916095,10.065070,-0.036046,-0.166969,0.015473,0.213623,0.823975,-11.505127
6.896113,-0.065863,-0.903521,10.069261,-0.049817,-0.154395,0.019664,0.183105,0.976562,-13.610840
6.906207,-0.010179,-0.793949,10.043514,0.005867,-0.044823,-0.006083,0.244141,0.854492,-13.916016
6.916299,-0.007784,-0.749042,10.069261,0.008262,0.000084,0.019664,0.335693,0.854492,-13.732910
6.926392,-0.020956,-0.771795,10.062675,-0.004911,-0.022669,0.013078,0.183105,0.885010,-13.000488
6.936485,-0.023351,-0.765209,10.074051,-0.007306,-0.016083,0.024454,0.244141,0.854492,-12.939453
6.946576,-0.001796,-0.683778,10.057286,0.014250,0.065348,0.007689,0.274658,0.732422,-12.176514
6.956668,0.008383,-0.673599,10.054292,0.024428,0.075527,0.004695,0.183105,0.671387,-11.199951
6.966760,-0.006586,-0.726290,10.048304,0.009460,0.022837,-0.001293,0.244141,0.701904,-10.223389
6.976852,-0.013173,-0.756826,10.051897,0.002873,-0.007700,0.002300,0.274658,0.671387,-10.223389
6.986943,-0.003593,-0.750240,10.044712,0.012453,-0.001114,-0.004885,0.274658,0.671387,-10.162354
6.997035,-0.003593,-0.754431,10.039323,0.012453,-0.005305,-0.010274,0.244141,0.610352,-9.948730
7.007119,0.007185,-0.733475,10.029743,0.023231,0.015651,-0.019854,0.183105,0.610352,-9.948730
7.017204,-0.017364,-0.740660,10.053094,-0.001318,0.008466,0.003497,-0.183105,0.823975,-9.735107
7.027295,-0.013771,-0.740660,10.050699,0.002275,0.008466,0.001102,-0.274658,0.854492,-9.674072
7.037386,-0.020358,-0.756227,10.045311,-0.004312,-0.007101,-0.004286,-0.366211,0.946045,-9.887695
7.047477,-0.029938,-0.765807,10.040521,-0.013892,-0.016681,-0.009076,-0.457764,1.037598,-10.192871
7.057569,-0.023351,-0.747246,10.042916,-0.007306,0.001880,-0.006681,-0.610352,1.129150,-10.559082
7.067662,-0.014969,-0.699346,10.052496,0.001077,0.049780,0.002899,-0.518799,1.007080,-10.498047
7.077753,-0.018561,-0.713117,10.046508,-0.002516,0.036009,-0.003089,-0.457764,0.946045,-10.101318
7.087844,-0.038919,-0.767005,10.054292,-0.022873,-0.017879,0.004695,-0.335693,0.915527,-9.552002
7.097934,-0.032333,-0.762215,10.050699,-0.016287,-0.013089,0.001102,-0.213623,0.885010,-9.735107
7.108032,-0.021555,-0.708327,10.075847,-0.005509,0.040799,0.026250,-0.213623,0.793457,-9.490967
7.118128,-0.004790,-0.680186,10.061477,0.011256,0.068941,0.011880,-0.183105,0.671387,-9.033203
7.128226,-0.007185,-0.677192,10.068063,0.008861,0.071934,0.018466,-0.091553,0.549316,-7.720947
7.138324,-0.014969,-0.678988,10.055490,0.001077,0.070138,0.005892,-0.030518,0.488281,-7.171631
7.148418,-0.005988,-0.670007,10.057286,0.010058,0.079119,0.007689,-0.030518,0.457764,-6.469727
7.158515,-0.024549,-0.731678,10.063872,-0.008503,0.017448,0.014275,0.000000,0.427246,-5.401611
7.168610,-0.025746,-0.755030,10.057286,-0.009701,-0.005904,0.007689,0.000000,0.427246,-5.340576
7.178702,0.002994,-0.674797,10.074051,0.019040,0.074329,0.024454,0.030518,0.457764,-5.187988
7.188800,0.012574,-0.662822,10.063872,0.028620,0.086305,0.014275,0.030518,0.396729,-4.486084
7.198897,0.006586,-0.667013,10.063273,0.022632,0.082113,0.013676,0.030518,0.274658,-3.143311
7.208985,-0.003593,-0.690364,10.060878,0.012453,0.058762,0.011281,0.000000,0.213623,-2.655029
7.219075,-0.008981,-0.713716,10.060878,0.007065,0.035410,0.011281,0.030518,0.183105,-2.288818
7.229163,-0.012574,-0.720901,10.054891,0.003472,0.028225,0.005294,0.030518,0.183105,-1.983643
7.239250,-0.014370,-0.711920,10.046508,0.001676,0.037207,-0.003089,0.030518,0.183105,-1.770020
7.249336,-0.022154,-0.726888,10.047706,-0.006108,0.022238,-0.001891,0.000000,0.091553,-1.251221
7.259423,-0.020956,-0.730481,10.047706,-0.004911,0.018645,-0.001891,0.000000,0.091553,-1.098633
7.269510,-0.020358,-0.737067,10.054292,-0.004312,0.012059,0.004695,0.000000,0.122070,-0.793457
7.279596,-0.021555,-0.731080,10.054292,-0.005509,0.018046,0.004695,0.000000,0.091553,-0.671387
7.289684,-0.023950,-0.738864,10.050101,-0.007904,0.010263,0.000504,0.000000,0.091553,-0.549316
7.299846,-0.023950,-0.738265,10.056687,-0.007904,0.010861,0.007090,-0.030518,0.091553,-0.366211
7.309939,-0.025746,-0.736469,10.058483,-0.009701,0.012658,0.008886,-0.030518,0.091553,-0.305176
7.320034,-0.021555,-0.745450,10.063273,-0.005509,0.003676,0.013676,0.000000,0.122070,-0.183105
7.330127,-0.021555,-0.746647,10.063273,-0.005509,0.002479,0.013676,0.000000,0.122070,-0.152588
7.340219,-0.026944,-0.742456,10.063872,-0.010898,0.006670,0.014275,0.000000,0.061035,-0.122070
7.350313,-0.025148,-0.752036,10.053094,-0.009102,-0.002910,0.003497,0.000000,0.030518,-0.091553
7.360406,-0.029339,-0.753234,10.055490,-0.013293,-0.004107,0.005892,0.000000,0.061035,-0.061035
7.370498,-0.029938,-0.753234,10.063872,-0.013892,-0.004107,0.014275,0.030518,0.061035,0.000000
7.380595,-0.027543,-0.742456,10.057885,-0.011497,0.006670,0.008288,0.030518,0.030518,0.000000
7.390687,-0.028141,-0.743055,10.061477,-0.012096,0.006071,0.011880,0.061035,0.030518,-0.030518
7.400887,-0.029938,-0.749641,10.053693,-0.013892,-0.000515,0.004096,0.061035,0.030518,0.030518
7.410975,-0.023950,-0.753234,10.057885,-0.007904,-0.004107,0.008288,0.000000,0.030518,0.061035
7.421065,-0.020358,-0.751437,10.048903,-0.004312,-0.002311,-0.000694,0.030518,0.030518,0.061035
7.431152,-0.019160,-0.746647,10.048903,-0.003114,0.002479,-0.000694,0.061035,0.030518,-0.030518
7.441242,-0.022753,-0.746049,10.045909,-0.006707,0.003078,-0.003688,0.091553,0.030518,-0.030518
7.451328,-0.032932,-0.749641,10.041718,-0.016886,-0.000515,-0.007879,0.061035,0.061035,-0.061035
7.461417,-0.031135,-0.744252,10.062675,-0.015089,0.004874,0.013078,0.061035,0.061035,-0.030518
7.471506,-0.030536,-0.743654,10.059082,-0.014491,0.005473,0.009485,0.061035,0.030518,-0.091553
7.481596,-0.033530,-0.755629,10.059082,-0.017484,-0.006502,0.009485,0.030518,0.061035,-0.152588
7.491683,-0.029938,-0.750240,10.058483,-0.013892,-0.001114,0.008886,0.061035,0.030518,-0.183105
7.501839,-0.029339,-0.752036,10.063273,-0.013293,-0.002910,0.013676,0.030518,0.061035,-0.274658
7.511933,-0.030536,-0.752036,10.069860,-0.014491,-0.002910,0.020263,0.030518,0.061035,-0.335693
7.522030,-0.025148,-0.749042,10.063872,-0.009102,0.000084,0.014275,0.000000,0.091553,-0.335693
7.532124,-0.028141,-0.746049,10.056687,-0.012096,0.003078,0.007090,0.030518,0.061035,-0.274658
7.542220,-0.026944,-0.740061,10.053094,-0.010898,0.009065,0.003497,0.061035,0.061035,-0.244141
7.552313,-0.029938,-0.739462,10.050699,-0.013892,0.009664,0.001102,0.061035,0.030518,-0.213623
7.562412,-0.028141,-0.732876,10.056088,-0.012096,0.016250,0.006491,0.000000,0.000000,-0.183105
7.572508,-0.024549,-0.739462,10.054891,-0.008503,0.009664,0.005294,0.000000,0.030518,-0.091553
7.582602,-0.021555,-0.745450,10.055490,-0.005509,0.003676,0.005892,0.030518,0.061035,-0.122070
7.592701,-0.020358,-0.747246,10.051298,-0.004312,0.001880,0.001701,0.030518,0.030518,-0.091553
7.602867,-0.028740,-0.752635,10.053693,-0.012694,-0.003509,0.004096,0.000000,0.030518,-0.061035
7.612957,-0.026944,-0.747845,10.053094,-0.010898,0.001281,0.003497,-0.030518,0.000000,-0.030518
7.623048,-0.026944,-0.747246,10.057885,-0.010898,0.001880,0.008288,0.030518,0.030518,-0.030518
7.633138,-0.029339,-0.747845,10.057885,-0.013293,0.001281,0.008288,0.030518,0.030518,0.000000
7.643228,-0.026345,-0.754431,10.046508,-0.010299,-0.005305,-0.003089,0.000000,0.000000,-0.030518
7.653319,-0.029938,-0.752036,10.048304,-0.013892,-0.002910,-0.001293,0.000000,-0.030518,0.000000
7.663409,-0.034728,-0.753234,10.051897,-0.018682,-0.004107,0.002300,0.030518,0.000000,0.000000
7.673498,-0.022753,-0.748444,10.060878,-0.006707,0.000683,0.011281,0.000000,0.000000,0.000000
7.683606,-0.017963,-0.752635,10.054891,-0.001917,-0.003509,0.005294,0.030518,0.000000,0.000000
7.693692,-0.025746,-0.746049,10.056088,-0.009701,0.003078,0.006491,0.000000,0.000000,0.000000
7.703869,-0.028740,-0.749641,10.058483,-0.012694,-0.000515,0.008886,0.030518,0.000000,0.000000
7.713968,-0.026944,-0.753234,10.062076,-0.010898,-0.004107,0.012479,0.061035,0.000000,0.000000
7.724066,-0.025746,-0.750839,10.064471,-0.009701,-0.001712,0.014874,0.061035,0.000000,0.030518
7.734164,-0.028141,-0.751437,10.060280,-0.012096,-0.002311,0.010683,0.030518,0.000000,0.000000
7.744261,-0.031135,-0.752036,10.057885,-0.015089,-0.002910,0.008288,0.030518,0.000000,0.000000
7.754359,-0.029938,-0.741857,10.053693,-0.013892,0.007269,0.004096,0.061035,0.030518,0.000000
7.764471,-0.034129,-0.745450,10.059082,-0.018083,0.003676,0.009485,0.061035,0.030518,0.030518
7.774567,-0.036524,-0.745450,10.052496,-0.020478,0.003676,0.002899,0.061035,0.030518,0.000000
7.784665,-0.033530,-0.753832,10.053693,-0.017484,-0.004706,0.004096,0.061035,0.061035,0.030518
7.794765,-0.034129,-0.749641,10.056687,-0.018083,-0.000515,0.007090,0.061035,0.030518,0.030518
7.804957,-0.027543,-0.749042,10.056687,-0.011497,0.000084,0.007090,0.061035,0.030518,0.030518
7.815048,-0.023351,-0.750839,10.063273,-0.007306,-0.001712,0.013676,0.061035,0.030518,0.000000
7.825140,-0.023950,-0.747845,10.062675,-0.007904,0.001281,0.013078,0.061035,0.091553,0.061035
7.835231,-0.029938,-0.749641,10.058483,-0.013892,-0.000515,0.008886,0.122070,0.061035,0.061035
7.845322,-0.030536,-0.750839,10.056088,-0.014491,-0.001712,0.006491,0.152588,0.030518,0.030518
7.855412,-0.016765,-0.749641,10.051897,-0.000719,-0.000515,0.002300,0.091553,0.030518,0.030518
7.865503,-0.014969,-0.752635,10.059681,0.001077,-0.003509,0.010084,0.091553,0.030518,0.000000
7.875594,-0.020358,-0.748444,10.054891,-0.004312,0.000683,0.005294,0.061035,0.000000,0.000000
7.885685,-0.026345,-0.749641,10.057286,-0.010299,-0.000515,0.007689,0.061035,0.000000,0.000000
7.895788,-0.023950,-0.747845,10.053693,-0.007904,0.001281,0.004096,0.030518,-0.030518,0.000000
7.905955,-0.021555,-0.754431,10.048304,-0.005509,-0.005305,-0.001293,0.030518,-0.030518,0.000000
7.916052,-0.023351,-0.755030,10.052496,-0.007306,-0.005904,0.002899,0.000000,0.000000,0.030518
7.926149,-0.026944,-0.740660,10.046508,-0.010898,0.008466,-0.003089,0.030518,0.000000,0.000000
7.936246,-0.019160,-0.743055,10.051897,-0.003114,0.006071,0.002300,-0.030518,0.000000,0.000000
7.946343,-0.017364,-0.744851,10.050699,-0.001318,0.004275,0.001102,-0.061035,0.061035,-0.030518
7.956439,-0.017963,-0.743654,10.053094,-0.001917,0.005473,0.003497,-0.061035,0.091553,-0.061035
7.966533,-0.007185,-0.734073,10.059082,0.008861,0.015053,0.009485,-0.030518,0.152588,-0.732422
7.976630,0.134121,-0.637674,10.066866,0.150167,0.111452,0.017269,0.030518,0.244141,-2.471924
7.986727,0.182021,-0.684377,10.062675,0.198067,0.064749,0.013078,0.122070,0.305176,-4.486084
7.996823,0.107776,-0.816702,10.046508,0.123822,-0.067575,-0.003089,0.305176,0.366211,-6.896973
8.006994,0.083227,-0.835862,10.045909,0.099273,-0.086736,-0.003688,0.305176,0.396729,-7.385254
8.017085,-0.014969,-0.846639,10.045311,0.001077,-0.097513,-0.004286,0.274658,0.335693,-7.904053
8.027175,0.004790,-0.853824,10.048304,0.020836,-0.104698,-0.001293,0.274658,0.305176,-7.873535
8.037266,0.062869,-0.861010,10.041718,0.078915,-0.111883,-0.007879,0.396729,0.274658,-8.178711
8.047356,0.134121,-0.877775,10.044113,0.150167,-0.128648,-0.005484,0.610352,0.152588,-8.514404
8.057446,0.158670,-0.828677,10.029743,0.174716,-0.079551,-0.019854,0.610352,0.183105,-8.605957
8.067536,-0.116757,-0.735271,10.061477,-0.100711,0.013855,0.011880,0.610352,0.213623,-8.056641
8.077626,-0.310155,-0.616119,10.038126,-0.294109,0.133007,-0.011471,0.579834,0.213623,-7.171631
8.087715,-0.231718,-0.662822,10.056687,-0.215672,0.086305,0.007090,0.244141,0.274658,-4.333496
8.097805,-0.188608,-0.684377,10.045909,-0.172562,0.064749,-0.003688,0.213623,0.213623,-3.356934
8.107966,-0.131726,-0.711920,10.056687,-0.115680,0.037207,0.007090,0.152588,0.152588,-2.014160
8.118063,-0.111967,-0.732277,10.057885,-0.095921,0.016849,0.008288,0.091553,0.152588,-1.586914
8.128159,-0.110171,-0.805325,10.052496,-0.094125,-0.056199,0.002899,0.030518,0.183105,-1.342773
8.138255,-0.157473,-1.014291,10.035132,-0.141427,-0.265165,-0.014465,0.091553,0.183105,-1.373291
8.148353,-0.149090,-0.957409,10.041718,-0.133044,-0.208283,-0.007879,0.122070,0.122070,-1.190186
8.158450,-0.141905,-0.987347,10.041119,-0.125859,-0.238221,-0.008478,0.030518,0.061035,-0.305176
8.168544,-0.144899,-1.027463,10.047706,-0.128853,-0.278337,-0.001891,0.122070,0.091553,-0.671387
8.178640,-0.120350,-0.987347,10.047706,-0.104304,-0.238221,-0.001891,0.030518,0.061035,-2.014160
8.188733,-0.074246,-0.941243,10.039323,-0.058200,-0.192116,-0.010274,0.061035,0.183105,-3.021240
8.198824,-0.046703,-0.875380,10.039323,-0.030657,-0.126253,-0.010274,0.030518,0.366211,-5.249023
8.208919,-0.062271,-0.868195,10.056687,-0.046225,-0.119068,0.007090,-0.061035,0.366211,-5.371094
8.219007,-0.028740,-0.824485,10.065668,-0.012694,-0.075359,0.016071,0.061035,0.335693,-5.096436
8.229093,0.051493,-0.893342,10.041119,0.067539,-0.144216,-0.008478,0.366211,0.274658,-4.455566
8.239179,0.106578,-0.844244,10.042916,0.122624,-0.095118,-0.006681,0.244141,0.366211,-5.462646
8.249266,0.048499,-1.226250,10.015972,0.064545,-0.477124,-0.033625,-0.030518,0.518799,-8.148193
8.259353,0.009580,-1.260379,10.036329,0.025626,-0.511253,-0.013268,-0.091553,0.579834,-10.223389
8.269438,0.001198,-1.147214,10.025552,0.017243,-0.398088,-0.024045,-0.244141,0.671387,-10.314941
8.279525,0.011376,-0.853226,10.035132,0.027422,-0.104100,-0.014465,-0.366211,0.671387,-10.131836
8.289611,0.011376,-0.772394,10.057885,0.027422,-0.023268,0.008288,-1.068115,0.579834,-9.765625
8.299697,-0.018561,-0.883163,10.046508,-0.002516,-0.134037,-0.003089,-1.403809,0.518799,-8.453369
8.309862,-0.030536,-0.799937,10.062076,-0.014491,-0.050810,0.012479,-1.220703,0.518799,-8.056641
8.319955,-0.114362,-0.780776,10.049502,-0.098316,-0.031650,-0.000095,-1.647949,0.213623,-4.882812
8.330046,-0.063468,-0.701142,10.062076,-0.047422,0.047984,0.012479,-1.068115,0.122070,-2.716064
8.340139,-0.040117,-0.755030,10.057885,-0.024071,-0.005904,0.008288,-1.464844,-0.274658,0.366211
8.350231,-0.057480,-0.804727,10.083631,-0.041435,-0.055600,0.034034,-0.732422,-0.244141,1.098633
8.360349,-0.104782,-0.913101,10.059681,-0.088736,-0.163975,0.010084,-0.396729,-0.091553,0.305176
8.370531,-0.107177,-0.902324,10.049502,-0.091131,-0.153197,-0.000095,-0.671387,-0.244141,0.335693
8.380629,-0.089813,-0.793350,10.092612,-0.073767,-0.044224,0.043015,-1.312256,-0.427246,0.610352
8.390722,-0.073647,-0.623903,10.063872,-0.057601,0.125224,0.014275,-0.579834,-0.427246,1.678467
8.400819,-0.065863,-0.786764,10.055490,-0.049817,-0.037638,0.005892,-0.946045,-0.549316,2.349854
8.410998,-0.069456,-1.049019,10.032737,-0.053410,-0.299892,-0.016860,-0.671387,-0.427246,3.753662
8.421087,-0.064666,-0.950823,10.032138,-0.048620,-0.201697,-0.017459,-0.640869,-0.457764,4.821777
8.431175,-0.042512,-0.983156,10.030342,-0.026466,-0.234029,-0.019255,-1.007080,-0.518799,7.263184
8.441264,-0.079036,-1.047222,10.009984,-0.062990,-0.298096,-0.039613,-1.098633,-0.396729,6.805420
8.451351,-0.038919,-1.031655,10.073452,-0.022873,-0.282528,0.023855,-1.708984,-0.579834,6.713867
8.461441,0.033530,-0.953817,10.021360,0.049576,-0.204690,-0.028237,-1.556396,-0.305176,5.767822
8.471528,-0.017963,-0.916095,10.026749,-0.001917,-0.166969,-0.022848,-0.640869,-0.183105,5.889893
8.481619,0.010179,-0.850232,10.049502,0.026225,-0.101106,-0.000095,-0.885010,-0.488281,6.652832
8.491708,0.010179,-0.989742,9.995614,0.026225,-0.240616,-0.053983,0.183105,-0.152588,6.500244
8.501798,-0.014370,-0.825683,10.030342,0.001676,-0.076557,-0.019255,0.030518,-0.183105,6.469727
8.511950,0.014370,-0.957409,10.062076,0.030416,-0.208283,0.012479,1.495361,-0.030518,7.507324
8.522048,-0.028141,-1.100511,10.046508,-0.012096,-0.351385,-0.003089,1.220703,-0.152588,8.178711
8.532142,0.002395,-1.083148,10.050699,0.018441,-0.334021,0.001102,2.349854,-0.244141,9.857178
8.542237,-0.085023,-1.116079,10.017768,-0.068977,-0.366953,-0.031829,2.593994,-0.244141,10.253906
8.552359,0.067061,-0.892744,10.047706,0.083106,-0.143617,-0.001891,3.784180,-0.122070,9.735107
8.562456,0.002994,-0.901126,10.024354,0.019040,-0.152000,-0.025243,5.615234,0.152588,9.399414
8.572550,0.023351,-1.089135,10.008787,0.039397,-0.340009,-0.040810,4.730225,0.091553,9.429932
8.582648,0.122745,-1.075963,10.022558,0.138791,-0.326836,-0.027039,4.638672,0.061035,9.399414
8.592744,0.143102,-1.012495,10.014774,0.159148,-0.263368,-0.034823,2.380371,-0.122070,8.941650
8.602840,0.150886,-1.104104,10.009385,0.166932,-0.354978,-0.040212,1.312256,-0.213623,8.087158
8.613007,0.091609,-0.890349,10.032138,0.107655,-0.141222,-0.017459,0.976562,-0.183105,6.652832
8.623097,-0.121547,-0.846639,10.087822,-0.105501,-0.097513,0.038225,-2.197266,-0.335693,4.211426
8.633188,-0.129331,-0.841251,10.032138,-0.113285,-0.092124,-0.017459,-1.617432,-0.213623,6.134033
8.643279,0.117356,-0.988544,10.080038,0.133402,-0.239418,0.030441,-1.037598,0.152588,7.781982
8.653369,0.210163,-1.260978,10.023755,0.226209,-0.511852,-0.025842,-0.305176,0.152588,6.561279
8.663459,0.030536,-1.125060,10.064471,0.046582,-0.375934,0.014874,0.549316,0.152588,5.401611
8.673550,0.035327,-1.148412,10.032737,0.051372,-0.399286,-0.016860,0.946045,-0.030518,5.554199
8.683640,0.136516,-1.117875,10.060878,0.152562,-0.368749,0.011281,1.159668,-0.030518,4.913330
8.693730,0.193398,-1.038840,10.003398,0.209444,-0.289714,-0.046199,0.915527,-0.030518,4.394531
8.703817,0.167053,-0.935255,10.081835,0.183098,-0.186129,0.032238,0.946045,-0.122070,4.913330
8.713937,0.208367,-1.125060,10.003997,0.224413,-0.375934,-0.045600,0.457764,0.000000,3.997803
8.724029,0.120350,-1.130449,10.032138,0.136396,-0.381323,-0.017459,-0.823975,-0.152588,4.089355
8.734199,0.180225,-1.313668,10.011780,0.196271,-0.564542,-0.037817,0.762939,0.122070,5.371094
8.744292,0.114961,-0.670605,10.039922,0.131007,0.078521,-0.009675,-0.244141,-0.305176,5.889893
8.754383,0.080832,-0.631088,10.047107,0.096878,0.118039,-0.002490,0.030518,-0.366211,6.195068
8.764473,-0.092208,-0.864602,10.060878,-0.076162,-0.115476,0.011281,0.793457,-0.610352,7.324219
8.774565,0.022154,-1.118474,10.095007,0.038200,-0.369348,0.045410,0.305176,-1.129150,9.674072
8.784656,0.001198,-0.836461,10.061477,0.017243,-0.087334,0.011880,0.671387,-0.976562,13.946533
8.794746,0.005988,-0.664019,10.050101,0.022033,0.085107,0.000504,1.586914,-0.885010,13.916016
8.804837,-0.077838,-0.507145,10.050101,-0.061792,0.241981,0.000504,-0.579834,-1.129150,12.084961
8.815012,-0.126337,-0.641266,10.050699,-0.110291,0.107860,0.001102,-2.105713,-1.434326,11.993408
8.825108,-0.105980,-0.935854,10.018367,-0.089934,-0.186728,-0.031230,-2.655029,-1.739502,18.157959
8.835205,-0.006586,-0.965193,10.017768,0.009460,-0.216067,-0.031829,-2.746582,-1.495361,20.629883
8.845303,-0.002395,-0.862806,10.014175,0.013651,-0.113680,-0.035422,-2.685547,-1.220703,21.759033
8.855401,-0.229323,-0.753234,10.014774,-0.213277,-0.004107,-0.034823,-0.183105,-0.457764,24.597168
8.865499,-0.160466,-0.779579,10.083032,-0.144420,-0.030453,0.033435,0.244141,-0.488281,24.353027
8.875596,0.058678,-0.667013,10.083631,0.074724,0.082113,0.034034,0.488281,-0.640869,23.254395
8.885693,0.050295,-0.770598,10.074650,0.066341,-0.021471,0.025053,0.579834,-0.640869,22.308350
8.895805,0.048499,-0.702938,10.129735,0.064545,0.046188,0.080138,-1.098633,-1.525879,21.850586
8.905903,0.195793,-0.601150,10.122550,0.211839,0.147976,0.072953,-0.122070,-1.617432,19.409180
8.916086,0.159269,-0.424517,10.048903,0.175315,0.324609,-0.000694,-1.831055,-1.861572,15.563965
8.926178,0.002994,-0.796943,9.984836,0.019040,-0.047817,-0.064761,2.319336,-1.251221,9.704590
8.936269,0.074844,-0.887355,9.963880,0.090890,-0.138229,-0.085717,3.234863,-1.098633,8.422852
8.946363,0.280816,-1.341810,9.948911,0.296862,-0.592684,-0.100686,-4.791260,-2.105713,11.169434
8.956453,0.401166,-1.263972,10.049502,0.417212,-0.514845,-0.000095,-6.256104,-2.014160,12.329102
8.966560,0.390987,-0.814307,10.065668,0.407033,-0.065180,0.016071,-2.044678,-0.976562,11.810303
8.976652,-0.013771,-0.274230,10.083032,0.002275,0.474896,0.033435,-1.800537,-0.885010,10.742188
8.986743,-0.091609,-0.337099,10.052496,-0.075564,0.412027,0.002899,0.122070,-0.457764,10.284424
8.996834,-0.149689,-0.633483,10.063872,-0.133643,0.115644,0.014275,4.089355,1.861572,5.279541
9.006919,-0.105980,-0.581391,10.029144,-0.089934,0.167735,-0.020453,3.143311,1.861572,3.112793
9.017048,-0.017364,-0.732277,10.004595,-0.001318,0.016849,-0.045002,1.800537,1.281738,3.051758
9.027139,0.051493,-0.765209,10.057286,0.067539,-0.016083,0.007689,1.525879,1.098633,3.570557
9.037230,-0.046703,-0.767604,10.027348,-0.030657,-0.018478,-0.022249,1.129150,0.701904,5.432129
9.047322,0.025746,-0.891546,9.990824,0.041792,-0.142420,-0.058773,1.739502,0.579834,5.035400
9.057419,-0.070653,-0.419727,10.146500,-0.054607,0.329399,0.096903,1.770020,0.671387,0.244141
9.067511,-0.229922,-0.540676,10.105785,-0.213876,0.208451,0.056188,-0.122070,0.244141,-1.190186
9.077600,-0.235311,-0.679587,10.051897,-0.219265,0.069539,0.002300,0.732422,0.671387,-2.899170
9.087689,-0.122745,-0.987946,10.024354,-0.106699,-0.238819,-0.025243,-1.190186,-0.244141,-1.922607
9.097780,-0.074844,-0.773591,9.980645,-0.058798,-0.024465,-0.068952,1.007080,-0.366211,-1.281738
9.107872,-0.042512,-0.735870,10.001602,-0.026466,0.013256,-0.047995,1.220703,-0.640869,-3.051758
9.117999,-0.022154,-0.756227,10.091415,-0.006108,-0.007101,0.041818,-1.251221,-0.946045,-3.875732
9.128092,-0.068857,-0.999921,10.023157,-0.052811,-0.250794,-0.026440,-5.279541,-1.251221,-0.061035
9.138183,0.046703,-1.298699,10.011182,0.062749,-0.549573,-0.038415,-6.530762,-1.403809,2.746582
9.148274,0.120948,-1.366957,9.995614,0.136994,-0.617831,-0.053983,-5.615234,-1.129150,4.699707
9.158366,0.141306,-0.989742,10.012978,0.157352,-0.240616,-0.036619,-1.464844,-0.213623,6.408691
9.168454,0.061073,-0.920286,10.081236,0.077119,-0.171160,0.031639,1.495361,0.305176,5.798340
9.178546,0.003593,-0.955014,10.024354,0.019638,-0.205888,-0.025243,4.913330,0.946045,3.723145
9.188633,-0.002994,-0.988544,10.037527,0.013052,-0.239418,-0.012070,4.791260,0.762939,3.631592
9.198720,0.052092,-1.114882,10.024953,0.068138,-0.365755,-0.024644,2.502441,0.030518,5.523682
9.208809,0.104782,-0.993334,10.036928,0.120828,-0.244208,-0.012669,1.068115,-0.457764,6.317139
9.218897,0.113165,-1.044229,10.041119,0.129211,-0.295102,-0.008478,-1.007080,-0.885010,5.889893
9.228989,0.049098,-0.959205,10.011182,0.065144,-0.210079,-0.038415,-2.044678,-1.251221,4.516602
9.239084,-0.033530,-0.971180,10.005194,-0.017484,-0.222054,-0.044403,0.061035,-0.976562,2.593994
9.249180,-0.005389,-1.186732,9.965078,0.010657,-0.437606,-0.084519,3.082275,-0.640869,3.417969
9.259274,0.029339,-1.032852,9.975256,0.045385,-0.283726,-0.074341,5.187988,-0.427246,0.976562
9.269368,-0.107177,-0.770598,9.992021,-0.091131,-0.021471,-0.057576,3.234863,-0.671387,-0.091553
9.279465,-0.129331,-0.930465,9.985435,-0.113285,-0.181339,-0.064162,1.983643,-0.518799,0.030518
9.289558,0.027543,-1.432222,9.885443,0.043589,-0.683095,-0.164154,-0.854492,-0.488281,0.122070
9.299652,0.141306,-0.887953,10.083631,0.157352,-0.138827,0.034034,2.777100,-0.091553,-0.213623
9.309747,0.058678,-0.785566,10.072853,0.074724,-0.036440,0.023256,3.356934,0.061035,-2.716064
9.319840,-0.247885,-0.707728,10.191407,-0.231839,0.041398,0.141810,1.495361,0.213623,-6.195068
9.329934,-0.221539,-1.238824,9.999805,-0.205493,-0.489698,-0.049792,0.762939,-0.335693,-5.493164
9.340028,-0.007784,-1.504671,10.026151,0.008262,-0.755545,-0.023446,1.007080,-0.885010,-1.098633
9.350120,0.241298,-0.699346,10.005793,0.257344,0.049780,-0.043804,0.122070,-1.007080,2.349854
9.360215,0.122745,-0.419727,10.045311,0.138791,0.329399,-0.004286,-1.647949,-0.885010,6.866455
9.370309,0.037123,-0.722098,10.127939,0.053169,0.027028,0.078342,-3.387451,-0.152588,3.753662
9.380404,-0.036524,-0.944236,10.000404,-0.020478,-0.195110,-0.049193,-3.631592,0.183105,0.671387
9.390496,-0.030536,-1.025667,10.017169,-0.014491,-0.276541,-0.032428,-2.868652,0.488281,0.427246
9.400594,-0.008981,-1.213676,10.049502,0.007065,-0.464550,-0.000095,-1.983643,0.152588,2.624512
9.410687,0.007784,-0.915496,10.141710,0.023830,-0.166370,0.092113,-1.281738,-0.671387,1.892090
9.420783,-0.044308,-0.692161,10.027947,-0.028262,0.056966,-0.021650,-1.495361,-0.854492,1.342773
9.430877,-0.046104,-0.626896,9.887838,-0.030058,0.122230,-0.161759,-2.685547,0.274658,-0.122070
9.440974,-0.279020,-0.668210,10.021959,-0.262974,0.080916,-0.027638,-2.227783,0.183105,-0.732422
9.451066,-0.195793,-0.783171,9.960287,-0.179747,-0.034045,-0.089310,-2.075195,0.030518,-3.112793
9.461164,-0.121547,-0.984952,10.008188,-0.105501,-0.235826,-0.041409,-0.518799,0.885010,-6.011963
9.471256,-0.034129,-1.229244,10.078841,-0.018083,-0.480118,0.029244,-1.159668,1.251221,-5.401611
9.481357,-0.095202,-1.225651,10.139315,-0.079156,-0.476525,0.089718,-1.800537,0.823975,-4.577637
9.491451,-0.125140,-0.928070,10.045311,-0.109094,-0.178944,-0.004286,-1.739502,0.549316,-7.293701
9.501546,-0.349074,-0.928070,10.036329,-0.333028,-0.178944,-0.013268,-1.068115,0.762939,-12.542725
9.511638,-0.367037,-1.008303,9.905202,-0.350991,-0.259177,-0.144395,-1.007080,1.007080,-14.434814
9.521736,-0.389789,-0.910706,9.940529,-0.373744,-0.161580,-0.109068,-1.281738,1.708984,-15.380859
9.531822,-0.277224,-0.989742,10.038126,-0.261178,-0.240616,-0.011471,-2.258301,1.708984,-16.235352
9.541913,-0.230521,-0.856219,10.036928,-0.214475,-0.107093,-0.012669,-2.380371,1.159668,-17.059326
9.551999,-0.161664,-0.919687,10.043514,-0.145618,-0.170561,-0.006083,-0.396729,0.671387,-16.937256
9.562089,-0.117356,-1.076561,10.059681,-0.101310,-0.327435,0.010084,-0.885010,0.366211,-16.174316
9.572177,-0.041913,-1.191522,9.975256,-0.025867,-0.442396,-0.074341,0.366211,0.274658,-15.777588
9.582268,-0.019759,-1.115480,9.943522,-0.003713,-0.366354,-0.106075,0.701904,0.152588,-15.380859
9.592358,-0.028740,-0.829874,9.962682,-0.012694,-0.080748,-0.086915,1.098633,-0.152588,-14.312744
9.602449,0.042512,-0.910107,10.051298,0.058557,-0.160981,0.001701,1.617432,0.061035,-15.319824
9.612541,0.046703,-0.693957,9.959689,0.062749,0.055169,-0.089908,3.143311,0.610352,-17.608643
9.622712,-0.125140,-0.924478,9.987231,-0.109094,-0.175351,-0.062366,2.136230,1.312256,-18.005371
9.632809,-0.228126,-0.580193,10.128538,-0.212080,0.168933,0.078941,3.845215,1.647949,-16.021729
9.642906,-0.052690,-0.847238,10.074051,-0.036645,-0.098112,0.024454,2.777100,0.946045,-11.566162
9.653002,0.020358,-1.019680,10.095007,0.036404,-0.270553,0.045410,2.258301,1.007080,-11.779785
9.663100,0.126337,-0.872386,10.075248,0.142383,-0.123260,0.025651,1.281738,1.464844,-9.704590
9.673197,0.173639,-0.702339,9.945319,0.189685,0.046787,-0.104278,0.701904,1.922607,-7.537842
9.683295,0.218546,-0.788560,9.971065,0.234591,-0.039434,-0.078532,0.305176,2.471924,-6.744385
9.693402,0.256866,-0.655637,10.005194,0.272912,0.093490,-0.044403,0.122070,1.770020,-5.065918
9.703498,0.255070,-0.720901,10.072255,0.271115,0.028225,0.022658,-1.098633,1.037598,-4.791260
9.713596,0.096400,-0.820893,10.077643,0.112445,-0.071767,0.028046,-2.349854,0.091553,-3.173828
9.723799,0.214953,-0.677192,10.075847,0.230999,0.071934,0.026250,-2.685547,-0.305176,-2.197266
9.733891,0.214354,-0.689167,10.083631,0.230400,0.059959,0.034034,3.051758,-0.091553,-3.082275
9.743980,0.274230,-0.486788,9.983040,0.290276,0.262338,-0.066557,6.164551,0.671387,-5.798340
9.754070,0.149090,-0.468226,9.981843,0.165136,0.280900,-0.067754,4.608154,0.793457,-8.514404
9.764161,0.108973,-0.528102,10.021360,0.125019,0.221024,-0.028237,1.190186,0.671387,-12.573242
9.774251,0.036524,-0.283211,10.024354,0.052570,0.465915,-0.025243,1.953125,0.640869,-12.725830
9.784342,-0.098795,-0.476010,10.024354,-0.082749,0.273116,-0.025243,1.098633,0.366211,-11.657715
9.794432,-0.074246,-0.476010,10.054891,-0.058200,0.273116,0.005294,0.976562,0.213623,-12.512207
9.804523,-0.064666,-0.529299,10.002799,-0.048620,0.219827,-0.046798,1.525879,0.854492,-13.366699
9.814937,-0.152084,-0.668809,9.985435,-0.136038,0.080317,-0.064162,0.183105,0.427246,-12.207031
9.825119,-0.263452,-0.640668,10.042916,-0.247406,0.108458,-0.006681,-1.586914,0.671387,-9.674072
9.835218,-0.132325,-0.788560,9.981843,-0.116279,-0.039434,-0.067754,-2.319336,0.640869,-8.850098
9.845315,-0.144300,-0.812510,9.974059,-0.128254,-0.063384,-0.075538,-2.105713,0.823975,-8.178711
9.855411,-0.182620,-0.866398,10.060878,-0.166574,-0.117272,0.011281,-1.831055,0.854492,-7.415771
9.865509,-0.355660,-0.735870,10.100396,-0.339615,0.013256,0.050799,-0.946045,0.579834,-5.645752
9.875605,-0.085023,-0.885558,9.984836,-0.068977,-0.136432,-0.064761,-0.091553,0.213623,-4.394531
9.885702,-0.096400,-0.571212,10.104587,-0.080354,0.177914,0.054990,0.030518,0.061035,-4.425049
9.896000,-0.182620,-0.596959,10.056088,-0.166574,0.152168,0.006491,-3.173828,-0.823975,-6.591797
9.906100,-0.118553,-0.827479,10.018965,-0.102508,-0.078353,-0.030632,-3.082275,-0.793457,-9.918213
9.916197,-0.062869,-0.943039,9.965078,-0.046823,-0.193913,-0.084519,-0.152588,-0.091553,-10.375977
9.926375,-0.205373,-0.522114,10.081835,-0.189327,0.227012,0.032238,2.227783,0.549316,-10.894775
9.936466,-0.198787,-0.606539,10.114766,-0.182741,0.142587,0.065169,1.251221,0.457764,-9.277344
9.946553,-0.124541,-0.926873,10.012379,-0.108495,-0.177746,-0.037218,1.159668,0.732422,-6.591797
9.956645,0.028740,-0.894540,10.039922,0.044786,-0.145414,-0.009675,1.068115,0.762939,-6.011963
9.966734,0.159868,-0.656834,10.017768,0.175913,0.092292,-0.031829,-0.122070,0.885010,-4.760742
9.976828,-0.087418,-0.642464,10.057286,-0.071372,0.106662,0.007689,-1.159668,0.213623,-1.861572
9.986919,0.013771,-0.595761,10.169253,0.029817,0.153365,0.119656,-7.995605,-1.556396,0.274658
9.997010,0.131127,-0.836461,10.010583,0.147173,-0.087334,-0.039014,-5.493164,-1.525879,-1.647949
10.007100,-0.077239,-0.698747,10.057885,-0.061193,0.050379,0.008288,-5.737305,-1.556396,-1.770020
10.017191,-0.170046,-0.949026,9.957892,-0.154001,-0.199900,-0.091705,-3.479004,-1.617432,3.631592
10.027359,-0.068258,-0.716111,10.069860,-0.052212,0.033015,0.020263,-0.213623,-1.464844,3.417969
10.037455,-0.130529,-0.421523,9.912986,-0.114483,0.327603,-0.136611,6.256104,-0.152588,-0.976562
10.047553,-0.280217,-0.362845,10.054292,-0.264171,0.386281,0.004695,5.889893,0.091553,-4.760742
10.057650,-0.308958,-0.621508,10.030941,-0.292912,0.127619,-0.018656,4.089355,-0.030518,-7.446289
10.067746,-0.007185,-0.839454,10.032138,0.008861,-0.090328,-0.017459,3.021240,-0.030518,-6.591797
10.077842,0.135319,-0.823288,10.042916,0.151364,-0.074162,-0.006681,2.655029,-0.030518,-3.845215
10.087939,-0.012574,-0.442480,10.083631,0.003472,0.306646,0.034034,0.823975,0.335693,-3.448486
10.098036,0.126337,-0.525707,9.983639,0.142383,0.223419,-0.065958,0.427246,-0.030518,-1.434326
10.108133,0.185015,-0.468226,10.169852,0.201061,0.280900,0.120255,-2.044678,-0.762939,1.525879
10.118230,0.209564,-0.420925,10.133926,0.225610,0.328202,0.084329,-3.204346,-0.610352,2.349854
10.128354,0.356259,-0.591570,10.014774,0.372305,0.157556,-0.034823,0.183105,0.671387,2.746582
10.138444,0.231119,-0.211360,9.990824,0.247165,0.537766,-0.058773,2.380371,1.251221,3.387451
10.148532,0.264051,-0.213755,10.061477,0.280097,0.535371,0.011880,0.396729,0.732422,2.380371
10.158617,-0.207169,-0.550854,10.042317,-0.191123,0.198272,-0.007280,1.007080,0.488281,4.638672
10.168720,-0.181423,-0.331710,10.110575,-0.165377,0.417416,0.060978,2.044678,0.335693,4.760742
10.178810,-0.075443,-0.470023,10.105186,-0.059397,0.279104,0.055589,-0.427246,-0.579834,5.950928
10.188897,-0.121547,-0.535886,9.999805,-0.105501,0.213241,-0.049792,-1.922607,-0.823975,6.134033
10.198988,-0.085023,-0.820893,10.014175,-0.068977,-0.071767,-0.035422,-1.190186,-0.518799,3.051758
10.209078,-0.113165,-0.517324,10.025552,-0.097119,0.231802,-0.024045,-1.708984,-0.610352,3.082275
10.219164,-0.125140,-0.690963,10.010583,-0.109094,0.058163,-0.039014,-3.570557,-0.946045,3.082275
10.229255,-0.149689,-0.589774,10.020163,-0.133643,0.159353,-0.029434,3.173828,-0.427246,1.617432
10.239350,-0.058079,-0.771795,9.950109,-0.042033,-0.022669,-0.099488,3.265381,-0.274658,0.671387
10.249441,0.199385,-0.941841,10.033336,0.215431,-0.192715,-0.016261,1.556396,-0.152588,-1.647949
10.259535,0.131127,-0.489781,10.127340,0.147173,0.259345,0.077743,3.570557,0.274658,-0.335693
10.269629,0.130529,-0.359253,10.069261,0.146574,0.389873,0.019664,1.312256,0.061035,-2.593994
10.279721,0.014370,-0.631686,10.076446,0.030416,0.117440,0.026849,-0.427246,-0.030518,-4.821777
10.289814,0.022753,-0.723895,10.009984,0.038799,0.025232,-0.039613,0.305176,-0.244141,-5.310059
10.299911,0.107177,-0.655038,9.988429,0.123223,0.094088,-0.061168,2.197266,0.061035,-3.295898
10.310004,0.151485,-0.882565,10.003997,0.167531,-0.133439,-0.045600,-1.007080,-0.335693,-2.258301
10.320098,0.171244,-0.692161,9.989626,0.187290,0.056966,-0.059971,-1.251221,-0.610352,-0.854492
10.330300,-0.001198,-0.616718,10.061477,0.014848,0.132409,0.011880,-0.823975,-0.671387,0.457764
10.340388,0.160466,-0.704136,9.980645,0.176512,0.044990,-0.068952,-0.762939,-0.183105,0.244141
10.350474,0.132325,-0.764610,9.985435,0.148371,-0.015484,-0.064162,0.030518,-0.122070,-0.396729
10.360567,0.110770,-0.771795,10.032138,0.126816,-0.022669,-0.017459,2.105713,0.518799,0.244141
10.370653,-0.138911,-0.348475,10.079440,-0.122865,0.400651,0.029843,2.655029,0.762939,0.213623
10.380745,-0.319735,-0.575403,10.072255,-0.303689,0.173723,0.022658,2.227783,0.701904,-0.305176
10.390832,-0.225731,-0.748444,10.072853,-0.209685,0.000683,0.023256,0.793457,0.030518,-5.096436
10.400922,-0.228126,-0.526904,10.057885,-0.212080,0.222222,0.008288,0.366211,0.122070,-6.561279
10.411009,-0.308359,-0.514330,10.047107,-0.292313,0.234796,-0.002490,-0.396729,0.396729,-7.568359
10.421099,-0.452060,-0.578996,10.060878,-0.436014,0.170130,0.011281,-0.427246,0.488281,-7.659912
10.431256,-0.311951,-0.690364,10.038126,-0.295905,0.058762,-0.011471,-0.061035,0.610352,-9.460449
10.441354,-0.194595,-1.019680,10.075847,-0.178549,-0.270553,0.026250,-0.305176,0.366211,-10.162354
10.451448,-0.157473,-1.144819,10.009385,-0.141427,-0.395693,-0.040212,-1.586914,0.091553,-9.063721
10.461544,-0.167053,-1.010099,10.002200,-0.151007,-0.260973,-0.047397,-1.098633,-0.640869,-6.286621
10.471637,-0.279619,-0.718506,10.110575,-0.263573,0.030620,0.060978,-0.488281,-0.732422,-5.737305
10.481736,-0.136516,-1.234034,10.047706,-0.120470,-0.484908,-0.001891,-0.518799,-0.183105,-7.415771
10.491827,0.102387,-1.207090,9.969269,0.118433,-0.457964,-0.080328,-0.610352,0.061035,-6.500244
10.501925,-0.027543,-0.804727,10.048304,-0.011497,-0.055600,-0.001293,1.129150,0.152588,1.678467
10.512018,0.058079,-0.943638,10.126143,0.074125,-0.194512,0.076546,2.349854,0.671387,2.807617
10.522113,0.149090,-0.918490,10.026151,0.165136,-0.169364,-0.023446,2.197266,-0.183105,3.845215
10.532281,0.071851,-0.947829,10.012379,0.087896,-0.198703,-0.037218,-0.244141,-0.762939,3.814697
10.542371,0.217348,-0.701142,10.023755,0.233394,0.047984,-0.025842,-0.305176,-1.068115,1.800537
10.552460,-0.053289,-0.513732,10.047706,-0.037243,0.235394,-0.001891,-1.373291,-0.854492,0.579834
10.562550,-0.007784,-0.830473,10.036329,0.008262,-0.081347,-0.013268,-2.075195,-0.640869,1.770020
10.572641,0.058079,-0.728685,10.111772,0.074125,0.020441,0.062175,0.396729,-0.122070,1.617432
10.582730,-0.022154,-0.626298,10.051298,-0.006108,0.122829,0.001701,0.854492,-0.366211,3.570557
10.592819,0.062271,-0.743654,9.979448,0.078316,0.005473,-0.070149,2.563477,-0.671387,4.364014
10.602909,-0.138911,-0.564626,10.080038,-0.122865,0.184500,0.030441,2.197266,-0.671387,4.150391
10.612997,-0.004191,-0.799937,10.051897,0.011855,-0.050810,0.002300,1.464844,-0.671387,4.089355
10.623087,-0.046104,-0.829874,10.034533,-0.030058,-0.080748,-0.015064,0.335693,-0.061035,2.716064
10.633236,0.053289,-0.869991,10.023157,0.069335,-0.120865,-0.026440,0.488281,-0.061035,5.889893
10.643334,0.234712,-0.852627,10.083631,0.250758,-0.103501,0.034034,1.159668,-0.061035,6.042480
10.653426,0.091609,-0.516127,9.991423,0.107655,0.232999,-0.058174,1.129150,-0.183105,6.958008
10.663523,0.063468,-0.664618,9.965676,0.079514,0.084508,-0.083921,0.793457,-0.335693,5.249023
10.674082,0.245490,-0.935854,9.998608,0.261535,-0.186728,-0.050989,0.457764,-0.183105,4.089355
10.684203,0.148491,-0.765807,10.137519,0.164537,-0.016681,0.087922,0.213623,-0.915527,5.676270
10.694392,0.178429,-0.921484,9.909393,0.194475,-0.172358,-0.140204,0.183105,-1.098633,6.134033
10.704487,0.014969,-1.000519,10.035132,0.031015,-0.251393,-0.014465,0.518799,-1.159668,4.821777
10.714576,0.177830,-0.790955,10.082433,0.193876,-0.041829,0.032836,0.946045,-0.885010,5.889893
10.724667,0.076641,-0.801733,10.022558,0.092687,-0.052607,-0.027039,0.610352,-0.427246,5.828857
10.734766,0.123942,-1.023272,9.929751,0.139988,-0.274146,-0.119846,1.129150,-0.030518,7.141113
10.744860,-0.001796,-0.866398,10.119556,0.014250,-0.117272,0.069959,1.007080,-0.183105,9.368896
10.754952,0.031135,-0.909509,10.036329,0.047181,-0.160382,-0.013268,0.915527,-1.098633,10.131836
10.765042,0.073647,-0.854423,9.989028,0.089693,-0.105297,-0.060569,0.244141,-1.190186,9.246826
10.775134,0.019759,-0.708327,10.003398,0.035805,0.040799,-0.046199,-0.366211,-1.129150,8.331299
10.785225,0.170046,-1.108295,10.121353,0.186092,-0.359169,0.071756,-1.892090,-0.610352,7.080078
10.795328,0.211959,-1.069975,9.962682,0.228005,-0.320849,-0.086915,-2.044678,-0.640869,7.232666
10.805420,0.126936,-0.548459,10.018965,0.142982,0.200667,-0.030632,-2.105713,-0.396729,8.880615
10.815512,0.047900,-0.422122,10.159673,0.063946,0.327004,0.110076,-1.312256,-0.579834,8.636475
10.825603,0.108375,-0.659229,9.994417,0.124421,0.089897,-0.055181,-2.899170,-0.915527,5.004883
10.835768,-0.119751,-0.695154,10.088421,-0.103705,0.053972,0.038824,-1.770020,-1.525879,5.310059
10.845863,0.148491,-1.005908,9.978250,0.164537,-0.256782,-0.071347,0.457764,-0.396729,5.004883
10.855961,0.069456,-0.734073,10.006392,0.085501,0.015053,-0.043205,-0.244141,-0.671387,6.134033
10.866059,0.017364,-0.552651,10.093211,0.033410,0.196475,0.043614,0.152588,-0.671387,4.730225
10.876156,-0.087418,-0.480800,10.090217,-0.071372,0.268326,0.040620,1.190186,-0.152588,0.213623
10.886254,-0.056882,-0.747246,10.003398,-0.040836,0.001880,-0.046199,0.335693,-0.335693,0.030518
10.896435,-0.108973,-0.952619,9.993818,-0.092928,-0.203493,-0.055779,0.610352,-0.244141,-0.732422
10.906535,-0.073048,-0.842448,9.993818,-0.057002,-0.093322,-0.055779,1.617432,0.091553,1.037598
10.916633,0.096400,-0.755030,9.954300,0.112445,-0.005904,-0.095297,1.068115,0.000000,1.495361
10.926732,0.066462,-0.799338,9.924362,0.082508,-0.050212,-0.125235,-1.281738,-0.274658,-1.495361
10.936864,0.021555,-0.899330,9.911190,0.037601,-0.150204,-0.138407,-1.922607,-0.183105,-3.387451
10.946962,0.170645,-1.025667,9.974059,0.186691,-0.276541,-0.075538,-1.129150,-0.061035,-2.807617
10.957060,0.099992,-0.932860,10.091415,0.116038,-0.183734,0.041818,-1.831055,-0.244141,-3.448486
10.967158,0.025148,-0.834664,10.030941,0.041194,-0.085538,-0.018656,0.549316,0.396729,-3.204346
10.977253,-0.022753,-0.889151,10.002799,-0.006707,-0.140025,-0.046798,3.112793,1.037598,-2.136230
10.987351,0.022753,-0.884361,9.989626,0.038799,-0.135235,-0.059971,4.089355,1.342773,-3.753662
10.997449,0.047900,-1.023871,10.034533,0.063946,-0.274745,-0.015064,4.241943,1.220703,-3.875732
11.007547,0.007784,-1.142424,10.039323,0.023830,-0.393298,-0.010274,3.509521,1.129150,-2.258301
11.017644,0.059875,-0.831072,10.063273,0.075921,-0.081946,0.013676,4.058838,0.793457,-0.518799
11.027742,0.131726,-1.102906,9.979448,0.147772,-0.353780,-0.070149,1.831055,0.152588,0.427246
11.037944,0.102986,-1.052611,10.001602,0.119032,-0.303485,-0.047995,-0.091553,-0.885010,2.532959
11.048036,0.114362,-1.134641,10.051897,0.130408,-0.385514,0.002300,1.007080,-0.946045,4.699707
11.058127,0.140707,-0.884960,9.989028,0.156753,-0.135834,-0.060569,1.708984,-0.854492,2.471924
11.068217,-0.099393,-0.727487,10.128538,-0.083347,0.021639,0.078941,1.129150,-0.427246,1.220703
11.078308,-0.122146,-0.832868,10.121951,-0.106100,-0.083742,0.072354,0.183105,0.122070,1.373291
11.088398,-0.074246,-0.727487,10.029743,-0.058200,0.021639,-0.019854,-0.854492,0.274658,1.373291
11.098489,0.036524,-0.665217,10.160870,0.052570,0.083910,0.111273,-2.349854,0.122070,2.410889
11.108579,0.121547,-0.591570,10.100396,0.137593,0.157556,0.050799,-3.417969,-0.579834,2.746582
11.118670,0.154479,-0.367635,10.030941,0.170525,0.381491,-0.018656,-3.570557,-0.244141,-0.305176
11.128761,-0.315544,-0.390388,10.053693,-0.299498,0.358738,0.004096,-2.227783,0.671387,-3.845215
11.138919,-0.234712,-0.615520,10.071656,-0.218666,0.133606,0.022059,-5.279541,-0.183105,-1.007080
11.149017,-0.057480,-0.926873,10.026749,-0.041435,-0.177746,-0.022848,-2.746582,-0.366211,4.394531
11.159114,-0.022753,-0.276625,10.111772,-0.006707,0.472501,0.062175,0.579834,0.091553,4.974365
11.169211,-0.001198,0.193997,10.074051,0.014848,0.943123,0.024454,2.777100,1.098633,0.427246
11.179309,-0.114961,-0.573008,9.993219,-0.098915,0.176118,-0.056378,3.448486,2.044678,-6.317139
11.189406,-0.124541,-0.844843,10.014774,-0.108495,-0.095717,-0.034823,3.814697,2.227783,-6.622314
11.199503,0.038919,-0.635878,9.995015,0.054965,0.113248,-0.054582,4.577637,1.586914,-3.906250
11.209600,0.127535,-0.680784,10.015373,0.143581,0.068342,-0.034224,3.448486,1.251221,-4.699707
11.219699,0.043709,-0.554447,10.027947,0.059755,0.194679,-0.021650,2.349854,1.190186,-3.723145
11.229798,0.064067,-0.629291,10.013577,0.080113,0.119835,-0.036020,2.227783,1.190186,-2.380371
11.239928,-0.005988,-0.500559,10.017768,0.010058,0.248567,-0.031829,1.739502,0.793457,0.610352
11.250023,0.032333,-0.774789,10.121951,0.048379,-0.025663,0.072354,-0.061035,0.152588,1.495361
11.260121,0.062271,-1.054407,9.883647,0.078316,-0.305281,-0.165950,-1.647949,-0.671387,4.180908
11.270217,0.357457,-0.790356,10.054891,0.373503,-0.041230,0.005294,-3.265381,-0.457764,6.713867
11.280374,0.114362,-0.446072,10.165660,0.130408,0.303054,0.116063,-3.173828,-0.396729,6.530762
11.290473,0.087418,-0.598156,10.060280,0.103464,0.150970,0.010683,-2.593994,-0.732422,6.286621
11.300570,0.024549,-1.066981,10.062076,0.040595,-0.317855,0.012479,-0.396729,-0.518799,6.591797
11.310667,0.214953,-1.201102,10.012379,0.230999,-0.451976,-0.037218,1.464844,-0.274658,8.148193
11.320764,0.034129,-0.984353,10.054292,0.050175,-0.235227,0.004695,1.251221,-0.549316,10.925293
11.330862,0.076042,-0.804128,10.081236,0.092088,-0.055002,0.031639,0.488281,-0.335693,11.505127
11.340989,-0.190404,-0.813109,10.065070,-0.174358,-0.063983,0.015473,-1.220703,-1.037598,13.977051
11.351087,-0.171843,-0.929866,10.156679,-0.155797,-0.180740,0.107082,-0.793457,-0.762939,12.176514
11.361183,-0.102387,-0.692759,10.042916,-0.086341,0.056367,-0.006681,-0.671387,-0.579834,8.056641
11.371284,-0.229922,-0.762215,10.113569,-0.213876,-0.013089,0.063972,-0.488281,-0.457764,4.638672
11.381383,-0.398172,-1.108894,9.978250,-0.382126,-0.359768,-0.071347,-0.701904,-0.183105,3.540039
11.391480,0.044907,-0.855621,10.005793,0.060952,-0.106495,-0.043804,-3.417969,-0.366211,4.943848
11.401578,0.010179,-0.849034,9.963880,0.026225,-0.099908,-0.085717,-2.258301,-0.518799,5.126953
11.411673,-0.083227,-0.868793,10.012379,-0.067181,-0.119667,-0.037218,-0.976562,0.396729,3.326416
11.421770,-0.037722,-0.781375,9.981843,-0.021676,-0.032249,-0.067754,-0.305176,0.152588,2.288818
11.431868,-0.029938,-0.815504,10.114766,-0.013892,-0.066378,0.065169,0.762939,-0.640869,0.183105
11.441996,0.005389,-1.090931,10.047107,0.021435,-0.341805,-0.002490,1.525879,-1.159668,-0.396729
11.452093,0.026345,-1.098116,10.071656,0.042391,-0.348990,0.022059,1.708984,-1.190186,4.272461
11.462191,0.176633,-0.808918,10.077643,0.192679,-0.059792,0.028046,1.892090,-0.976562,5.493164
11.472289,0.095801,-0.852627,10.044712,0.111847,-0.103501,-0.004885,1.129150,-0.610352,4.730225
11.482387,0.202379,-0.499960,10.075248,0.218425,0.249166,0.025651,2.380371,0.000000,3.540039
11.492485,0.129930,-0.678988,10.172247,0.145976,0.070138,0.122650,1.281738,0.091553,3.814697
11.502582,0.066462,-0.898731,10.132130,0.082508,-0.149605,0.082533,-1.434326,-0.457764,2.777100
11.512681,0.220941,-0.696951,10.006990,0.236986,0.052176,-0.042607,-0.701904,-1.068115,3.997803
11.522779,0.168250,-0.565225,10.071057,0.184296,0.183902,0.021460,-0.030518,-1.159668,5.432129
11.532878,0.159868,-0.664019,10.015373,0.175913,0.085107,-0.034224,-0.732422,-1.251221,5.371094
11.543002,0.122146,-0.643063,10.076446,0.138192,0.106063,0.026849,-1.037598,-1.068115,4.058838
11.553100,0.020956,-0.330513,10.077045,0.037002,0.418613,0.027448,-0.946045,-1.403809,3.845215
11.563198,-0.087418,-0.410746,10.128538,-0.071372,0.338380,0.078941,-2.746582,-1.464844,3.723145
11.573297,0.034728,-0.654439,10.030342,0.050774,0.094687,-0.019255,-1.617432,-1.068115,1.342773
11.583394,0.094603,-0.772993,9.971664,0.110649,-0.023866,-0.077933,-0.335693,-0.518799,-1.373291
11.593491,-0.012574,-0.413740,10.014774,0.003472,0.335387,-0.034823,0.732422,-0.091553,-0.793457
11.603588,0.031734,-0.644859,10.102791,0.047780,0.104267,0.053194,2.746582,0.091553,-0.671387
11.613687,-0.010179,-0.702339,10.099199,0.005867,0.046787,0.049602,2.532959,-0.854492,-2.075195
11.623785,0.108973,-0.638871,9.980645,0.125019,0.110255,-0.068952,1.373291,-0.671387,-2.777100
11.633884,0.031135,-0.634680,10.024354,0.047181,0.114446,-0.025243,0.640869,-0.640869,-2.105713
11.644009,0.021555,-0.702339,10.003398,0.037601,0.046787,-0.046199,0.549316,0.671387,-2.563477
11.654107,-0.041314,-0.688568,10.155482,-0.025268,0.060558,0.105885,-0.213623,0.976562,-2.502441
11.664205,0.009580,-0.742456,10.117760,0.025626,0.006670,0.068163,-1.129150,0.854492,-0.274658
11.674302,-0.034129,-0.611329,10.073452,-0.018083,0.137797,0.023855,-1.098633,0.762939,1.190186
11.684400,-0.102387,-0.783770,10.017768,-0.086341,-0.034644,-0.031829,-1.190186,0.396729,3.356934
11.694497,-0.049098,-0.831671,10.048304,-0.033052,-0.082544,-0.001293,-1.159668,0.579834,2.746582
11.704592,0.019160,-0.404758,10.022558,0.035206,0.344368,-0.027039,-1.495361,0.305176,3.234863
11.714691,-0.177231,-0.660427,10.212363,-0.161186,0.088700,0.162766,-1.831055,-1.159668,4.302979
11.724786,-0.160466,-0.667013,9.948911,-0.144420,0.082113,-0.100686,-2.838135,-0.976562,3.997803
11.734884,-0.026944,-0.853824,9.941726,-0.010898,-0.104698,-0.107871,0.183105,-0.946045,2.075195
11.745080,-0.081431,-0.793949,10.036928,-0.065385,-0.044823,-0.012669,-1.007080,-0.946045,-0.701904
11.755171,-0.157473,-0.796943,10.122550,-0.141427,-0.047817,0.072953,0.091553,-1.434326,0.701904
11.765261,-0.034728,-0.616718,10.100995,-0.018682,0.132409,0.051398,0.366211,-1.312256,1.800537
11.775349,-0.068258,-0.604144,10.030342,-0.052212,0.144983,-0.019255,-0.732422,-0.976562,1.617432
11.785441,-0.087418,-0.901126,10.067465,-0.071372,-0.152000,0.017868,-1.892090,0.122070,0.946045
11.795531,0.014969,-0.632884,10.029743,0.031015,0.116242,-0.019854,-1.861572,-0.030518,1.434326
11.805619,0.088616,-0.801733,10.013577,0.104662,-0.052607,-0.036020,-0.488281,0.610352,1.892090
11.815709,0.131726,-0.728086,9.977651,0.147772,0.021040,-0.071946,-0.396729,0.305176,2.014160
11.825799,0.117955,-0.852627,10.023157,0.134001,-0.103501,-0.026440,3.417969,0.610352,2.716064
11.835890,-0.086819,-0.993933,9.989028,-0.070774,-0.244807,-0.060569,2.685547,0.427246,3.509521
11.846055,-0.092208,-0.901725,10.009984,-0.076162,-0.152599,-0.039613,0.915527,0.183105,4.180908
11.856153,0.056882,-0.942440,10.041119,0.072928,-0.193314,-0.008478,0.671387,0.061035,5.706787
11.866250,-0.065264,-0.714315,10.032138,-0.049218,0.034812,-0.017459,1.190186,0.061035,6.347656
11.876348,-0.041314,-0.768801,10.069261,-0.025268,-0.019675,0.019664,1.220703,-0.183105,6.958008
11.886445,-0.118553,-0.512534,10.087224,-0.102508,0.236592,0.037627,1.129150,-0.244141,6.378174
11.896542,-0.011975,-0.625699,9.948911,0.004071,0.123427,-0.100686,-0.488281,-0.793457,4.333496
11.906639,0.004790,-0.480201,10.157278,0.020836,0.268925,0.107681,0.091553,-0.976562,4.669189
11.916737,0.112566,-0.823288,9.913585,0.128612,-0.074162,-0.136012,2.716064,-0.030518,6.683350
11.926834,0.062869,-0.548459,10.034533,0.078915,0.200667,-0.015064,1.464844,0.152588,7.141113
11.936931,-0.059277,-0.583187,10.099797,-0.043231,0.165939,0.050200,0.640869,-0.244141,7.537842
11.947055,-0.231718,-0.901725,9.942924,-0.215672,-0.152599,-0.106673,0.976562,-0.732422,6.774902
11.957153,-0.331710,-0.498763,10.100995,-0.315664,0.250363,0.051398,1.800537,-0.915527,7.873535
11.967434,0.376617,-0.635279,10.063273,0.392663,0.113847,0.013676,1.922607,-0.579834,6.195068
11.977533,0.107177,-0.726290,10.096205,0.123223,0.022837,0.046608,1.678467,0.213623,5.096436
11.987630,0.026345,-0.798739,10.034533,0.042391,-0.049613,-0.015064,0.671387,-0.183105,6.774902
11.997724,0.004191,-0.650847,9.982441,0.020237,0.098280,-0.067156,0.152588,0.000000,6.958008
12.007820,-0.189207,-0.719703,10.109976,-0.173161,0.029423,0.060379,-0.976562,0.183105,5.523682
12.017917,-0.202978,-0.728086,10.062076,-0.186932,0.021040,0.012479,-0.335693,-0.640869,5.004883
12.028015,0.051493,-0.547861,10.097402,0.067539,0.201265,0.047805,-0.061035,-1.434326,4.455566
12.038113,0.086819,-0.534688,10.119556,0.102865,0.214438,0.069959,-0.488281,-1.159668,1.922607
12.048236,0.023351,-0.790955,10.032138,0.039397,-0.041829,-0.017459,-1.800537,-1.098633,0.976562
12.058332,0.192200,-0.681982,10.057286,0.208246,0.067144,0.007689,-2.624512,-0.640869,0.183105
12.068430,0.235909,-0.697549,10.066866,0.251955,0.051577,0.017269,-2.380371,-0.854492,0.122070
12.078529,0.254471,-0.726290,10.021959,0.270517,0.022837,-0.027638,-3.723145,-0.549316,-1.831055
12.088627,0.192200,-0.490979,9.993219,0.208246,0.258147,-0.056378,-4.364014,-0.701904,-2.746582
12.098724,-0.009580,-0.584984,9.975256,0.006466,0.164143,-0.074341,-4.058838,-0.671387,-3.173828
12.108821,0.125739,-0.780178,10.002799,0.141784,-0.031051,-0.046798,-1.770020,-0.183105,-4.364014
12.118918,0.120948,-0.742456,10.067465,0.136994,0.006670,0.017868,-1.342773,-0.061035,-4.486084
12.129014,0.160466,-0.984353,9.963880,0.176512,-0.235227,-0.085717,0.244141,0.335693,-2.532959
12.139111,0.096998,-0.705333,9.997410,0.113044,0.043793,-0.052187,1.037598,0.213623,-1.861572
12.149236,0.094005,-0.677791,10.008188,0.110050,0.071336,-0.041409,3.479004,0.762939,-0.305176
12.159333,0.017963,-0.753832,10.152488,0.034009,-0.004706,0.102891,5.249023,0.671387,-1.007080
12.169431,0.017963,-0.684377,10.065070,0.034009,0.064749,0.015473,2.441406,0.122070,-1.312256
12.179528,-0.081431,-0.740061,10.053693,-0.065385,0.009065,0.004096,-0.823975,-0.518799,-0.427246
12.189626,0.065863,-0.746647,9.996812,0.081909,0.002479,-0.052785,-0.030518,-0.244141,0.793457
12.199723,-0.024549,-0.345482,10.108180,-0.008503,0.403645,0.058583,0.274658,0.030518,1.556396
12.209821,-0.032932,-0.583187,10.056687,-0.016886,0.165939,0.007090,-0.640869,-0.030518,1.037598
12.219919,0.038919,-0.752635,10.012379,0.054965,-0.003509,-0.037218,-1.831055,-0.396729,2.593994
12.230016,0.043709,-0.453257,10.012978,0.059755,0.295869,-0.036619,-2.288818,-0.549316,3.692627
12.240111,0.016166,-0.514929,10.082433,0.032212,0.234197,0.032836,-1.525879,-0.549316,3.326416
12.250236,-0.049697,-0.717308,10.003997,-0.033651,0.031818,-0.045600,-0.976562,-0.213623,2.655029
12.260363,-0.101788,-0.632285,10.028546,-0.085742,0.116841,-0.021051,1.281738,-0.335693,2.380371
12.270460,-0.184417,-0.501158,10.018965,-0.168371,0.247968,-0.030632,0.427246,-0.122070,-0.335693
12.280557,-0.150287,-0.474813,10.060280,-0.134242,0.274314,0.010683,0.061035,-0.427246,-2.166748
12.290654,-0.266446,-0.678988,10.081236,-0.250400,0.070138,0.031639,2.197266,-0.030518,-4.699707
12.300750,-0.296982,-0.374222,10.071656,-0.280937,0.374904,0.022059,5.249023,0.518799,-5.432129
12.310848,-0.325723,-0.410147,10.076446,-0.309677,0.338979,0.026849,4.150391,0.335693,-3.723145
12.320944,-0.060474,-0.610730,10.039323,-0.044428,0.138396,-0.010274,3.753662,0.427246,-2.868652
12.331040,0.055684,-0.660427,10.062076,0.071730,0.088700,0.012479,3.082275,0.061035,-2.288818
12.341138,-0.046703,-0.455652,10.056088,-0.030657,0.293474,0.006491,1.464844,-0.061035,-5.706787
12.351275,-0.152682,-0.599354,10.050101,-0.136637,0.149773,0.000504,1.831055,0.061035,-6.530762
12.361372,0.026944,-0.725691,10.049502,0.042990,0.023435,-0.000095,0.640869,-0.274658,-2.807617
12.371469,0.119152,-0.755629,10.062675,0.135198,-0.006502,0.013078,1.464844,-0.335693,0.000000
12.381562,0.179028,-0.594564,10.055490,0.195074,0.154563,0.005892,2.685547,-0.152588,-0.518799
12.391660,0.111967,-0.646655,10.021959,0.128013,0.102471,-0.027638,2.685547,0.183105,-2.532959
12.401757,0.108973,-0.676593,9.986633,0.125019,0.072533,-0.062964,2.746582,0.122070,-1.586914
12.411851,0.177231,-0.703537,10.098001,0.193277,0.045589,0.048404,2.441406,-0.122070,-0.701904
12.421949,0.183818,-0.790955,10.061477,0.199864,-0.041829,0.011880,1.831055,-0.122070,-1.068115
12.432045,0.213157,-0.692161,10.032138,0.229203,0.056966,-0.017459,0.061035,0.000000,-2.258301
12.442143,0.140109,-0.709525,10.050101,0.156155,0.039602,0.000504,-0.732422,0.091553,-2.532959
12.452265,0.163460,-0.692759,10.074650,0.179506,0.056367,0.025053,-1.098633,0.152588,-3.692627
12.462363,0.220342,-0.836461,10.033934,0.236388,-0.087334,-0.015663,-1.190186,0.396729,-4.394531
12.472460,0.225132,-0.905317,10.056088,0.241178,-0.156191,0.006491,-1.373291,0.579834,-4.730225
12.482557,0.119152,-0.901725,10.071656,0.135198,-0.152599,0.022059,-2.532959,0.335693,-3.662109
12.492655,0.237706,-0.948428,10.057885,0.253752,-0.199302,0.008288,-3.967285,0.183105,-3.784180
12.502751,0.134720,-0.880170,10.021360,0.150766,-0.131043,-0.028237,-4.699707,0.000000,-4.180908
12.512849,0.101190,-0.668809,10.063872,0.117235,0.080317,0.014275,-3.356934,-0.061035,-5.737305
12.522947,0.099992,-0.781974,10.067465,0.116038,-0.032848,0.017868,-4.180908,-0.183105,-7.995605
12.533044,0.146695,-0.886157,10.100995,0.162741,-0.137031,0.051398,-3.265381,-0.152588,-8.544922
12.543140,0.213755,-1.093326,10.012379,0.229801,-0.344200,-0.037218,-0.518799,0.305176,-10.375977
12.553263,0.149689,-1.137634,10.002200,0.165735,-0.388508,-0.047397,0.701904,0.396729,-10.498047
12.563360,0.226329,-1.074765,10.032138,0.242375,-0.325639,-0.017459,3.173828,0.976562,-10.131836
12.573459,0.282014,-0.989742,10.062675,0.298059,-0.240616,0.013078,6.378174,1.953125,-9.643555
