time,ax_raw,ay_raw,az_raw,ax,ay,az,gx,gy,gz
0.001367,0.044308,-0.677791,10.062076,0.002007,-0.011041,0.001089,0.152588,0.091553,0.030518
0.011476,0.043709,-0.677791,10.055490,0.001409,-0.011041,-0.005497,0.183105,0.091553,0.030518
0.021570,0.041314,-0.675396,10.070458,-0.000986,-0.008646,0.009472,0.183105,0.091553,0.030518
0.032889,0.041913,-0.675396,10.072255,-0.000388,-0.008646,0.011268,0.244141,0.122070,0.030518
0.043011,0.045505,-0.673599,10.072853,0.003205,-0.006850,0.011867,0.244141,0.091553,0.030518
0.053107,0.049697,-0.676593,10.069261,0.007396,-0.009844,0.008274,0.244141,0.122070,0.030518
0.063183,0.046104,-0.671803,10.059082,0.003804,-0.005053,-0.001905,0.335693,0.091553,0.030518
0.073258,0.044308,-0.671803,10.057885,0.002007,-0.005053,-0.003102,0.335693,0.091553,0.030518
0.083333,0.028740,-0.664618,10.059082,-0.013560,0.002132,-0.001905,0.305176,0.091553,0.030518
0.093408,0.025746,-0.672402,10.058483,-0.016554,-0.005652,-0.002504,0.244141,0.091553,0.030518
0.103481,0.027543,-0.672402,10.053693,-0.014758,-0.005652,-0.007294,0.183105,0.091553,0.030518
0.113556,0.023351,-0.662822,10.047107,-0.018949,0.003928,-0.013880,0.091553,0.061035,0.030518
0.123629,0.029339,-0.667612,10.052496,-0.012962,-0.000862,-0.008491,0.000000,0.030518,0.030518
0.133705,0.029339,-0.669408,10.052496,-0.012962,-0.002658,-0.008491,-0.122070,0.061035,0.030518
0.143785,0.028141,-0.667612,10.053094,-0.014159,-0.000862,-0.007892,-0.213623,0.030518,0.000000
0.153876,0.028740,-0.674198,10.043514,-0.013560,-0.007449,-0.017472,-0.366211,0.000000,0.030518
0.163961,0.029339,-0.679587,10.045311,-0.012962,-0.012837,-0.015676,-0.366211,-0.030518,0.030518
0.174053,0.033530,-0.675396,10.053693,-0.008770,-0.008646,-0.007294,-0.305176,0.030518,0.030518
0.184160,0.034129,-0.676593,10.059681,-0.008172,-0.009844,-0.001306,-0.274658,0.030518,0.030518
0.194251,0.033530,-0.684377,10.060280,-0.008770,-0.017627,-0.000707,-0.274658,0.030518,0.030518
0.204340,0.033530,-0.683778,10.051298,-0.008770,-0.017029,-0.009689,-0.122070,0.091553,0.030518
0.214430,0.036524,-0.682581,10.056088,-0.005776,-0.015831,-0.004899,-0.061035,0.091553,0.030518
0.224517,0.044308,-0.677192,10.069261,0.002007,-0.010442,0.008274,0.091553,0.091553,0.000000
0.234609,0.038320,-0.677192,10.066866,-0.003980,-0.010442,0.005879,0.183105,0.091553,0.030518
0.244712,0.041314,-0.677791,10.059681,-0.000986,-0.011041,-0.001306,0.457764,0.122070,0.000000
0.254803,0.041913,-0.678988,10.050699,-0.000388,-0.012239,-0.010287,0.610352,0.122070,-0.030518
0.264893,0.041913,-0.676593,10.049502,-0.000388,-0.009844,-0.011485,0.854492,0.152588,0.000000
0.274982,0.033530,-0.668809,10.061477,-0.008770,-0.002060,0.000490,0.823975,0.152588,0.000000
0.285072,0.034728,-0.674198,10.062675,-0.007573,-0.007449,0.001688,0.793457,0.183105,0.000000
0.295163,0.035327,-0.660427,10.053094,-0.006974,0.006323,-0.007892,0.610352,0.122070,-0.030518
0.305273,0.038919,-0.677192,10.050101,-0.003381,-0.010442,-0.010886,0.335693,0.061035,0.000000
0.315360,0.040117,-0.664618,10.044113,-0.002184,0.002132,-0.016874,0.305176,0.061035,0.030518
0.325452,0.035925,-0.673000,10.048304,-0.006375,-0.006251,-0.012682,0.183105,0.061035,0.030518
0.335538,0.037123,-0.674198,10.050699,-0.005178,-0.007449,-0.010287,0.183105,0.091553,0.030518
0.345627,0.039518,-0.667013,10.049502,-0.002783,-0.000263,-0.011485,0.122070,0.091553,0.000000
0.355739,0.037722,-0.667612,10.045909,-0.004579,-0.000862,-0.015077,0.152588,0.091553,0.030518
0.365838,0.038919,-0.671204,10.052496,-0.003381,-0.004455,-0.008491,0.091553,0.091553,0.030518
0.375930,0.035925,-0.668809,10.054292,-0.006375,-0.002060,-0.006695,0.152588,0.091553,0.030518
0.386028,0.035327,-0.673000,10.052496,-0.006974,-0.006251,-0.008491,0.152588,0.091553,-0.030518
0.396123,0.034728,-0.675994,10.053094,-0.007573,-0.009245,-0.007892,0.152588,0.091553,-0.030518
0.406219,0.031734,-0.674198,10.057885,-0.010567,-0.007449,-0.003102,0.152588,0.091553,-0.030518
0.416318,0.035327,-0.669408,10.066267,-0.006974,-0.002658,0.005280,0.152588,0.061035,0.000000
0.426433,0.037123,-0.670605,10.062076,-0.005178,-0.003856,0.001089,0.122070,0.091553,0.000000
0.436528,0.036524,-0.671803,10.062076,-0.005776,-0.005053,0.001089,0.122070,0.061035,0.000000
0.446727,0.034728,-0.670605,10.056687,-0.007573,-0.003856,-0.004300,0.122070,0.061035,0.000000
0.456818,0.031135,-0.670605,10.057885,-0.011165,-0.003856,-0.003102,0.152588,0.030518,0.030518
0.466908,0.031135,-0.671204,10.059681,-0.011165,-0.004455,-0.001306,0.152588,0.030518,0.000000
0.476999,0.031734,-0.671803,10.056088,-0.010567,-0.005053,-0.004899,0.152588,0.030518,0.000000
0.487105,0.032932,-0.673599,10.062675,-0.009369,-0.006850,0.001688,0.213623,0.030518,0.030518
0.497195,0.034129,-0.670605,10.061477,-0.008172,-0.003856,0.000490,0.244141,0.030518,0.030518
0.507286,0.041314,-0.662822,10.053693,-0.000986,0.003928,-0.007294,0.244141,0.030518,0.030518
0.517378,0.041314,-0.661025,10.054891,-0.000986,0.005724,-0.006096,0.244141,0.000000,0.030518
0.527468,0.041913,-0.658630,10.065070,-0.000388,0.008119,0.004083,0.305176,0.061035,0.030518
0.537559,0.040117,-0.657433,10.062675,-0.002184,0.009317,0.001688,0.244141,0.061035,0.030518
0.547699,0.042512,-0.659229,10.053094,0.000211,0.007520,-0.007892,0.274658,0.091553,0.030518
0.557791,0.044907,-0.655038,10.056088,0.002606,0.011712,-0.004899,0.244141,0.091553,0.030518
0.567882,0.047302,-0.657433,10.053094,0.005001,0.009317,-0.007892,0.244141,0.061035,0.030518
0.577972,0.040117,-0.665815,10.055490,-0.002184,0.000934,-0.005497,0.213623,0.061035,0.030518
0.588067,0.040117,-0.670007,10.055490,-0.002184,-0.003257,-0.005497,0.183105,0.061035,0.030518
0.598159,0.040715,-0.668210,10.058483,-0.001585,-0.001461,-0.002504,0.091553,0.030518,0.030518
0.608250,0.043709,-0.666414,10.057885,0.001409,0.000335,-0.003102,0.030518,0.030518,0.030518
0.618344,0.044907,-0.661025,10.062076,0.002606,0.005724,0.001089,0.000000,0.030518,0.061035
0.628436,0.046703,-0.662822,10.059681,0.004402,0.003928,-0.001306,-0.030518,0.061035,0.030518
0.638526,0.043709,-0.670605,10.057286,0.001409,-0.003856,-0.003701,-0.030518,0.061035,0.030518
0.648703,0.044907,-0.666414,10.051897,0.002606,0.000335,-0.009090,0.030518,0.061035,0.061035
0.658802,0.043110,-0.664019,10.051897,0.000810,0.002730,-0.009090,0.061035,0.030518,0.030518
0.668900,0.040715,-0.671803,10.058483,-0.001585,-0.005053,-0.002504,0.061035,0.061035,0.030518
0.679032,0.043110,-0.671204,10.057885,0.000810,-0.004455,-0.003102,0.091553,0.061035,0.061035
0.689133,0.041913,-0.672402,10.053094,-0.000388,-0.005652,-0.007892,0.122070,0.061035,0.030518
0.699232,0.041314,-0.673000,10.056687,-0.000986,-0.006251,-0.004300,0.122070,0.091553,0.030518
0.709332,0.043110,-0.671803,10.054891,0.000810,-0.005053,-0.006096,0.091553,0.061035,0.030518
0.719426,0.037722,-0.673599,10.059681,-0.004579,-0.006850,-0.001306,0.183105,0.091553,0.030518
0.729524,0.031734,-0.672402,10.063872,-0.010567,-0.005652,0.002885,0.183105,0.061035,0.000000
0.739620,0.035327,-0.671803,10.057286,-0.006974,-0.005053,-0.003701,0.183105,0.091553,0.030518
0.749816,0.035327,-0.670605,10.052496,-0.006974,-0.003856,-0.008491,0.213623,0.091553,0.030518
0.759908,0.036524,-0.664019,10.057286,-0.005776,0.002730,-0.003701,0.183105,0.061035,0.000000
0.769999,0.035925,-0.671803,10.060878,-0.006375,-0.005053,-0.000109,0.213623,0.122070,0.030518
0.780090,0.040715,-0.670605,10.067465,-0.001585,-0.003856,0.006478,0.213623,0.122070,0.000000
0.790181,0.046104,-0.667013,10.064471,0.003804,-0.000263,0.003484,0.244141,0.091553,0.000000
0.800274,0.041913,-0.669408,10.057286,-0.000388,-0.002658,-0.003701,0.305176,0.091553,0.030518
0.810366,0.042512,-0.664019,10.056088,0.000211,0.002730,-0.004899,0.366211,0.061035,0.000000
0.820457,0.043709,-0.667612,10.056088,0.001409,-0.000862,-0.004899,0.335693,0.091553,0.030518
0.830548,0.048499,-0.663420,10.048903,0.006199,0.003329,-0.012084,0.396729,0.091553,0.000000
0.840639,0.046703,-0.665815,10.035132,0.004402,0.000934,-0.025855,0.366211,0.091553,0.030518
0.850758,0.046104,-0.658032,10.086026,0.003804,0.008718,0.025039,0.305176,0.061035,0.030518
0.860850,0.042512,-0.650248,10.048304,0.000211,0.016502,-0.012682,0.122070,0.030518,0.000000
0.870945,0.036524,-0.674198,10.063273,-0.005776,-0.007449,0.002286,0.305176,0.030518,0.030518
0.881037,0.025746,-0.643063,10.053094,-0.016554,0.023687,-0.007892,0.091553,0.030518,0.030518
0.891129,0.035925,-0.674198,10.056687,-0.006375,-0.007449,-0.004300,0.000000,0.061035,0.030518
0.901221,0.034129,-0.631686,10.074051,-0.008172,0.035063,0.013064,0.152588,0.061035,0.030518
0.911312,0.042512,-0.674198,10.025552,0.000211,-0.007449,-0.035435,0.000000,0.091553,0.030518
0.921402,0.034129,-0.644859,10.074051,-0.008172,0.021890,0.013064,0.213623,0.091553,0.030518
0.931500,0.033530,-0.679587,10.056687,-0.008770,-0.012837,-0.004300,0.030518,0.061035,0.030518
0.941589,0.029339,-0.683778,10.068662,-0.012962,-0.017029,0.007675,0.244141,0.091553,0.030518
0.951718,0.034728,-0.664618,10.048903,-0.007573,0.002132,-0.012084,0.030518,0.061035,0.030518
0.961813,0.036524,-0.671803,10.038126,-0.005776,-0.005053,-0.022861,0.152588,0.091553,0.030518
0.971905,0.034129,-0.656235,10.077643,-0.008172,0.010514,0.016657,0.152588,0.030518,0.030518
0.981998,0.034728,-0.671204,10.054891,-0.007573,-0.004455,-0.006096,0.122070,0.030518,0.030518
0.992091,0.040715,-0.655038,10.066866,-0.001585,0.011712,0.005879,0.122070,0.061035,0.000000
1.002179,0.044907,-0.664618,10.038724,0.002606,0.002132,-0.022262,0.061035,0.061035,-0.030518
1.012271,0.045505,-0.671803,10.056088,0.003205,-0.005053,-0.004899,0.183105,0.061035,0.000000
1.022362,0.042512,-0.665217,10.066267,0.000211,0.001533,0.005280,0.091553,0.091553,0.030518
1.032452,0.043709,-0.675396,10.048304,0.001409,-0.008646,-0.012682,0.244141,0.091553,0.030518
1.042543,0.032333,-0.657433,10.062076,-0.009968,0.009317,0.001089,0.213623,0.061035,0.030518
1.052666,0.037123,-0.676593,10.052496,-0.005178,-0.009844,-0.008491,0.122070,0.061035,0.030518
1.062755,0.037123,-0.668809,10.066866,-0.005178,-0.002060,0.005879,0.213623,0.061035,0.030518
1.072844,0.040117,-0.676593,10.045311,-0.002184,-0.009844,-0.015676,0.122070,0.061035,0.030518
1.082931,0.041913,-0.657433,10.072255,-0.000388,0.009317,0.011268,0.244141,0.061035,0.030518
1.093021,0.045505,-0.659229,10.064471,0.003205,0.007520,0.003484,0.122070,0.061035,0.030518
1.103122,0.052092,-0.664019,10.056088,0.009791,0.002730,-0.004899,0.183105,0.122070,0.030518
1.113212,0.046104,-0.653840,10.059082,0.003804,0.012909,-0.001905,0.122070,0.091553,0.030518
1.123300,0.048499,-0.665217,10.053094,0.006199,0.001533,-0.007892,0.152588,0.061035,0.030518
1.133388,0.046104,-0.658630,10.075248,0.003804,0.008119,0.014262,0.152588,0.091553,0.030518
1.143476,0.047900,-0.665815,10.060878,0.005600,0.000934,-0.000109,0.122070,0.061035,0.030518
1.153651,0.050295,-0.656834,10.068662,0.007995,0.009915,0.007675,0.213623,0.091553,0.000000
1.163745,0.051493,-0.656235,10.066267,0.009192,0.010514,0.005280,0.152588,0.061035,0.030518
1.173841,0.053888,-0.664019,10.075248,0.011587,0.002730,0.014262,0.152588,0.030518,0.030518
1.183952,0.041913,-0.660427,10.071057,-0.000388,0.006323,0.010070,0.152588,0.030518,0.030518
1.194046,0.036524,-0.661624,10.059681,-0.005776,0.005125,-0.001306,0.091553,0.030518,0.030518
1.204142,0.040117,-0.664618,10.083032,-0.002184,0.002132,0.022045,0.274658,0.030518,0.030518
1.214239,0.040117,-0.655038,10.070458,-0.002184,0.011712,0.009472,0.183105,0.030518,0.030518
1.224333,0.044308,-0.675994,10.071656,0.002007,-0.009245,0.010669,0.274658,0.030518,0.000000
1.234430,0.039518,-0.650248,10.065070,-0.002783,0.016502,0.004083,0.274658,0.030518,0.030518
1.244539,0.047302,-0.667612,10.064471,0.005001,-0.000862,0.003484,0.274658,0.061035,0.030518
1.254635,0.043110,-0.652643,10.063273,0.000810,0.014107,0.002286,0.305176,0.061035,0.000000
1.264723,0.051493,-0.662822,10.051897,0.009192,0.003928,-0.009090,0.152588,0.091553,0.030518
1.274812,0.055684,-0.656235,10.065668,0.013384,0.010514,0.004682,0.274658,0.091553,0.030518
1.284902,0.053888,-0.665815,10.062076,0.011587,0.000934,0.001089,0.152588,0.091553,0.030518
1.294991,0.043709,-0.664019,10.065070,0.001409,0.002730,0.004083,0.183105,0.091553,0.030518
1.305098,0.041913,-0.655038,10.057286,-0.000388,0.011712,-0.003701,0.122070,0.091553,0.030518
1.315187,0.043709,-0.673000,10.068662,0.001409,-0.006251,0.007675,0.030518,0.000000,0.030518
1.325279,0.047302,-0.656235,10.068662,0.005001,0.010514,0.007675,0.091553,0.030518,0.000000
1.335370,0.044308,-0.654439,10.064471,0.002007,0.012310,0.003484,-0.152588,0.000000,0.000000
1.345460,0.044308,-0.672402,10.066267,0.002007,-0.005652,0.005280,-0.061035,0.000000,0.000000
1.355589,0.039518,-0.670007,10.059082,-0.002783,-0.003257,-0.001905,-0.061035,0.000000,-0.030518
1.365694,0.044308,-0.673000,10.066866,0.002007,-0.006251,0.005879,-0.152588,0.000000,0.030518
1.375784,0.045505,-0.668809,10.059082,0.003205,-0.002060,-0.001905,-0.152588,0.030518,0.030518
1.385875,0.050295,-0.671803,10.054891,0.007995,-0.005053,-0.006096,-0.183105,0.030518,0.000000
1.395964,0.047302,-0.668210,10.054891,0.005001,-0.001461,-0.006096,-0.183105,0.030518,0.030518
1.406054,0.047302,-0.664618,10.056088,0.005001,0.002132,-0.004899,-0.274658,0.061035,0.030518
1.416143,0.041314,-0.673000,10.056088,-0.000986,-0.006251,-0.004899,-0.244141,0.061035,0.030518
1.426252,0.043110,-0.669408,10.051897,0.000810,-0.002658,-0.009090,-0.183105,0.061035,0.030518
1.436342,0.055085,-0.671204,10.062076,0.012785,-0.004455,0.001089,-0.122070,0.091553,0.030518
1.446432,0.053289,-0.666414,10.052496,0.010989,0.000335,-0.008491,-0.122070,0.091553,0.030518
1.456552,0.050894,-0.671204,10.053094,0.008594,-0.004455,-0.007892,-0.152588,0.030518,0.030518
1.466642,0.049098,-0.675994,10.063273,0.006797,-0.009245,0.002286,-0.061035,0.030518,0.000000
1.476730,0.050295,-0.667013,10.060878,0.007995,-0.000263,-0.000109,0.000000,0.061035,0.000000
1.486836,0.043110,-0.665217,10.058483,0.000810,0.001533,-0.002504,-0.030518,0.061035,-0.030518
1.496926,0.042512,-0.670007,10.060280,0.000211,-0.003257,-0.000707,-0.030518,0.030518,0.000000
1.507017,0.044907,-0.667612,10.064471,0.002606,-0.000862,0.003484,0.091553,0.061035,0.030518
1.517115,0.044308,-0.665815,10.068063,0.002007,0.000934,0.007077,0.122070,0.061035,0.030518
1.527205,0.042512,-0.668809,10.059681,0.000211,-0.002060,-0.001306,0.061035,0.061035,0.030518
1.537296,0.040117,-0.666414,10.057885,-0.002184,0.000335,-0.003102,0.091553,0.061035,0.030518
1.547405,0.040715,-0.666414,10.056687,-0.001585,0.000335,-0.004300,0.122070,0.061035,0.000000
1.557531,0.040117,-0.667013,10.054891,-0.002184,-0.000263,-0.006096,0.152588,0.122070,0.030518
1.567622,0.041913,-0.660427,10.054891,-0.000388,0.006323,-0.006096,0.183105,0.122070,0.000000
1.577715,0.037722,-0.666414,10.062675,-0.004579,0.000335,0.001688,0.244141,0.122070,0.000000
1.587805,0.036524,-0.661624,10.068063,-0.005776,0.005125,0.007077,0.335693,0.122070,0.000000
1.597896,0.034728,-0.659828,10.072853,-0.007573,0.006922,0.011867,0.305176,0.122070,0.030518
1.607990,0.035925,-0.659828,10.066866,-0.006375,0.006922,0.005879,0.335693,0.091553,0.030518
1.618081,0.046104,-0.662223,10.066267,0.003804,0.004527,0.005280,0.244141,0.091553,0.030518
1.628172,0.044907,-0.661624,10.073452,0.002606,0.005125,0.012465,0.244141,0.122070,0.030518
1.638262,0.043110,-0.662223,10.071057,0.000810,0.004527,0.010070,0.213623,0.122070,0.000000
1.648353,0.047900,-0.663420,10.054891,0.005600,0.003329,-0.006096,0.213623,0.122070,0.000000
1.658530,0.044308,-0.665815,10.054292,0.002007,0.000934,-0.006695,0.244141,0.091553,0.000000
1.668629,0.051493,-0.663420,10.068662,0.009192,0.003329,0.007675,0.183105,0.061035,0.030518
1.678731,0.049098,-0.662822,10.069860,0.006797,0.003928,0.008873,0.152588,0.030518,0.030518
1.688829,0.049697,-0.658630,10.062076,0.007396,0.008119,0.001089,0.091553,0.030518,0.030518
1.698928,0.049697,-0.666414,10.059082,0.007396,0.000335,-0.001905,0.061035,0.061035,0.030518
1.709027,0.053289,-0.663420,10.054891,0.010989,0.003329,-0.006096,0.061035,0.061035,0.030518
1.719123,0.044308,-0.670007,10.063273,0.002007,-0.003257,0.002286,0.030518,0.061035,0.030518
1.729221,0.037722,-0.667612,10.063872,-0.004579,-0.000862,0.002885,0.030518,0.061035,0.030518
1.739321,0.038320,-0.668809,10.065668,-0.003980,-0.002060,0.004682,0.000000,0.030518,0.030518
1.749422,0.035925,-0.671803,10.065668,-0.006375,-0.005053,0.004682,0.000000,0.061035,0.030518
1.759557,0.039518,-0.671803,10.061477,-0.002783,-0.005053,0.000490,-0.030518,0.061035,0.030518
1.769656,0.043110,-0.677791,10.063872,0.000810,-0.011041,0.002885,0.000000,0.061035,0.030518
1.779753,0.047302,-0.675994,10.065070,0.005001,-0.009245,0.004083,0.061035,0.030518,0.030518
1.789852,0.044907,-0.675994,10.069860,0.002606,-0.009245,0.008873,0.061035,0.061035,0.030518
1.799953,0.048499,-0.670007,10.065668,0.006199,-0.003257,0.004682,0.030518,0.091553,0.030518
1.810051,0.043709,-0.677791,10.056687,0.001409,-0.011041,-0.004300,0.000000,0.122070,0.061035
1.820149,0.043709,-0.674198,10.060280,0.001409,-0.007449,-0.000707,0.030518,0.091553,0.061035
1.830247,0.038919,-0.673599,10.056088,-0.003381,-0.006850,-0.004899,0.030518,0.091553,0.030518
1.840341,0.043110,-0.677791,10.053094,0.000810,-0.011041,-0.007892,0.030518,0.122070,0.030518
1.850439,0.046703,-0.674198,10.056687,0.004402,-0.007449,-0.004300,0.061035,0.091553,0.000000
1.860636,0.045505,-0.676593,10.060280,0.003205,-0.009844,-0.000707,0.091553,0.061035,0.000000
1.870725,0.040715,-0.675396,10.063273,-0.001585,-0.008646,0.002286,0.061035,0.061035,-0.030518
1.880816,0.042512,-0.675396,10.063872,0.000211,-0.008646,0.002885,0.030518,0.061035,-0.030518
1.890908,0.042512,-0.667013,10.069860,0.000211,-0.000263,0.008873,0.091553,0.061035,0.000000
1.900998,0.038320,-0.672402,10.059681,-0.003980,-0.005652,-0.001306,0.122070,0.061035,0.030518
1.911088,0.034129,-0.673000,10.063872,-0.008172,-0.006251,0.002885,0.091553,0.091553,0.000000
1.921182,0.029938,-0.671204,10.059681,-0.012363,-0.004455,-0.001306,0.061035,0.091553,0.030518
1.931448,0.033530,-0.673599,10.062675,-0.008770,-0.006850,0.001688,0.091553,0.091553,0.030518
1.941535,0.031135,-0.675994,10.063872,-0.011165,-0.009245,0.002885,0.122070,0.091553,0.030518
1.951629,0.035925,-0.671803,10.057286,-0.006375,-0.005053,-0.003701,0.122070,0.091553,0.030518
1.961759,0.037722,-0.677192,10.053693,-0.004579,-0.010442,-0.007294,0.152588,0.061035,0.030518
1.972926,0.043709,-0.679587,10.065668,0.001409,-0.012837,0.004682,0.122070,0.061035,0.030518
1.983047,0.041913,-0.686772,10.065668,-0.000388,-0.020022,0.004682,0.091553,0.061035,0.061035
1.993156,0.040117,-0.681383,10.057885,-0.002184,-0.014634,-0.003102,0.091553,0.091553,0.030518
2.003257,0.047302,-0.686173,10.053094,0.005001,-0.019424,-0.007892,0.091553,0.061035,0.030518
2.013352,0.049098,-0.677791,10.064471,0.006797,-0.011041,0.003484,0.091553,0.061035,0.030518
2.023453,0.044308,-0.672402,10.064471,0.002007,-0.005652,0.003484,0.122070,0.030518,0.030518
2.033551,0.048499,-0.674198,10.062675,0.006199,-0.007449,0.001688,0.091553,0.030518,0.030518
2.043647,0.045505,-0.675994,10.059681,0.003205,-0.009245,-0.001306,0.061035,0.030518,0.030518
2.053754,0.043709,-0.679587,10.063872,0.001409,-0.012837,0.002885,0.030518,0.030518,0.030518
2.063866,0.039518,-0.684377,10.072853,-0.002783,-0.017627,0.011867,0.061035,0.030518,0.030518
2.073931,0.049697,-0.688568,10.070458,0.007396,-0.021819,0.009472,0.061035,0.061035,0.030518
2.083998,0.049098,-0.680784,10.066866,0.006797,-0.014035,0.005879,0.091553,0.091553,0.000000
2.094069,0.050295,-0.685574,10.061477,0.007995,-0.018825,0.000490,0.122070,0.061035,0.000000
2.104135,0.043709,-0.684377,10.057286,0.001409,-0.017627,-0.003701,0.122070,0.030518,0.000000
2.114204,0.040117,-0.687371,10.064471,-0.002184,-0.020621,0.003484,0.122070,0.061035,-0.030518
2.124269,0.043110,-0.677791,10.067465,0.000810,-0.011041,0.006478,0.122070,0.061035,-0.030518
2.134346,0.043110,-0.671204,10.064471,0.000810,-0.004455,0.003484,0.122070,0.061035,0.030518
2.144413,0.046703,-0.673599,10.066267,0.004402,-0.006850,0.005280,0.122070,0.030518,0.000000
2.154481,0.050894,-0.675396,10.057885,0.008594,-0.008646,-0.003102,0.122070,0.061035,0.030518
2.164546,0.050894,-0.676593,10.056687,0.008594,-0.009844,-0.004300,0.122070,0.061035,0.030518
2.174615,0.051493,-0.682581,10.062076,0.009192,-0.015831,0.001089,0.152588,0.061035,0.030518
2.184681,0.053289,-0.688568,10.059681,0.010989,-0.021819,-0.001306,0.152588,0.061035,0.030518
2.194748,0.053888,-0.683179,10.053094,0.011587,-0.016430,-0.007892,0.183105,0.030518,0.061035
2.204813,0.043110,-0.680186,10.050699,0.000810,-0.013436,-0.010287,0.183105,0.061035,0.061035
2.214906,0.043110,-0.681383,10.057286,0.000810,-0.014634,-0.003701,0.183105,0.030518,0.030518
2.224973,0.052092,-0.681383,10.060280,0.009791,-0.014634,-0.000707,0.183105,0.061035,0.030518
2.235043,0.046703,-0.673599,10.063872,0.004402,-0.006850,0.002885,0.091553,0.030518,0.061035
2.245110,0.041913,-0.673000,10.060878,-0.000388,-0.006251,-0.000109,0.030518,0.091553,0.030518
2.255176,0.044907,-0.689766,10.054891,0.002606,-0.023016,-0.006096,-0.091553,0.091553,0.030518
2.265243,0.043110,-0.681383,10.054292,0.000810,-0.014634,-0.006695,0.061035,0.091553,-0.030518
2.275311,0.046703,-0.674198,10.060878,0.004402,-0.007449,-0.000109,0.030518,0.091553,-0.030518
2.285377,0.046703,-0.670605,10.059082,0.004402,-0.003856,-0.001905,0.030518,0.091553,-0.030518
2.295449,0.045505,-0.683179,10.062076,0.003205,-0.016430,0.001089,0.122070,0.091553,0.000000
2.305516,0.047302,-0.676593,10.057885,0.005001,-0.009844,-0.003102,0.183105,0.091553,0.030518
2.315582,0.043709,-0.679587,10.065668,0.001409,-0.012837,0.004682,0.244141,0.061035,0.030518
2.325649,0.049098,-0.678389,10.066866,0.006797,-0.011640,0.005879,0.274658,0.061035,0.000000
2.335716,0.053289,-0.675396,10.070458,0.010989,-0.008646,0.009472,0.274658,0.030518,0.000000
2.345783,0.056283,-0.681383,10.063273,0.013982,-0.014634,0.002286,0.335693,0.000000,0.000000
2.355859,0.055684,-0.678988,10.057286,0.013384,-0.012239,-0.003701,0.396729,0.000000,0.000000
2.365926,0.052092,-0.680784,10.063872,0.009791,-0.014035,0.002885,0.427246,0.030518,0.030518
2.375991,0.049697,-0.677192,10.061477,0.007396,-0.010442,0.000490,0.457764,0.000000,0.030518
2.386057,0.039518,-0.675994,10.061477,-0.002783,-0.009245,0.000490,0.518799,0.030518,0.122070
2.396123,0.033530,-0.678389,10.055490,-0.008770,-0.011640,-0.005497,0.488281,0.000000,0.122070
2.406188,0.040117,-0.681383,10.050699,-0.002184,-0.014634,-0.010287,0.549316,-0.030518,0.122070
2.416255,0.042512,-0.674198,10.054292,0.000211,-0.007449,-0.006695,0.610352,-0.030518,0.152588
2.426324,0.043110,-0.672402,10.055490,0.000810,-0.005652,-0.005497,0.610352,-0.030518,0.152588
2.436389,0.035925,-0.668210,10.056687,-0.006375,-0.001461,-0.004300,0.549316,-0.030518,0.122070
2.446464,0.035925,-0.670007,10.057286,-0.006375,-0.003257,-0.003701,0.518799,0.030518,0.122070
2.456530,0.035327,-0.677791,10.058483,-0.006974,-0.011041,-0.002504,0.854492,0.061035,0.091553
2.466597,0.038320,-0.671204,10.066267,-0.003980,-0.004455,0.005280,0.885010,0.091553,0.091553
2.476662,0.041314,-0.677192,10.063273,-0.000986,-0.010442,0.002286,1.068115,0.091553,0.122070
2.486728,0.043110,-0.671204,10.054292,0.000810,-0.004455,-0.006695,1.129150,0.091553,0.091553
2.496807,0.038320,-0.666414,10.048903,-0.003980,0.000335,-0.012084,1.190186,0.091553,0.091553
2.506879,0.046104,-0.647853,10.044113,0.003804,0.018897,-0.016874,1.220703,0.152588,0.061035
2.516946,0.049697,-0.644260,10.050699,0.007396,0.022489,-0.010287,0.976562,0.152588,0.061035
2.527012,0.047900,-0.662223,10.051897,0.005600,0.004527,-0.009090,0.671387,0.122070,0.091553
2.537077,0.042512,-0.673000,10.051897,0.000211,-0.006251,-0.009090,0.732422,0.091553,0.061035
2.547148,0.044308,-0.675396,10.053693,0.002007,-0.008646,-0.007294,1.129150,0.091553,0.061035
2.557215,0.074246,-0.813109,10.047107,0.031945,-0.146360,-0.013880,1.281738,0.122070,0.000000
2.567281,0.210163,-1.407074,10.014175,0.167862,-0.740324,-0.046811,-0.457764,0.030518,-3.173828
2.577348,-0.136516,-1.433419,10.026749,-0.178817,-0.766670,-0.034238,-2.044678,0.366211,-11.993408
2.587415,-0.141905,-0.983156,10.045311,-0.184205,-0.316406,-0.015676,-1.678467,0.366211,-11.840820
2.597480,-0.018561,-0.604742,10.057885,-0.060862,0.062007,-0.003102,-1.068115,0.244141,-7.232666
2.607548,0.011376,-0.649649,10.056088,-0.030924,0.017100,-0.004899,-0.518799,0.122070,-5.371094
2.617615,0.034728,-0.895737,10.047706,-0.007573,-0.228988,-0.013281,-0.488281,0.152588,-3.753662
2.627682,0.093406,-1.141826,10.033336,0.051105,-0.475076,-0.027651,-0.305176,0.244141,-3.631592
2.637749,0.128732,-1.110690,10.033934,0.086432,-0.443941,-0.027052,-0.396729,0.213623,-3.448486
2.647815,0.163460,-0.861010,10.045311,0.121160,-0.194260,-0.015676,-0.457764,0.274658,-3.387451
2.657881,0.108375,-0.695154,10.051897,0.066074,-0.028405,-0.009090,-0.305176,0.244141,-3.997803
2.667948,0.022753,-0.517324,10.075248,-0.019548,0.149425,0.014262,-0.122070,0.366211,-6.439209
2.678014,0.004790,-0.601150,10.067465,-0.037510,0.065600,0.006478,0.183105,0.427246,-7.873535
2.688084,-0.035925,-0.789159,10.051897,-0.078226,-0.122409,-0.009090,-0.213623,0.457764,-8.575439
2.698151,-0.038919,-0.886157,10.039922,-0.081220,-0.219408,-0.021065,0.366211,0.457764,-8.087158
2.708217,-0.026345,-0.916095,10.045909,-0.068646,-0.249345,-0.015077,0.061035,0.366211,-6.835938
2.718290,-0.012574,-0.982557,10.056088,-0.054874,-0.315807,-0.004899,2.227783,0.579834,-4.028320
2.728357,-0.014969,-0.955014,10.056687,-0.057269,-0.288265,-0.004300,4.150391,0.823975,-3.143311
2.738425,0.015568,-0.946033,10.029144,-0.026733,-0.279283,-0.031843,2.075195,0.396729,-0.885010
2.748492,0.114362,-1.075364,10.027947,0.072062,-0.408614,-0.033040,0.122070,0.030518,-0.427246
2.758558,0.191003,-1.105302,10.031539,0.148702,-0.438552,-0.029448,-0.061035,0.274658,-3.967285
2.768624,0.178429,-1.022673,10.029144,0.136128,-0.355924,-0.031843,0.579834,0.457764,-6.011963
2.778690,0.134720,-0.977767,10.053094,0.092419,-0.311017,-0.007892,0.946045,0.640869,-7.690430
2.788755,0.077239,-0.965792,10.024953,0.034939,-0.299042,-0.036034,1.525879,0.762939,-7.843018
2.798902,0.094603,-0.968785,10.033336,0.052303,-0.302036,-0.027651,1.586914,0.732422,-6.805420
2.808969,0.156874,-0.898132,10.027947,0.114573,-0.231383,-0.033040,1.983643,0.762939,-4.760742
2.819035,0.156275,-0.871787,10.030941,0.113974,-0.205038,-0.030046,2.044678,0.701904,-3.753662
2.829101,0.128732,-0.869991,10.056687,0.086432,-0.203241,-0.004300,1.922607,0.640869,-3.326416
2.839168,0.073647,-0.815504,10.048304,0.031346,-0.148755,-0.012682,2.075195,0.823975,-4.852295
2.849234,0.022753,-0.937650,10.044113,-0.019548,-0.270901,-0.016874,1.281738,0.701904,-5.859375
2.859301,-0.049697,-0.753832,10.041119,-0.091997,-0.087083,-0.019867,2.105713,0.762939,-5.035400
2.869367,-0.168849,-0.605940,10.108180,-0.211149,0.060810,0.047193,1.403809,0.488281,-5.249023
2.879434,-0.278421,-0.478405,10.105186,-0.320722,0.188344,0.044199,1.434326,0.457764,-5.767822
2.889500,-0.273032,-0.591570,10.072255,-0.315333,0.075180,0.011268,1.190186,0.335693,-5.584717
2.899567,-0.257465,-0.897534,10.039922,-0.299765,-0.230784,-0.021065,0.305176,-0.183105,-2.685547
2.909634,0.037123,-1.088536,10.036928,-0.005178,-0.421787,-0.024059,-0.305176,-0.274658,-2.166748
2.919700,0.140109,-0.974773,9.987231,0.097808,-0.308023,-0.073755,-0.427246,-0.061035,-2.838135
2.929766,0.127535,-0.851429,10.078841,0.085234,-0.184680,0.017854,-0.122070,0.335693,-4.058838
2.939848,-0.004191,-0.640668,10.079440,-0.046492,0.026082,0.018453,0.579834,0.732422,-5.554199
2.949916,0.036524,-0.911904,10.037527,-0.005776,-0.245154,-0.023460,-1.373291,-0.030518,-4.760742
2.959982,0.119152,-1.010698,9.999805,0.076852,-0.343949,-0.061182,-1.220703,0.152588,-3.723145
2.970062,0.138312,-0.892744,10.047107,0.096012,-0.225994,-0.013880,-3.234863,-0.366211,-2.563477
2.980130,0.274828,-0.984353,9.941726,0.232528,-0.317604,-0.119261,-0.122070,0.549316,-2.685547
2.990201,0.133522,-0.534089,10.077643,0.091222,0.132660,0.016657,1.190186,0.946045,-2.960205
3.000268,0.044308,-0.719105,10.061477,0.002007,-0.052355,0.000490,-0.793457,0.274658,-3.234863
3.010336,0.063468,-0.943638,10.051298,0.021167,-0.276888,-0.009689,-0.976562,0.091553,-2.838135
3.020403,-0.010179,-0.948428,10.030941,-0.052479,-0.281678,-0.030046,-1.464844,0.091553,-1.708984
3.030469,0.028141,-0.972977,10.001602,-0.014159,-0.306227,-0.059385,-1.495361,-0.061035,-0.427246
3.040540,0.035327,-0.890947,10.031539,-0.006974,-0.224198,-0.029448,-2.349854,-0.122070,-0.610352
3.050607,-0.071851,-0.938848,9.963880,-0.114151,-0.272098,-0.097107,-1.770020,0.305176,-0.183105
3.060675,0.009580,-0.902922,9.983040,-0.032720,-0.236173,-0.077947,-0.274658,0.610352,0.213623
3.070742,0.123344,-0.823288,10.017768,0.081043,-0.156538,-0.043219,1.373291,1.129150,-1.251221
3.080809,0.019759,-0.908311,10.029743,-0.022542,-0.241562,-0.031244,1.251221,0.946045,-1.708984
3.090875,0.030536,-1.006507,10.070458,-0.011764,-0.339757,0.009472,0.854492,1.129150,-3.601074
3.100942,-0.074844,-1.016686,10.032737,-0.117145,-0.349936,-0.028250,1.037598,0.885010,-3.662109
3.111008,-0.021555,-1.096320,10.054891,-0.063856,-0.429571,-0.006096,1.617432,1.068115,-3.570557
3.121075,0.070054,-1.187930,10.030342,0.027754,-0.521180,-0.030645,1.525879,0.823975,-3.387451
3.131141,0.138911,-1.208886,10.100396,0.096611,-0.542137,0.039409,1.373291,0.305176,-2.746582
3.141206,0.145497,-1.092129,9.959090,0.103197,-0.425379,-0.101897,0.061035,-0.946045,-0.823975
3.151274,0.149090,-1.027463,9.990824,0.106789,-0.360714,-0.070163,0.396729,-1.129150,0.793457
3.161340,0.101190,-1.004711,9.941127,0.058889,-0.337961,-0.119860,-0.701904,-1.129150,2.471924
3.171406,0.173040,-0.783171,9.914782,0.130740,-0.116422,-0.146205,-4.180908,-1.556396,3.204346
3.181474,0.247885,-0.906515,10.030941,0.205584,-0.239765,-0.030046,-3.662109,-0.823975,4.180908
3.191540,-0.096400,-0.641266,10.054891,-0.138700,0.025483,-0.006096,-3.051758,-0.549316,5.676270
3.201607,-0.098795,-0.844244,9.905801,-0.141095,-0.177495,-0.155186,1.190186,0.427246,4.150391
3.211673,0.033530,-1.295706,9.974059,-0.008770,-0.628956,-0.086928,2.593994,0.671387,2.441406
3.221739,0.012574,-1.099913,9.992620,-0.029727,-0.433163,-0.068367,2.685547,0.762939,0.793457
3.231805,-0.151485,-1.002914,10.014774,-0.193786,-0.336165,-0.046213,1.953125,0.946045,-0.640869
3.241872,-0.303569,-1.008303,9.987231,-0.345869,-0.341554,-0.073755,1.403809,0.427246,-0.152588
3.251939,-0.334704,-0.858615,10.163864,-0.377005,-0.191865,0.102877,0.183105,0.640869,0.030518
3.262004,-0.294587,-1.159189,10.041718,-0.336888,-0.492440,-0.019269,-0.396729,0.701904,-0.640869
3.272070,-0.356858,-1.204695,10.081835,-0.399158,-0.537945,0.020848,-1.586914,0.396729,-6.500244
3.282136,-0.234712,-1.174158,9.850715,-0.277012,-0.507409,-0.210271,-4.272461,-0.427246,-9.948730
3.292207,-0.028141,-1.072370,10.001602,-0.070442,-0.405621,-0.059385,-6.744385,-1.342773,-13.214111
3.302276,-0.069456,-0.963397,9.955497,-0.111756,-0.296647,-0.105489,-2.899170,0.152588,-21.850586
3.312343,-0.119751,-0.635279,9.995614,-0.162052,0.031471,-0.065373,0.457764,1.495361,-24.078369
3.322412,-0.061672,-0.607736,10.070458,-0.103972,0.059013,0.009472,2.807617,2.288818,-23.864746
3.332479,0.255668,-0.786165,10.080637,0.213368,-0.119416,0.019650,1.983643,2.166748,-23.345947
3.342549,0.255070,-0.405357,10.060878,0.212769,0.261392,-0.000109,5.584717,2.258301,-19.256592
3.352622,0.488584,-0.869991,10.035132,0.446283,-0.203241,-0.025855,3.692627,1.770020,-18.432617
3.362687,0.692759,-0.875380,10.026151,0.650459,-0.208630,-0.034836,0.396729,1.007080,-18.463135
3.372751,0.598755,-0.991538,9.999805,0.556454,-0.324789,-0.061182,-1.464844,0.244141,-16.693115
3.382816,0.805924,-1.362766,9.945319,0.763624,-0.696017,-0.115668,-3.387451,-0.183105,-15.319824
3.392882,0.484991,-0.943039,10.009984,0.442691,-0.276289,-0.051003,1.129150,0.122070,-13.366699
3.402946,0.299976,-1.144221,10.034533,0.257676,-0.477471,-0.026454,4.241943,0.305176,-10.528564
3.413010,-0.033530,-0.767005,10.098001,-0.075831,-0.100256,0.037014,4.241943,0.122070,-6.378174
3.423076,0.162263,-0.848436,9.980046,0.119962,-0.181686,-0.080940,4.547119,0.152588,-5.554199
3.433143,0.325124,-1.015488,10.040521,0.282823,-0.348739,-0.020466,4.119873,0.244141,-5.065918
3.443207,0.416135,-0.917891,10.202184,0.373834,-0.251142,0.141198,2.014160,0.457764,-4.302979
3.453273,0.465831,-0.793350,10.053094,0.423531,-0.126601,-0.007892,1.708984,0.549316,-3.234863
3.463338,0.428110,-1.215472,10.051298,0.385809,-0.548723,-0.009689,-1.220703,0.152588,1.586914
3.473404,0.620310,-1.117277,10.139914,0.578010,-0.450527,0.078927,-1.739502,-0.122070,2.960205
3.483470,0.739462,-1.062790,10.006990,0.697162,-0.396040,-0.053996,-1.617432,-0.457764,4.028320
3.493537,0.350272,-0.862207,10.138716,0.307971,-0.195458,0.077730,-1.617432,-0.793457,4.852295
3.503601,-0.149090,-0.444276,10.589579,-0.191391,0.222473,0.528592,-1.220703,-1.098633,6.927490
3.513667,0.340093,-1.064586,10.111174,0.297792,-0.397837,0.050187,-3.326416,0.000000,11.535645
3.523732,0.470023,-1.203497,10.026749,0.427722,-0.536748,-0.034238,-5.401611,-0.518799,14.526367
3.533797,0.009580,-0.733475,10.173444,-0.032720,-0.066725,0.112457,-3.936768,-1.068115,19.287109
3.543868,-0.238903,-0.608934,10.070458,-0.281204,0.057816,0.009472,-3.417969,-0.701904,19.470215
3.553933,-0.128134,-0.807122,10.019564,-0.170434,-0.140372,-0.041423,-2.288818,-0.213623,16.815186
3.563998,0.102986,-1.298699,9.872271,0.060685,-0.631950,-0.188716,-2.441406,-0.091553,14.648438
3.574064,0.061672,-1.276545,9.955497,0.019371,-0.609796,-0.105489,-1.403809,0.183105,12.084961
3.584128,0.055085,-0.914897,10.121353,0.012785,-0.248148,0.060366,-1.220703,0.396729,6.896973
3.594193,-0.165256,-0.948428,9.944720,-0.207557,-0.281678,-0.116267,-0.823975,0.427246,6.256104
3.604258,-0.159269,-0.946631,10.082433,-0.201569,-0.279882,0.021447,-7.812500,-0.640869,7.537842
3.614325,-0.139510,-1.250200,10.177037,-0.181810,-0.583451,0.116050,-11.474609,-1.556396,7.812500
3.624389,-0.076641,-1.299298,10.207573,-0.118941,-0.632549,0.146586,-2.655029,-0.854492,8.941650
3.634465,-0.162861,-0.876577,10.071057,-0.205162,-0.209828,0.010070,-2.441406,-0.640869,7.812500
3.644530,-0.252076,-0.822689,9.948312,-0.294376,-0.155940,-0.112674,-2.197266,-0.885010,7.476807
3.654596,-0.182620,-0.856219,10.063273,-0.224921,-0.189470,0.002286,2.532959,-1.495361,6.500244
3.664661,-0.076042,-1.311273,9.956695,-0.118342,-0.644524,-0.104292,3.479004,-1.220703,6.072998
3.674726,0.250280,-1.268163,9.814191,0.207979,-0.601413,-0.246796,5.432129,-0.335693,3.326416
3.684791,0.069456,-0.843646,10.027947,0.027155,-0.176896,-0.033040,8.239746,-0.335693,2.502441
3.694859,0.011376,-0.722098,10.120754,-0.030924,-0.055349,0.059767,7.293701,0.091553,2.441406
3.704924,-0.177830,-0.963995,9.977651,-0.220131,-0.297246,-0.083335,4.455566,0.488281,0.335693
3.714991,-0.016765,-0.999921,9.981843,-0.059066,-0.333171,-0.079144,2.227783,0.640869,-1.678467
3.725058,-0.002395,-0.835862,9.916578,-0.044696,-0.169112,-0.144408,-0.183105,1.037598,-2.593994
3.735128,0.264650,-0.869392,9.938134,0.222349,-0.202643,-0.122853,0.671387,1.678467,-1.190186
3.745196,-0.129331,-0.434097,10.084230,-0.171632,0.232652,0.023243,-0.946045,1.007080,2.075195
3.755261,0.001796,-0.561632,10.159074,-0.040504,0.105117,0.098087,-3.997803,-0.427246,4.577637
3.765326,-0.113165,-1.040636,10.024354,-0.155465,-0.373886,-0.036633,-2.593994,-1.190186,4.882812
3.775392,-0.182620,-0.647853,9.992620,-0.224921,0.018897,-0.068367,-0.305176,-1.220703,3.997803
3.785458,-0.301174,-0.838856,10.148895,-0.343474,-0.172106,0.087908,1.495361,-1.159668,2.807617
3.795528,-0.192200,-0.628693,10.025552,-0.234501,0.038057,-0.035435,5.767822,-0.488281,1.220703
3.805608,-0.187410,-0.861608,9.987231,-0.229711,-0.194859,-0.073755,4.577637,0.122070,0.274658
3.815679,-0.295186,-1.071172,10.043514,-0.337487,-0.404423,-0.017472,3.051758,0.213623,0.152588
3.825747,-0.246687,-0.987946,10.053094,-0.288988,-0.321196,-0.007892,3.662109,0.549316,2.380371
3.835817,-0.230521,-0.671803,9.947714,-0.272821,-0.005053,-0.113273,0.061035,0.335693,3.509521
3.845883,-0.275427,-0.919687,10.004595,-0.317728,-0.252938,-0.056391,0.549316,0.823975,1.983643
3.855949,-0.177830,-1.359772,9.968670,-0.220131,-0.693023,-0.092317,-1.312256,0.671387,-1.068115
3.866361,-0.384401,-1.038241,9.967473,-0.426701,-0.371491,-0.093514,0.640869,0.213623,-1.403809
3.876466,-0.377216,-0.849034,10.193802,-0.419516,-0.182285,0.132815,0.610352,-0.213623,2.532959
3.886532,-0.298180,-0.858016,10.088421,-0.340480,-0.191266,0.027434,-3.387451,-0.823975,-0.854492
3.896600,-0.299377,-0.586780,9.998608,-0.341678,0.079970,-0.062379,-1.800537,-0.030518,-2.868652
3.906665,-0.336500,-0.479603,10.090217,-0.378801,0.187147,0.029230,-0.122070,1.068115,-3.448486
3.916730,-0.162263,-0.825084,9.936936,-0.204563,-0.158335,-0.124051,0.549316,1.312256,-4.760742
3.926794,-0.053888,-1.028661,9.914183,-0.096188,-0.361911,-0.146803,-0.335693,1.068115,-4.211426
3.936868,0.033530,-0.346679,10.062675,-0.008770,0.320070,0.001688,-5.004883,-1.373291,1.831055
3.946935,0.270637,-1.052012,9.966275,0.228337,-0.385263,-0.094712,-7.995605,-2.868652,7.476807
3.957001,0.764610,-1.271157,9.980046,0.722309,-0.604407,-0.080940,-1.312256,-2.258301,6.500244
3.967064,0.582589,-1.193917,10.148297,0.540288,-0.527168,0.087310,1.312256,-1.220703,4.333496
3.977126,0.391586,-1.337618,9.978250,0.349285,-0.670869,-0.082737,7.385254,-0.274658,6.530762
3.987187,0.304167,-1.325643,9.932745,0.261867,-0.658894,-0.128242,4.608154,-1.068115,11.108398
3.997249,0.488584,-1.149609,10.056687,0.446283,-0.482860,-0.004300,-0.610352,-0.457764,14.221191
4.007310,0.319136,-0.990939,9.967473,0.276836,-0.324190,-0.093514,-3.845215,-1.007080,13.000488
4.017371,0.150886,-1.148412,9.979448,0.108586,-0.481662,-0.081539,0.671387,0.183105,13.488770
4.027431,0.062271,-1.108894,10.103390,0.019970,-0.442145,0.042403,2.960205,-0.122070,18.005371
4.037493,0.262853,-1.127455,9.986633,0.220553,-0.460706,-0.074354,1.953125,-1.068115,20.172119
4.047554,0.441282,-0.753832,9.978250,0.398982,-0.087083,-0.082737,-4.333496,-2.471924,19.165039
4.057616,0.476010,-0.820294,9.954300,0.433710,-0.153545,-0.106687,-0.213623,-2.380371,19.165039
4.067676,0.298779,-0.926873,9.986034,0.256478,-0.260123,-0.074953,1.556396,-1.068115,21.057129
4.077738,0.338895,-0.913101,10.203382,0.296595,-0.246352,0.142395,3.601074,-1.129150,20.935059
4.087800,0.211959,-0.289199,10.378218,0.169659,0.377551,0.317232,3.387451,-1.495361,19.104004
4.097861,0.587379,-1.125060,9.823771,0.545078,-0.458311,-0.237215,-4.608154,-1.953125,17.913818
4.107921,0.534089,-0.780178,10.206974,0.491789,-0.113428,0.145988,-2.319336,-0.946045,16.845703
4.117983,0.487985,-0.921484,10.136321,0.445685,-0.254734,0.075335,6.927490,0.396729,12.695312
4.128044,0.131127,-0.692759,10.036928,0.088827,-0.026010,-0.024059,3.509521,-0.946045,10.345459
4.138105,0.201780,-0.358055,10.172845,0.159480,0.308694,0.111859,-2.349854,-1.373291,6.317139
4.148166,0.138312,-0.474813,10.044712,0.096012,0.191937,-0.016275,-2.471924,-0.488281,2.685547
4.158227,-0.058678,-0.547262,10.063872,-0.100979,0.119488,0.002885,-0.915527,-0.366211,-0.396729
4.168288,-0.094005,-0.626896,10.019564,-0.136305,0.039853,-0.041423,1.708984,-0.518799,0.579834
4.178350,-0.082628,-0.853824,9.919572,-0.124929,-0.187075,-0.141415,-0.518799,-1.190186,2.136230
4.188446,0.079036,-0.411943,9.980645,0.036735,0.254806,-0.080342,4.028320,-0.518799,7.019043
4.198509,0.016166,-0.056882,10.089020,-0.026134,0.609868,0.028033,6.072998,-0.091553,5.279541
4.208571,-0.178429,-0.226928,10.080637,-0.220729,0.439821,0.019650,5.462646,-0.091553,0.213623
4.218634,-0.425715,-0.307760,10.076446,-0.468015,0.358989,0.015459,2.410889,-0.549316,-2.105713
4.228696,-0.461640,-0.594564,9.993219,-0.503941,0.072186,-0.067768,1.800537,-0.579834,-3.204346
4.238758,-0.381407,-1.201701,10.009385,-0.423707,-0.534952,-0.051601,-0.701904,-0.671387,2.532959
4.248819,-0.231718,-0.966390,9.966874,-0.274019,-0.299641,-0.094113,1.129150,-0.793457,4.791260
4.258881,-0.121547,-0.490979,9.937535,-0.163848,0.175770,-0.123452,0.396729,-1.281738,8.148193
4.268943,-0.368234,-0.130529,10.208172,-0.410535,0.536221,0.147185,0.030518,-1.068115,10.345459
4.279005,-0.386197,-0.543669,9.835746,-0.428497,0.123080,-0.225240,-0.213623,-1.190186,14.770508
4.289067,-0.119751,-0.487386,10.208172,-0.162052,0.179363,0.147185,-2.624512,-1.373291,13.214111
4.299142,0.196990,-0.311951,10.239307,0.154690,0.354798,0.178320,-0.396729,-1.495361,10.620117
4.309205,0.202379,-0.507145,10.034533,0.160079,0.159604,-0.026454,-1.800537,-0.946045,8.728027
4.319267,0.252076,-0.737067,9.983040,0.209775,-0.070318,-0.077947,-1.037598,-1.220703,10.772705
4.329329,0.306563,-0.506547,9.964479,0.264262,0.160203,-0.096508,-1.098633,-1.342773,13.732910
4.339392,0.206570,-0.427511,10.157877,0.164270,0.239239,0.096890,-1.007080,-1.800537,15.197754
4.349455,0.211360,-0.667013,9.818383,0.169060,-0.000263,-0.242604,-0.427246,-0.762939,14.434814
4.359534,0.007185,-0.412542,10.044712,-0.035115,0.254207,-0.016275,-2.532959,-1.403809,13.214111
4.369595,0.116757,-0.302970,10.040521,0.074457,0.363780,-0.020466,0.549316,-0.915527,10.528564
4.379657,-0.283211,0.098795,9.946516,-0.325512,0.765544,-0.114471,2.868652,0.488281,0.274658
4.389719,-0.371228,-0.295186,10.259066,-0.413529,0.371563,0.198079,1.770020,0.518799,-1.953125
4.399779,-0.250878,-0.127535,10.088421,-0.293179,0.539215,0.027434,5.950928,-0.061035,-2.258301
4.409841,-0.032932,-0.387394,9.906400,-0.075232,0.279355,-0.154587,3.051758,-0.457764,-2.777100
4.419902,0.122745,-0.664618,9.982441,0.080444,0.002132,-0.078545,2.685547,-0.396729,-7.110596
4.429964,0.135917,-0.339494,10.036928,0.093617,0.327255,-0.024059,0.793457,-0.183105,-9.094238
4.440026,0.135917,-0.523911,10.015373,0.093617,0.142839,-0.045614,-0.488281,0.213623,-10.375977
4.450087,0.380808,-0.562830,9.950109,0.338508,0.103920,-0.110878,-5.340576,0.244141,-15.716553
4.460147,0.306563,-0.584385,10.058483,0.264262,0.082365,-0.002504,-3.173828,1.068115,-17.700195
4.470210,-0.156874,-0.317340,10.171648,-0.199174,0.349409,0.110661,5.401611,2.593994,-18.249512
4.480273,-0.186213,-0.650847,10.053693,-0.228513,0.015903,-0.007294,0.762939,1.098633,-16.754150
4.490335,-0.087418,-0.776585,10.024354,-0.129719,-0.109836,-0.036633,-5.523682,0.915527,-13.671875
4.500397,-0.014969,-1.357377,10.083032,-0.057269,-0.690628,0.022045,-5.615234,0.640869,-11.322021
4.510459,-0.052092,-1.073568,10.018965,-0.094392,-0.406818,-0.042021,2.929688,1.831055,-11.138916
4.520521,-0.273631,-0.552052,9.999805,-0.315932,0.114697,-0.061182,8.056641,2.227783,-16.601562
4.530584,-0.593965,-0.774190,9.623787,-0.636265,-0.107441,-0.437200,5.157471,1.525879,-21.789551
4.540645,-0.423918,-1.164578,10.110575,-0.466219,-0.497829,0.049588,-1.831055,-0.244141,-18.066406
4.550708,-0.198188,-1.093326,10.044113,-0.240488,-0.426577,-0.016874,-2.075195,-0.396729,-15.716553
4.560769,0.112566,-0.787363,10.204579,0.070265,-0.120613,0.143593,-5.676270,1.983643,-15.838623
4.570830,-0.368833,-1.074166,9.972861,-0.411134,-0.407417,-0.088125,-5.920410,3.021240,-14.251709
4.580892,-0.493973,-0.395178,10.117760,-0.536273,0.271571,0.056773,-3.265381,3.387451,-10.894775
4.590955,-0.455652,-1.086141,9.997410,-0.497953,-0.419392,-0.063577,-7.446289,1.464844,-7.385254
4.601016,-0.237706,-0.733475,10.211765,-0.280006,-0.066725,0.150778,-1.586914,2.227783,-8.331299
4.611078,-0.052092,-0.824485,10.026749,-0.094392,-0.157736,-0.034238,-0.183105,1.495361,-10.314941
4.621140,-0.113165,-0.210762,10.080637,-0.155465,0.455988,0.019650,1.281738,2.441406,-12.847900
4.631201,-0.270637,-0.485590,10.047706,-0.312938,0.181159,-0.013281,-5.462646,0.274658,-10.620117
4.641263,-0.247286,-1.040636,9.875264,-0.289586,-0.373886,-0.185723,-0.061035,0.701904,-11.962891
4.651325,-0.102986,-0.285007,10.179432,-0.145286,0.381742,0.118445,0.427246,0.732422,-10.681152
4.661387,0.202978,-1.149609,10.087224,0.160677,-0.482860,0.026237,-3.784180,-1.678467,-4.852295
4.671449,0.123344,-0.786165,9.911788,0.081043,-0.119416,-0.149198,2.227783,-1.281738,-4.882812
4.681510,0.238304,-0.862207,9.811796,0.196004,-0.195458,-0.249191,3.387451,-0.457764,-0.457764
4.691571,0.347877,-0.787363,9.835746,0.305576,-0.120613,-0.225240,2.044678,-1.281738,2.990723
4.701632,0.191003,-1.228046,10.112371,0.148702,-0.561297,0.051384,2.899170,-1.953125,7.232666
4.711694,0.153880,-1.115480,9.941726,0.111579,-0.448731,-0.119261,-0.732422,-2.227783,7.537842
4.721756,-0.096400,-0.912502,10.195598,-0.138700,-0.245753,0.134611,0.549316,-1.861572,6.103516
4.731818,0.105381,-1.241219,9.960886,0.063080,-0.574469,-0.100101,-0.091553,-2.227783,11.993408
4.741879,0.136516,-1.228645,9.887239,0.094216,-0.561896,-0.173747,2.777100,-1.129150,12.390137
4.751941,0.275427,-0.635279,10.189611,0.233127,0.031471,0.128624,6.683350,-0.671387,11.077881
4.762002,0.295186,-0.559237,10.048903,0.252886,0.107512,-0.012084,5.493164,-1.190186,10.467529
4.772063,0.370031,-0.801733,10.200388,0.327730,-0.134983,0.139401,1.068115,-0.671387,4.638672
4.782124,0.489781,-0.347877,10.129136,0.447481,0.318873,0.068150,1.708984,-0.305176,1.434326
4.792184,0.479004,-1.040037,9.998009,0.436703,-0.373288,-0.062978,2.014160,0.213623,-1.251221
4.802245,0.245490,-1.582509,9.837543,0.203189,-0.915760,-0.223444,-0.610352,0.122070,1.129150
4.812305,0.481399,-0.692759,10.027947,0.439098,-0.026010,-0.033040,0.366211,-1.251221,3.753662
4.822366,0.498763,-0.325723,10.302775,0.456462,0.341027,0.241788,-3.265381,-0.549316,0.549316
4.832427,0.434696,-0.838856,10.022558,0.392396,-0.172106,-0.038429,-7.659912,-0.549316,-0.579834
4.842488,0.413740,-0.543669,10.026749,0.371439,0.123080,-0.034238,-3.875732,0.274658,-2.899170
4.852548,0.692759,-0.735870,9.987231,0.650459,-0.069120,-0.073755,0.976562,0.579834,-3.356934
4.862608,0.310754,-0.077838,10.171049,0.268453,0.588911,0.110062,5.859375,1.922607,-2.960205
4.872668,0.377814,-0.707130,9.978250,0.335514,-0.040380,-0.082737,3.173828,1.068115,-5.523682
4.882729,0.140109,-0.816103,10.165062,0.097808,-0.149353,0.104075,5.859375,0.701904,-8.209229
4.892789,0.228724,0.341290,10.015373,0.186424,1.008040,-0.045614,4.791260,-0.213623,-8.239746
4.902849,0.233514,-0.364043,10.151290,0.191214,0.302707,0.090303,2.410889,-0.305176,-11.230469
4.912910,0.436492,-1.008303,10.114766,0.394192,-0.341554,0.053779,8.575439,1.190186,-14.892578
4.922971,0.062271,-0.642464,10.129735,0.019970,0.024285,0.068748,1.647949,0.518799,-12.725830
4.933040,-0.020956,-0.856818,9.965676,-0.063257,-0.190069,-0.095311,-1.312256,-0.427246,-12.084961
4.943106,0.236508,-0.724493,9.662108,0.194208,-0.057744,-0.398879,-5.767822,-0.427246,-15.686035
4.953170,0.123942,-1.179547,10.095007,0.081642,-0.512798,0.034021,-4.364014,0.915527,-19.439697
4.963230,0.079036,-1.260978,9.942924,0.036735,-0.594228,-0.118063,-0.030518,2.044678,-14.587402
4.973292,0.413740,-1.590892,10.000404,0.371439,-0.924142,-0.060583,-1.922607,1.525879,-13.580322
4.983352,0.422122,-1.525029,9.942924,0.379822,-0.858279,-0.118063,2.441406,1.098633,-13.793945
4.993414,0.293989,-1.134042,9.970466,0.251688,-0.467292,-0.090521,1.525879,0.823975,-13.946533
5.003476,0.371228,-1.343606,9.987830,0.328927,-0.676856,-0.073157,-0.061035,0.213623,-15.045166
5.013536,0.525108,-1.369951,9.941726,0.482807,-0.703202,-0.119261,0.457764,0.213623,-16.632080
5.023597,0.470023,-1.156794,10.015373,0.427722,-0.490045,-0.045614,2.410889,0.732422,-14.709473
5.033658,0.325723,-1.073568,10.092612,0.283422,-0.406818,0.031625,0.274658,0.885010,-16.571045
5.043719,-0.000599,-1.295107,10.141111,-0.042899,-0.628357,0.080125,2.319336,-0.061035,-15.625000
5.053780,-0.311951,-1.295706,9.840536,-0.354252,-0.628956,-0.220450,0.122070,-1.007080,-8.575439
5.063841,-0.010179,-1.389111,10.129136,-0.052479,-0.722362,0.068150,1.770020,-0.518799,-6.011963
5.073905,0.011376,-1.063389,10.229128,-0.030924,-0.396639,0.168142,-0.183105,-1.586914,-0.854492
5.083965,-0.415536,-0.601749,10.255474,-0.457836,0.065001,0.194487,-9.124756,-1.922607,-1.617432
5.094025,-0.440085,-0.859213,9.923763,-0.482385,-0.192464,-0.137223,-6.896973,-1.098633,-4.852295
5.104085,-0.716710,-0.775388,9.812994,-0.759010,-0.108638,-0.247993,4.272461,0.732422,-7.049561
5.114146,-0.594564,-0.775986,9.993818,-0.636864,-0.109237,-0.067169,4.394531,1.190186,-8.087158
5.124207,-0.602946,-0.593965,9.976454,-0.645247,0.072785,-0.084533,1.800537,-0.823975,-7.934570
5.134268,-0.271236,-1.116678,9.839339,-0.313536,-0.449928,-0.221648,-0.579834,-0.183105,-9.918213
5.144329,-0.232916,-0.813708,10.320738,-0.275216,-0.146958,0.259751,-6.225586,-1.007080,-10.070801
5.154390,-0.169448,-0.563428,9.936337,-0.211748,0.103321,-0.124650,-3.204346,-1.098633,-6.103516
5.164452,-0.031734,-1.311273,10.140513,-0.074035,-0.644524,0.079526,-3.936768,-0.457764,-7.080078
5.174512,-0.337099,-0.878972,10.056088,-0.379400,-0.212223,-0.004899,3.448486,1.220703,-4.974365
5.184572,0.042512,-1.261577,9.662706,0.000211,-0.594827,-0.398281,-1.281738,0.396729,-0.701904
5.194638,0.273032,-1.247206,10.078841,0.230732,-0.580457,0.017854,-2.380371,0.488281,5.432129
5.204699,0.508343,-0.383203,9.989028,0.466042,0.283546,-0.071959,3.936768,0.885010,8.331299
5.214760,0.527503,-0.847238,9.866283,0.485203,-0.180489,-0.194704,-0.793457,-1.556396,12.939453
5.224821,0.595761,-0.461640,10.202184,0.553461,0.205109,0.141198,3.570557,-2.166748,10.437012
5.234882,0.750240,-0.537682,9.838141,0.707939,0.129068,-0.222845,5.737305,-1.953125,9.277344
5.244943,0.215552,-0.840652,10.157278,0.173251,-0.173902,0.096291,3.356934,0.091553,5.981445
5.255004,0.159269,-0.498763,10.226733,0.116968,0.167987,0.165747,-0.366211,-1.495361,9.063721
5.265065,0.347877,-1.325045,10.199789,0.305576,-0.658295,0.138803,-5.523682,-1.861572,11.077881
5.275125,0.675396,-1.328637,10.206376,0.633095,-0.661888,0.145389,-3.662109,-0.976562,7.965088
5.285186,0.072449,0.522114,10.235116,0.030149,1.188864,0.174129,7.659912,0.061035,10.070801
5.295248,0.102387,-0.547262,10.077045,0.060087,0.119488,0.016058,2.990723,1.098633,9.979248
5.305310,0.201780,-0.899330,10.034533,0.159480,-0.232580,-0.026454,-2.960205,0.061035,9.948730
5.315370,0.043709,-0.289199,10.136321,0.001409,0.377551,0.075335,1.129150,0.274658,9.704590
5.325432,0.128134,-0.465831,10.120155,0.085833,0.200918,0.059168,-7.171631,-1.617432,9.216309
5.335493,0.166454,-0.449066,10.194401,0.124153,0.217683,0.133414,-2.655029,-0.579834,5.889893
5.345554,-0.026944,-0.154479,10.008188,-0.069245,0.512271,-0.052799,0.976562,-0.213623,5.065918
5.355615,0.074246,-1.019081,9.677675,0.031945,-0.352331,-0.383312,4.760742,-1.098633,6.042480
5.365676,0.148491,-0.841251,9.947714,0.106191,-0.174501,-0.113273,4.089355,-1.281738,7.690430
5.375736,0.332309,-0.726888,10.070458,0.290008,-0.060139,0.009472,0.885010,-1.190186,8.605957
5.385797,-0.458646,-0.273631,9.903406,-0.500947,0.393119,-0.157581,-1.770020,-0.610352,11.749268
5.395858,-0.200583,-1.296304,9.663305,-0.242883,-0.629555,-0.397682,-4.974365,-0.457764,8.880615
5.405918,0.008383,-1.023272,9.995015,-0.033918,-0.356523,-0.065972,-11.291504,-0.854492,2.563477
5.415981,0.188009,0.155078,10.355466,0.145708,0.821827,0.294479,2.777100,0.061035,-0.610352
5.426042,0.081431,-0.763412,10.154883,0.039130,-0.096663,0.093896,3.448486,1.434326,-9.582520
5.436103,-0.426912,-0.880170,9.865684,-0.469213,-0.213420,-0.195303,-0.793457,0.579834,-10.192871
5.446164,-0.376617,-1.147813,10.080637,-0.418917,-0.481064,0.019650,-1.037598,0.701904,-7.629395
5.456225,0.140109,-0.959804,10.084828,0.097808,-0.293055,0.023842,-0.518799,-0.457764,-4.943848
5.466286,0.177231,-1.582509,9.852512,0.134931,-0.915760,-0.208475,-4.974365,-0.915527,-3.417969
5.476348,0.161664,-0.690364,9.826765,0.119363,-0.023615,-0.234222,3.967285,-1.220703,-0.885010
5.486409,0.252675,-0.556243,10.045311,0.210374,0.110506,-0.015676,6.622314,-1.159668,0.335693
5.496471,0.143102,-1.345402,9.750723,0.100802,-0.678653,-0.310264,8.666992,-0.152588,0.366211
5.506532,0.123344,-1.246608,9.647737,0.081043,-0.579858,-0.413249,5.584717,-0.610352,1.190186
5.516593,-0.064666,-1.141826,10.108779,-0.106966,-0.475076,0.047792,-0.335693,-0.366211,1.464844
5.526653,0.207768,-0.988544,10.048304,0.165467,-0.321795,-0.012682,0.000000,-0.091553,7.690430
5.536716,0.094603,-1.896257,9.714199,0.052303,-1.229507,-0.346788,-5.401611,-0.854492,9.216309
5.546799,0.303569,0.189805,10.325528,0.261268,0.856555,0.264541,0.122070,-1.464844,2.197266
5.556866,0.077239,-0.501757,9.776470,0.034939,0.164993,-0.284517,0.152588,0.061035,-3.662109
5.566928,-0.314346,-0.602347,9.971065,-0.356647,0.064402,-0.089922,0.244141,0.823975,-5.340576
5.576989,-0.308958,-0.490380,10.015972,-0.351258,0.176369,-0.045015,-6.469727,0.091553,-3.417969
5.587050,-0.211959,-0.665217,10.309362,-0.254260,0.001533,0.248375,-8.300781,-0.793457,-0.366211
5.597112,0.040117,-0.591570,9.653126,-0.002184,0.075180,-0.407861,-1.770020,-0.549316,2.563477
5.607173,-0.202978,-0.223336,10.417137,-0.245278,0.443414,0.356151,4.333496,0.885010,-0.152588
5.617235,-0.002395,-0.604144,9.905202,-0.044696,0.062606,-0.155785,3.143311,0.762939,3.387451
5.627296,0.424517,-0.746049,9.889036,0.382217,-0.079299,-0.171951,-3.723145,0.305176,3.662109
5.637358,0.328716,-0.267045,9.974059,0.286416,0.399705,-0.086928,4.669189,0.457764,-0.732422
5.647419,-0.209564,-0.290995,10.134525,-0.251865,0.375755,0.073538,2.166748,0.030518,-2.136230
5.657480,0.013771,-0.293390,9.919572,-0.028529,0.373360,-0.141415,-0.427246,0.183105,-1.800537
5.667541,0.216151,-0.346080,10.154284,0.173850,0.320669,0.093297,3.326416,0.061035,-2.777100
5.677602,0.057480,-0.140109,10.039323,0.015180,0.526641,-0.021664,1.800537,-0.274658,-5.004883
5.687664,-0.273032,-0.155078,10.227931,-0.315333,0.511672,0.166944,-1.037598,0.244141,-7.873535
5.697726,-0.052092,-0.323328,9.893826,-0.094392,0.343422,-0.167161,-0.152588,0.793457,-6.042480
5.707787,-0.198787,0.271236,10.228530,-0.241087,0.937985,0.167543,1.983643,-0.274658,-4.272461
5.717849,0.044308,-0.511935,10.109377,0.002007,0.154814,0.048391,3.082275,-0.671387,0.061035
5.727910,0.103585,-0.585582,10.124945,0.061284,0.081167,0.063958,0.396729,-0.640869,3.448486
5.737971,0.333506,0.270637,10.142908,0.291206,0.937387,0.081921,5.859375,0.274658,3.387451
5.748032,0.113165,0.359852,10.251881,0.070864,1.026601,0.190894,3.723145,-0.457764,0.793457
5.758092,0.274828,-0.562830,9.850715,0.232528,0.103920,-0.210271,-3.601074,-0.793457,-1.190186
5.768153,0.356858,-0.400567,10.390193,0.314557,0.266182,0.329207,-4.302979,-0.213623,-0.274658
5.778215,0.486788,-0.499960,9.968670,0.444487,0.166789,-0.092317,-2.532959,-0.396729,0.396729
5.788276,0.333506,0.385598,10.047107,0.291206,1.052348,-0.013880,-0.549316,-0.274658,-0.274658
5.798337,0.439486,0.170046,10.203981,0.397186,0.836796,0.142994,1.983643,0.183105,-2.349854
5.808398,0.222737,-0.136516,10.087822,0.180436,0.530233,0.026835,0.152588,0.671387,-4.241943
5.818459,0.350870,-0.305964,9.956695,0.308570,0.360786,-0.104292,-0.183105,0.885010,-3.326416
5.828521,0.250878,0.217947,9.971065,0.208578,0.884696,-0.089922,-0.091553,-0.213623,2.258301
5.838581,0.027543,-0.519719,9.778865,-0.014758,0.147030,-0.282122,-3.295898,-0.152588,1.525879
5.848642,-0.009580,-0.871188,9.935140,-0.051881,-0.204439,-0.125847,6.805420,-1.312256,6.591797
5.858704,0.078437,-0.210163,10.082433,0.036136,0.456587,0.021447,4.852295,-0.854492,10.375977
5.868763,-0.106578,-0.205972,9.990225,-0.148879,0.460778,-0.070762,4.119873,-0.335693,11.718750
5.878825,-0.062271,-0.407752,10.220147,-0.104571,0.258997,0.159160,1.678467,-1.220703,9.368896
5.888887,0.135917,-0.404160,9.944121,0.093617,0.262590,-0.116866,2.532959,-1.251221,7.415771
5.898948,-0.330513,-0.538879,10.202184,-0.372813,0.127870,0.141198,0.549316,-0.762939,4.943848
5.909009,-0.298779,-0.644260,10.091415,-0.341079,0.022489,0.030428,-0.305176,-1.281738,5.798340
5.919071,0.019160,-1.078358,10.096205,-0.023140,-0.411608,0.035218,0.152588,-1.190186,3.570557
5.929132,0.225731,-0.668210,10.071656,0.183430,-0.001461,0.010669,0.000000,-1.098633,1.892090
5.939338,0.163460,-0.479603,10.001602,0.121160,0.187147,-0.059385,-0.549316,-1.342773,0.213623
5.949401,0.119152,-0.111368,10.190209,0.076852,0.555381,0.129223,-2.899170,-0.915527,-3.051758
5.959464,0.144899,-0.759221,10.093810,0.102598,-0.092472,0.032823,-5.493164,-1.129150,-4.211426
5.969527,0.067061,-0.516725,9.951905,0.024760,0.150024,-0.109082,-0.183105,1.190186,-11.688232
5.979589,0.051493,-0.288600,9.890233,0.009192,0.378150,-0.170754,5.676270,2.319336,-11.474609
5.989652,-0.058678,0.028740,10.013577,-0.100979,0.695490,-0.047410,3.051758,2.288818,-10.009766
5.999713,-0.195793,0.177231,10.151290,-0.238093,0.843981,0.090303,-2.380371,1.647949,-8.605957
6.009775,0.155676,-0.881367,10.191407,0.113376,-0.214618,0.130420,-8.178711,0.213623,-4.028320
6.019837,0.084424,-0.895139,9.848919,0.042124,-0.228389,-0.212068,-3.204346,0.518799,-1.678467
6.029899,0.020358,-0.129331,10.075847,-0.021943,0.537418,0.014860,0.915527,0.640869,0.549316
6.039962,0.100591,-0.214354,9.988429,0.058290,0.452395,-0.072558,5.310059,0.671387,0.823975
6.050023,0.177830,-0.521516,10.022558,0.135530,0.145234,-0.038429,2.716064,0.671387,0.152588
6.060088,0.210762,-0.292192,10.125544,0.168461,0.374557,0.064557,1.281738,0.366211,3.753662
6.070150,0.351469,-0.389789,9.741143,0.309169,0.276960,-0.319844,-0.427246,0.732422,5.249023
6.080212,0.144300,-0.694556,10.087822,0.101999,-0.027806,0.026835,-5.523682,0.335693,9.735107
6.090281,0.445474,-0.826282,10.110575,0.403173,-0.159532,0.049588,-3.875732,-0.061035,17.517090
6.100345,0.710722,-0.116158,10.165660,0.668422,0.550591,0.104674,-4.272461,0.122070,18.005371
6.110411,0.369432,-0.402363,10.082433,0.327131,0.264386,0.021447,-2.319336,-0.396729,10.589600
6.120474,0.084424,-0.088017,10.135723,0.042124,0.578733,0.074736,3.814697,1.403809,8.209229
6.130536,-0.128732,0.204175,10.046508,-0.171033,0.870925,-0.014479,-6.439209,-0.488281,9.002686
6.140598,0.429906,-0.714315,10.159673,0.387605,-0.047565,0.098686,-5.279541,-0.457764,9.704590
6.150661,0.322729,-0.499960,9.884246,0.280428,0.166789,-0.176741,-0.915527,-0.915527,11.566162
6.160722,0.217348,0.208965,9.917177,0.175047,0.875715,-0.143810,1.739502,-0.488281,11.138916
6.170785,0.134121,0.152682,9.938732,0.091821,0.819432,-0.122255,2.441406,-0.061035,7.751465
6.180846,0.071851,-0.213755,9.945917,0.029550,0.452994,-0.115069,6.896973,0.946045,5.279541
6.190907,0.113165,-0.001198,10.128538,0.070864,0.665552,0.067551,6.317139,0.793457,5.004883
6.200969,0.211360,-0.149090,10.012379,0.169060,0.517660,-0.048608,3.845215,-0.305176,6.164551
6.211031,0.132325,-0.262853,10.025552,0.090024,0.403896,-0.035435,4.577637,-0.946045,6.500244
6.221093,0.478405,0.223336,9.836944,0.436105,0.890085,-0.224043,2.075195,-0.671387,6.286621
6.231155,0.248483,-0.379611,10.051298,0.206183,0.287139,-0.009689,-1.098633,0.823975,2.380371
6.241216,0.168849,-0.483794,9.920770,0.126548,0.182956,-0.140217,-1.739502,-0.122070,0.732422
6.251277,0.174238,0.035327,9.963880,0.131937,0.702076,-0.097107,-1.098633,0.030518,-8.392334
6.261338,-0.249681,0.429906,10.149494,-0.291981,1.096655,0.088507,-2.532959,0.000000,-10.131836
6.271398,-0.169448,-0.383203,10.002200,-0.211748,0.283546,-0.058787,-5.950928,-0.762939,-10.253906
6.281465,0.214953,-0.644260,9.950109,0.172652,0.022489,-0.110878,-8.239746,-0.701904,-11.016846
6.291536,0.136516,-0.328118,10.100995,0.094216,0.338632,0.040008,-2.227783,0.091553,-5.065918
6.301632,0.101190,-0.323926,10.024953,0.058889,0.342823,-0.036034,2.227783,1.159668,-2.990723
6.311722,0.009580,-0.144899,10.115365,-0.032720,0.521851,0.054378,6.530762,1.861572,-3.967285
6.321813,-0.002994,-0.475411,9.981244,-0.045294,0.191338,-0.079743,3.417969,1.617432,-3.875732
6.331902,0.043709,-0.210762,10.162068,0.001409,0.455988,0.101081,2.136230,1.373291,-3.509521
6.341979,0.128732,-0.529898,10.042916,0.086432,0.136851,-0.018071,-4.058838,0.091553,1.129150
6.352042,0.280816,-0.665217,10.015972,0.238516,0.001533,-0.045015,-4.272461,-0.244141,3.143311
6.362114,0.182021,-0.473615,10.042916,0.139721,0.193134,-0.018071,-2.349854,-0.823975,8.056641
6.372180,0.274828,-0.411345,10.059681,0.232528,0.255405,-0.001306,-0.701904,-0.854492,6.683350
6.382242,0.059277,-0.182620,10.060878,0.016976,0.484129,-0.000109,3.601074,-0.183105,3.173828
6.392329,-0.193997,-0.502954,10.005194,-0.236297,0.163795,-0.055793,4.577637,0.335693,1.678467
6.402398,-0.059277,-0.736469,10.009984,-0.101577,-0.069719,-0.051003,2.105713,-0.305176,3.692627
6.412460,-0.146096,-0.398771,9.993818,-0.188397,0.267979,-0.067169,2.044678,-0.213623,4.425049
6.422527,-0.055684,0.040117,10.160870,-0.097985,0.706866,0.099884,3.967285,-0.366211,3.784180
6.432594,-0.190404,-0.462239,10.027947,-0.232705,0.204511,-0.033040,4.333496,0.030518,4.425049
6.442675,-0.175435,-0.208965,10.088421,-0.217736,0.457784,0.027434,4.364014,0.152588,3.875732
6.452757,-0.179028,-0.453257,10.005194,-0.221328,0.213492,-0.055793,3.601074,0.183105,2.624512
6.462823,-0.026345,-0.156874,10.100396,-0.068646,0.509876,0.039409,4.119873,0.762939,2.349854
6.472885,0.069456,-0.426912,9.996812,0.027155,0.239837,-0.064175,1.861572,0.457764,1.312256
6.482951,0.130529,-0.073647,10.060878,0.088228,0.593103,-0.000109,-0.976562,0.244141,-1.556396
6.493028,0.163460,0.161664,10.103989,0.121160,0.828413,0.043002,0.610352,0.640869,-2.532959
6.503122,0.238304,-0.144899,10.036928,0.196004,0.521851,-0.024059,-1.953125,0.305176,-5.706787
6.513194,0.395178,-0.115560,10.068662,0.352878,0.551190,0.007675,-0.579834,0.854492,-6.072998
6.523272,0.436492,0.101190,10.239307,0.394192,0.767939,0.178320,1.892090,1.403809,-7.080078
6.533335,0.322729,-0.202978,10.082433,0.280428,0.463772,0.021447,0.457764,0.701904,-9.155273
6.543403,0.380808,-0.312550,9.927955,0.338508,0.354199,-0.133032,0.732422,0.610352,-8.392334
6.553492,0.533491,-0.136516,10.130933,0.491190,0.530233,0.069946,0.183105,0.457764,-5.126953
6.563557,0.420326,0.017364,10.024953,0.378025,0.684113,-0.036034,0.396729,0.244141,-4.669189
6.573630,0.347877,-0.306563,10.071656,0.305576,0.360187,0.010669,-3.692627,-0.854492,-0.335693
6.583698,0.243094,-0.215552,10.042317,0.200794,0.451198,-0.018670,-3.143311,-1.098633,0.396729
6.593760,0.149689,-0.220342,10.030342,0.107388,0.446408,-0.030645,-3.082275,-0.823975,-0.213623
6.603828,0.400567,-0.283211,10.144105,0.358266,0.383538,0.083118,-0.793457,-0.335693,3.479004
6.613899,0.357457,-0.229323,10.130334,0.315156,0.437426,0.069347,0.396729,0.030518,2.624512
6.623961,0.098795,-0.108375,10.101594,0.056494,0.558375,0.040607,5.798340,0.915527,-3.967285
6.634030,0.123344,-0.302371,10.056687,0.081043,0.364378,-0.004300,6.408691,0.885010,-6.195068
6.644096,0.132924,-0.588576,10.053693,0.090623,0.078173,-0.007294,0.701904,-0.152588,-7.659912
6.654159,0.126337,-0.474813,10.001003,0.084037,0.191937,-0.059984,3.112793,-0.549316,-5.645752
6.664225,0.191602,-0.747845,9.986633,0.149301,-0.081095,-0.074354,1.800537,-0.762939,-4.455566
6.674294,0.120350,-0.703537,9.992021,0.078049,-0.036788,-0.068965,0.793457,-0.366211,-6.164551
6.684356,0.097597,-0.556842,9.977651,0.055297,0.109907,-0.083335,1.373291,-0.183105,-6.835938
6.694428,0.096998,-0.903521,9.998608,0.054698,-0.236772,-0.062379,-0.732422,0.549316,-4.760742
6.704495,0.141306,-0.672402,10.115365,0.099006,-0.005652,0.054378,-0.122070,0.335693,-2.807617
6.714558,0.096998,-0.785566,9.953102,0.054698,-0.118817,-0.107884,2.136230,0.274658,-2.899170
6.724624,0.093406,-0.839454,10.008787,0.051105,-0.172705,-0.052200,1.922607,0.457764,-3.997803
6.734694,0.122745,-0.971180,10.033336,0.080444,-0.304431,-0.027651,2.380371,0.610352,-3.509521
6.744823,0.345482,-0.704734,10.007589,0.303181,-0.037985,-0.053398,1.525879,0.762939,-1.556396
6.754889,0.131726,-0.787961,10.040521,0.089426,-0.121212,-0.020466,0.396729,0.549316,-1.434326
6.764953,0.044308,-0.556842,10.048304,0.002007,0.109907,-0.012682,-0.305176,-0.122070,-3.814697
6.775016,0.022154,-0.863405,9.989626,-0.020147,-0.196655,-0.071360,-0.183105,-0.091553,-2.471924
6.785079,0.142504,-0.781974,10.096804,0.100203,-0.115224,0.035817,-1.953125,-0.335693,1.739502
6.795144,0.149090,-0.348475,10.129136,0.106789,0.318274,0.068150,-2.868652,-0.701904,3.723145
6.805207,0.132325,-0.455652,10.186018,0.090024,0.211097,0.125031,-2.593994,-0.610352,4.058838
6.815270,0.172441,-0.681982,9.994417,0.130141,-0.015232,-0.066570,-1.770020,0.305176,3.753662
6.825334,0.185015,-0.010778,10.103390,0.142715,0.655972,0.042403,-0.274658,-0.030518,3.601074
6.835397,0.044308,-0.244891,10.098001,0.002007,0.421859,0.037014,2.197266,0.305176,2.410889
6.845461,-0.003593,-0.129331,10.063872,-0.045893,0.537418,0.002885,2.746582,0.213623,1.312256
6.855525,-0.007185,-0.131726,10.146500,-0.049486,0.535023,0.085513,-0.244141,-0.549316,2.075195
6.865589,0.052690,-0.419727,10.082433,0.010390,0.247022,0.021447,-1.861572,-0.885010,4.150391
6.875652,0.244292,-0.383203,10.068063,0.201991,0.283546,0.007077,-3.662109,-1.190186,7.995605
6.885716,0.025746,0.133522,10.254875,-0.016554,0.800272,0.193888,-2.319336,-1.129150,7.385254
6.895779,0.053289,-0.023351,10.117760,0.010989,0.643398,0.056773,-2.258301,-0.640869,6.500244
6.905842,0.259261,-0.707130,9.993818,0.216960,-0.040380,-0.067169,-1.525879,-0.152588,4.364014
6.915906,0.287402,-0.346679,9.983639,0.245102,0.320070,-0.077348,0.396729,0.061035,2.136230
6.925968,0.244891,-0.407752,10.056687,0.202590,0.258997,-0.004300,0.732422,0.366211,1.190186
6.936040,0.167651,-0.250280,10.106982,0.125351,0.416470,0.045996,0.671387,0.640869,0.976562
6.946104,0.121547,-0.520917,9.996812,0.079247,0.145833,-0.064175,3.051758,0.732422,1.312256
6.956167,0.055684,-0.261656,9.980645,0.013384,0.405094,-0.080342,2.441406,0.549316,1.373291
6.966238,-0.037123,-0.068857,10.166858,-0.079423,0.597893,0.105871,4.516602,0.946045,-0.274658
6.976302,0.112566,-0.164658,10.124945,0.070265,0.502092,0.063958,3.448486,0.854492,-3.143311
6.986365,0.018561,-0.214354,10.124346,-0.023739,0.452395,0.063359,2.899170,0.732422,-2.990723
6.996480,0.131127,-0.328716,10.076446,0.088827,0.338033,0.015459,0.885010,0.732422,1.251221
7.006544,0.211360,-0.501757,9.980645,0.169060,0.164993,-0.080342,0.335693,0.518799,5.187988
7.016606,0.304167,-0.287402,10.151290,0.261867,0.379347,0.090303,0.335693,0.701904,5.859375
7.026670,0.062271,-0.389191,10.121353,0.019970,0.277559,0.060366,0.976562,0.701904,7.598877
7.036732,0.107776,-0.626298,10.060878,0.065475,0.040452,-0.000109,0.579834,0.701904,9.887695
7.046795,0.396376,-0.432900,10.093211,0.354075,0.233850,0.032224,1.403809,0.091553,13.275146
7.056858,0.326920,-0.204774,10.040521,0.284620,0.461975,-0.020466,1.068115,-0.030518,12.786865
7.066970,0.266446,-0.053289,10.048903,0.224145,0.613460,-0.012084,1.312256,0.000000,13.214111
7.077065,0.210163,-0.227527,10.083032,0.167862,0.439223,0.022045,1.403809,0.305176,13.702393
7.087156,0.390388,-0.296384,10.112970,0.348088,0.370366,0.051983,1.220703,-0.122070,11.932373
7.097252,0.044907,-0.495170,9.987830,0.002606,0.171579,-0.073157,-2.105713,0.457764,12.451172
7.107347,0.298180,-0.753832,9.999207,0.255879,-0.087083,-0.061780,-1.800537,0.335693,10.162354
7.117443,0.123942,-0.165855,10.088421,0.081642,0.500894,0.027434,-0.457764,-0.061035,8.209229
7.127538,0.070653,-0.129930,10.036928,0.028353,0.536820,-0.024059,-1.007080,0.000000,8.331299
7.137634,-0.095801,-0.188009,10.105186,-0.138101,0.478740,0.044199,-0.122070,-0.305176,6.439209
7.147730,0.101788,-0.272433,10.025552,0.059488,0.394316,-0.035435,0.976562,-1.342773,3.417969
7.157825,0.054487,-0.522114,10.059681,0.012186,0.144635,-0.001306,1.586914,-1.617432,-0.610352
7.167995,-0.155676,-0.311951,10.047107,-0.197977,0.354798,-0.013880,3.845215,-2.777100,-0.213623
7.178084,-0.151485,-0.328118,9.996812,-0.193786,0.338632,-0.064175,2.410889,-1.434326,0.610352
7.188170,0.240101,-0.689766,9.984836,0.197800,-0.023016,-0.076150,1.739502,-0.976562,1.098633
7.198258,0.174238,-0.549657,10.087224,0.131937,0.117093,0.026237,1.892090,-0.946045,0.915527
7.208347,-0.146096,-0.191003,10.103390,-0.188397,0.475747,0.042403,2.166748,-1.434326,1.647949
7.218436,-0.120948,-0.344284,10.075248,-0.163249,0.322465,0.014262,1.892090,-1.281738,1.312256
7.228525,0.098196,-0.726290,10.073452,0.055895,-0.059540,0.012465,1.129150,-0.762939,0.854492
7.238613,0.120948,-0.521516,10.111174,0.078648,0.145234,0.050187,2.471924,-1.739502,0.213623
7.248701,0.221539,-0.461041,9.985435,0.179239,0.205708,-0.075552,1.647949,-1.434326,0.915527
7.258789,0.065863,-0.404160,10.071057,0.023563,0.262590,0.010070,0.640869,-0.854492,1.678467
7.268962,0.038320,-0.393981,10.075847,-0.003980,0.272769,0.014860,0.061035,-0.457764,1.373291
7.279058,0.065863,-0.407153,10.127939,0.023563,0.259596,0.066952,0.488281,-0.396729,-2.563477
7.289154,0.067659,-0.492177,10.069860,0.025359,0.174573,0.008873,1.098633,-0.610352,-4.852295
7.299249,0.032333,-0.567021,9.981244,-0.009968,0.099729,-0.079743,2.502441,-1.190186,-7.904053
7.309343,-0.099393,-0.316143,10.067465,-0.141694,0.350607,0.006478,2.532959,-1.403809,-8.819580
7.319438,-0.152084,-0.152682,10.127340,-0.194384,0.514067,0.066353,2.960205,-1.342773,-11.444092
7.329533,-0.015568,-0.621508,10.087822,-0.057868,0.045242,0.026835,1.800537,-0.610352,-10.345459
7.339629,0.049697,-0.729882,10.010583,0.007396,-0.063133,-0.050404,1.281738,-0.488281,-7.293701
7.349725,0.013173,-0.256866,10.079440,-0.029128,0.409884,0.018453,1.617432,-0.579834,-6.683350
7.359840,0.032333,-0.411345,10.004595,-0.009968,0.255405,-0.056391,0.854492,0.030518,-7.446289
7.370028,0.105381,-0.165855,10.050699,0.063080,0.500894,-0.010287,0.640869,0.183105,-7.873535
7.380117,0.091011,-0.258063,10.065070,0.048710,0.408686,0.004083,0.000000,0.732422,-9.063721
7.390206,0.143102,-0.632884,10.048903,0.100802,0.033866,-0.012084,-0.518799,1.251221,-9.033203
7.400294,0.176633,-0.565823,10.002799,0.134332,0.100926,-0.058188,0.091553,0.762939,-7.812500
7.410382,0.209564,-0.496368,10.048304,0.167264,0.170382,-0.012682,-0.976562,1.495361,-4.669189
7.420502,0.156874,-0.444276,10.075248,0.114573,0.222473,0.014262,-0.183105,1.312256,-3.295898
7.430591,0.145497,-0.527503,10.093211,0.103197,0.139246,0.032224,0.762939,0.701904,-1.983643
7.440679,0.079634,-0.283810,10.172845,0.037334,0.382940,0.111859,5.645752,-1.922607,-1.220703
7.450767,0.191003,-0.009580,10.146500,0.148702,0.657169,0.085513,5.096436,-2.044678,-1.739502
7.460855,0.167053,-0.495769,10.094409,0.124752,0.170980,0.033422,6.378174,-2.593994,-1.617432
7.470981,0.202379,0.109572,10.132729,0.160079,0.776322,0.071742,5.920410,-2.502441,-1.831055
7.481074,0.063468,-0.855621,10.029743,0.021167,-0.188871,-0.031244,1.861572,-1.556396,5.523682
7.491165,0.265248,-1.147813,9.987830,0.222948,-0.481064,-0.073157,-1.037598,-0.671387,6.866455
7.501261,0.344883,-0.279619,10.065070,0.302582,0.387131,0.004083,-0.061035,-0.915527,5.310059
7.511351,0.167651,-0.237107,10.089619,0.125351,0.429643,0.028632,1.281738,-1.220703,5.126953
7.521442,0.143102,-0.549058,10.054891,0.100802,0.117691,-0.006096,1.647949,-1.342773,3.753662
7.531532,0.148491,-0.399968,10.012978,0.106191,0.266781,-0.048009,1.495361,-1.037598,2.929688
7.541628,0.180225,-0.322729,10.040521,0.137925,0.344021,-0.020466,1.464844,-1.403809,4.516602
7.551719,0.213157,-0.432301,10.061477,0.170856,0.234448,0.000490,1.617432,-1.220703,4.241943
7.561815,0.194595,-0.326920,10.054292,0.152295,0.339829,-0.006695,1.159668,-0.762939,3.753662
7.571980,0.223336,-0.347278,10.078242,0.181035,0.319472,0.017255,0.732422,-0.335693,3.509521
7.582066,0.237107,-0.401765,10.066866,0.194806,0.264985,0.005879,1.007080,-0.457764,4.608154
7.592150,0.166454,-0.379611,10.048304,0.124153,0.287139,-0.012682,0.366211,-0.122070,4.943848
7.602240,0.123942,-0.262853,10.065668,0.081642,0.403896,0.004682,0.885010,-0.488281,4.730225
7.612324,0.137714,-0.339494,10.066267,0.095413,0.327255,0.005280,0.946045,-0.457764,4.241943
7.622412,0.121547,-0.503553,10.040521,0.079247,0.163197,-0.020466,1.525879,-0.915527,3.540039
7.632497,0.179626,-0.637674,10.018367,0.137326,0.029076,-0.042620,1.037598,-0.762939,4.638672
7.642582,0.181423,-0.493973,10.073452,0.139122,0.172777,0.012465,1.525879,-1.159668,6.011963
7.652667,0.226928,-0.340093,10.044113,0.184628,0.326657,-0.016874,1.068115,-0.640869,6.072998
7.662753,0.174238,-0.310754,10.075847,0.131937,0.355996,0.014860,0.457764,-0.244141,5.920410
7.672841,0.044308,-0.338297,10.114167,0.002007,0.328453,0.053181,0.885010,-0.457764,4.516602
7.682931,0.154479,-0.331710,10.033336,0.112178,0.335039,-0.027651,1.251221,-0.946045,3.662109
7.693027,0.123942,-0.459844,10.081835,0.081642,0.206906,0.020848,0.946045,-0.671387,2.014160
7.703119,0.152084,-0.483794,10.049502,0.109783,0.182956,-0.011485,1.892090,-1.190186,1.007080
7.713256,0.194595,-0.325124,10.058483,0.152295,0.341626,-0.002504,1.525879,-0.854492,0.152588
7.723355,0.190404,-0.393981,10.048304,0.148104,0.272769,-0.012682,1.159668,-0.610352,0.030518
7.733449,0.164059,-0.349074,10.075248,0.121758,0.317675,0.014262,1.159668,-0.488281,-0.457764
7.743543,0.224533,-0.368234,10.062076,0.182233,0.298515,0.001089,0.183105,0.244141,-0.793457
7.753639,0.213755,-0.344883,10.067465,0.171455,0.321867,0.006478,-0.061035,0.396729,-0.549316
7.763730,0.159868,-0.276026,10.069860,0.117567,0.390723,0.008873,-0.366211,0.457764,-0.061035
7.773936,0.144899,-0.396974,10.068063,0.102598,0.269775,0.007077,-0.274658,0.457764,-0.518799
7.784024,0.134121,-0.398172,10.072853,0.091821,0.268577,0.011867,0.457764,-0.030518,-1.739502
7.794112,0.157473,-0.326321,10.063273,0.115172,0.340428,0.002286,0.213623,0.183105,-2.166748
7.804199,0.158071,-0.283810,10.078242,0.115771,0.382940,0.017255,0.305176,0.152588,-2.960205
7.814288,0.173040,-0.325723,10.069860,0.130740,0.341027,0.008873,0.213623,0.213623,-2.990723
7.824374,0.174238,-0.364642,10.069860,0.131937,0.302108,0.008873,0.183105,0.274658,-3.356934
7.834462,0.186213,-0.328118,10.063872,0.143912,0.338632,0.002885,0.244141,0.183105,-3.082275
7.844549,0.188608,-0.359253,10.057885,0.146307,0.307497,-0.003102,0.335693,0.122070,-2.685547
7.854637,0.187410,-0.380209,10.061477,0.145110,0.286540,0.000490,0.366211,0.061035,-1.831055
7.864724,0.183219,-0.380209,10.060280,0.140918,0.286540,-0.000707,0.335693,0.030518,-1.464844
7.874885,0.182620,-0.396974,10.061477,0.140320,0.269775,0.000490,0.274658,0.061035,-0.946045
7.884977,0.185015,-0.422122,10.062675,0.142715,0.244627,0.001688,0.244141,0.091553,-0.732422
7.895072,0.187410,-0.432301,10.054891,0.145110,0.234448,-0.006096,0.213623,0.122070,-0.579834
7.905166,0.188608,-0.449665,10.061477,0.146307,0.217085,0.000490,0.152588,0.091553,-0.366211
7.915261,0.182021,-0.456850,10.061477,0.139721,0.209900,0.000490,0.122070,0.091553,-0.274658
7.925355,0.185614,-0.460443,10.059681,0.143313,0.206307,-0.001306,0.061035,0.152588,-0.091553
7.935458,0.189805,-0.465233,10.053693,0.147505,0.201517,-0.007294,0.091553,0.122070,0.000000
7.945554,0.191602,-0.468226,10.053094,0.149301,0.198523,-0.007892,0.183105,0.061035,0.122070
7.955647,0.202379,-0.468825,10.062675,0.160079,0.197924,0.001688,0.213623,0.061035,0.183105
7.965745,0.202379,-0.474813,10.061477,0.160079,0.191937,0.000490,0.274658,0.091553,0.213623
7.975882,0.199385,-0.480800,10.057885,0.157085,0.185949,-0.003102,0.335693,0.091553,0.183105
7.985976,0.194595,-0.477806,10.058483,0.152295,0.188943,-0.002504,0.335693,0.030518,0.183105
7.996072,0.195194,-0.477806,10.052496,0.152894,0.188943,-0.008491,0.335693,0.030518,0.152588
8.006166,0.198787,-0.475411,10.057286,0.156486,0.191338,-0.003701,0.335693,0.030518,0.152588
8.016259,0.196990,-0.479004,10.058483,0.154690,0.187746,-0.002504,0.274658,0.061035,0.030518
8.026354,0.194595,-0.476010,10.055490,0.152295,0.190739,-0.005497,0.244141,0.061035,0.030518
8.036449,0.193398,-0.478405,10.055490,0.151097,0.188344,-0.005497,0.183105,0.091553,0.000000
8.046544,0.197589,-0.480800,10.054891,0.155289,0.185949,-0.006096,0.152588,0.061035,0.000000
8.056639,0.202978,-0.478405,10.057885,0.160677,0.188344,-0.003102,0.122070,0.091553,-0.030518
8.066734,0.195793,-0.476609,10.066267,0.153492,0.190141,0.005280,0.061035,0.122070,-0.061035
8.076930,0.199385,-0.477208,10.061477,0.157085,0.189542,0.000490,0.061035,0.122070,-0.061035
8.087018,0.204774,-0.474214,10.063273,0.162474,0.192536,0.002286,0.000000,0.122070,-0.091553
8.097107,0.202379,-0.476010,10.064471,0.160079,0.190739,0.003484,-0.030518,0.122070,-0.091553
8.107193,0.201182,-0.473016,10.068063,0.158881,0.193733,0.007077,-0.061035,0.152588,-0.183105
8.117281,0.190404,-0.479603,10.070458,0.148104,0.187147,0.009472,-0.091553,0.152588,-0.213623
8.127369,0.192200,-0.476010,10.067465,0.149900,0.190739,0.006478,-0.091553,0.183105,-0.244141
8.137462,0.191602,-0.469424,10.062076,0.149301,0.197326,0.001089,-0.183105,0.244141,-0.305176
8.147552,0.191003,-0.470621,10.059082,0.148702,0.196128,-0.001905,-0.183105,0.274658,-0.335693
8.157639,0.186213,-0.486788,10.065668,0.143912,0.179962,0.004682,-0.152588,0.274658,-0.335693
8.167727,0.185614,-0.486788,10.065668,0.143313,0.179962,0.004682,-0.091553,0.244141,-0.305176
8.177869,0.186213,-0.481998,10.063872,0.143912,0.184752,0.002885,0.000000,0.183105,-0.244141
8.187958,0.198787,-0.478405,10.057885,0.156486,0.188344,-0.003102,0.030518,0.152588,-0.244141
8.198046,0.197589,-0.476010,10.059681,0.155289,0.190739,-0.001306,0.091553,0.122070,-0.183105
8.208133,0.189207,-0.474214,10.074051,0.146906,0.192536,0.013064,0.183105,0.122070,-0.122070
8.218221,0.188608,-0.475411,10.072255,0.146307,0.191338,0.011268,0.213623,0.091553,-0.091553
8.228308,0.189805,-0.466430,10.064471,0.147505,0.200319,0.003484,0.244141,0.091553,0.000000
8.238396,0.191602,-0.464035,10.068063,0.149301,0.202714,0.007077,0.274658,0.091553,-0.030518
8.248484,0.196990,-0.468226,10.070458,0.154690,0.198523,0.009472,0.244141,0.122070,0.030518
8.258571,0.189207,-0.471220,10.067465,0.146906,0.195529,0.006478,0.213623,0.091553,0.030518
8.268659,0.193997,-0.475411,10.063273,0.151696,0.191338,0.002286,0.183105,0.091553,0.030518
8.278824,0.192799,-0.474214,10.062675,0.150499,0.192536,0.001688,0.183105,0.061035,0.030518
8.288919,0.192799,-0.480201,10.062076,0.150499,0.186548,0.001089,0.213623,0.061035,0.030518
8.299013,0.190404,-0.477806,10.066866,0.148104,0.188943,0.005879,0.152588,0.091553,0.091553
8.309108,0.190404,-0.479603,10.065668,0.148104,0.187147,0.004682,0.152588,0.091553,0.091553
8.319202,0.190404,-0.487985,10.069860,0.148104,0.178764,0.008873,0.152588,0.091553,0.091553
8.329297,0.190404,-0.480800,10.068662,0.148104,0.185949,0.007675,0.152588,0.061035,0.061035
8.339391,0.189805,-0.479603,10.062675,0.147505,0.187147,0.001688,0.213623,0.000000,0.030518
8.349487,0.187410,-0.490380,10.071656,0.145110,0.176369,0.010669,0.244141,0.000000,0.061035
8.359581,0.195194,-0.483794,10.065070,0.152894,0.182956,0.004083,0.244141,0.000000,0.091553
8.369676,0.189207,-0.480201,10.062675,0.146906,0.186548,0.001688,0.183105,0.030518,0.061035
8.379854,0.189207,-0.478405,10.066267,0.146906,0.188344,0.005280,0.213623,0.030518,0.030518
8.389943,0.193997,-0.476010,10.063273,0.151696,0.190739,0.002286,0.274658,0.061035,0.030518
8.400030,0.196392,-0.476609,10.069860,0.154091,0.190141,0.008873,0.244141,0.061035,0.030518
8.410115,0.194595,-0.476609,10.066866,0.152295,0.190141,0.005879,0.244141,0.091553,0.030518
8.420202,0.192200,-0.467628,10.060878,0.149900,0.199122,-0.000109,0.305176,0.091553,0.030518
8.430287,0.188009,-0.470621,10.058483,0.145708,0.196128,-0.002504,0.274658,0.061035,0.030518
8.440372,0.193398,-0.470621,10.062675,0.151097,0.196128,0.001688,0.366211,0.061035,0.030518
8.450456,0.186812,-0.467628,10.065668,0.144511,0.199122,0.004682,0.335693,0.061035,0.030518
8.460540,0.185015,-0.474813,10.064471,0.142715,0.191937,0.003484,0.305176,0.030518,0.030518
8.470624,0.180225,-0.477208,10.064471,0.137925,0.189542,0.003484,0.305176,0.030518,0.030518
8.480709,0.182620,-0.479603,10.066267,0.140320,0.187147,0.005280,0.274658,0.030518,0.030518
8.490799,0.185614,-0.476609,10.066267,0.143313,0.190141,0.005280,0.244141,0.030518,0.030518
8.500890,0.184417,-0.474214,10.068662,0.142116,0.192536,0.007675,0.244141,0.091553,0.030518
8.510980,0.188009,-0.473615,10.059681,0.145708,0.193134,-0.001306,0.244141,0.091553,0.030518
8.521071,0.186213,-0.476609,10.057885,0.143912,0.190141,-0.003102,0.274658,0.091553,0.030518
8.531163,0.188009,-0.481399,10.054292,0.145708,0.185351,-0.006695,0.335693,0.061035,0.061035
8.541255,0.193398,-0.480201,10.053094,0.151097,0.186548,-0.007892,0.335693,0.030518,0.061035
8.551346,0.196392,-0.472418,10.063273,0.154091,0.194332,0.002286,0.305176,0.030518,0.061035
8.561440,0.193398,-0.469424,10.066267,0.151097,0.197326,0.005280,0.274658,0.061035,0.030518
8.571531,0.190404,-0.468825,10.069860,0.148104,0.197924,0.008873,0.122070,0.122070,0.030518
8.581621,0.188009,-0.457449,10.068662,0.145708,0.209301,0.007675,0.091553,0.152588,0.091553
8.591705,0.189805,-0.452060,10.063872,0.147505,0.214690,0.002885,0.061035,0.152588,0.305176
8.601790,0.189207,-0.416135,10.069860,0.146906,0.250615,0.008873,0.030518,0.122070,1.037598
8.611874,0.186812,-0.417332,10.071057,0.144511,0.249417,0.010070,-0.030518,0.122070,1.525879
8.621960,0.185614,-0.427511,10.063872,0.143313,0.239239,0.002885,-0.122070,0.091553,2.288818
8.632043,0.171244,-0.386197,10.069261,0.128943,0.280553,0.008274,-0.183105,0.061035,2.685547
8.642130,0.167651,-0.343685,10.066866,0.125351,0.323064,0.005879,-0.274658,0.030518,3.936768
8.652215,0.168849,-0.356259,10.074650,0.126548,0.310490,0.013663,-0.396729,0.122070,4.455566
8.662301,0.165256,-0.373024,10.075248,0.122956,0.293725,0.014262,-0.244141,0.061035,5.126953
8.672385,0.162263,-0.417332,10.067465,0.119962,0.249417,0.006478,-0.549316,0.213623,5.584717
8.682538,0.153281,-0.396974,10.066267,0.110981,0.269775,0.005280,-0.396729,0.152588,5.737305
8.692628,0.026944,-0.240699,10.072255,-0.015357,0.426050,0.011268,-0.335693,0.244141,5.859375
8.702723,0.052690,-0.250878,10.079440,0.010390,0.415871,0.018453,0.000000,0.000000,5.523682
8.712818,0.079036,-0.305964,10.083631,0.036735,0.360786,0.022644,-0.396729,0.305176,4.516602
8.722912,0.154479,-0.324525,10.072255,0.112178,0.342224,0.011268,-0.366211,0.366211,4.455566
8.733004,0.192200,-0.267643,10.047706,0.149900,0.399106,-0.013281,-0.518799,0.335693,4.943848
8.743097,0.156275,-0.274828,10.065668,0.113974,0.391921,0.004682,-0.152588,0.244141,5.004883
8.753190,0.120948,-0.310155,10.055490,0.078648,0.356594,-0.005497,-0.579834,0.335693,4.974365
8.763282,0.170046,-0.301174,10.073452,0.127746,0.365576,0.012465,-0.701904,0.152588,4.364014
8.773376,0.211959,-0.328716,10.077643,0.169659,0.338033,0.016657,-0.366211,0.152588,4.638672
8.783548,0.052690,-0.119751,10.059082,0.010390,0.546999,-0.001905,0.244141,0.000000,5.187988
8.793636,0.055085,-0.068258,10.074051,0.012785,0.598491,0.013064,-0.213623,0.061035,4.333496
8.803720,0.155676,-0.107177,10.095606,0.113376,0.559572,0.034619,-0.549316,0.305176,2.227783
8.813807,0.271835,-0.296384,10.035132,0.229534,0.370366,-0.025855,-0.671387,0.305176,2.105713
8.823892,0.219144,-0.280816,10.081236,0.176844,0.385933,0.020249,0.061035,0.061035,2.288818
8.833979,0.157473,-0.192799,10.099199,0.115172,0.473950,0.038212,-0.122070,0.213623,2.471924
8.844065,0.128732,-0.162861,10.050101,0.086432,0.503888,-0.010886,-0.061035,0.366211,2.563477
8.854151,0.352068,-0.313149,10.070458,0.309767,0.353601,0.009472,-0.549316,0.213623,2.227783
8.864238,0.514330,-0.378413,10.003997,0.472030,0.288336,-0.056990,-1.556396,0.671387,2.563477
8.874662,0.291594,-0.203577,10.117161,0.249293,0.463173,0.056174,-1.403809,0.793457,6.103516
8.884850,-0.028141,-0.298779,9.967473,-0.070442,0.367971,-0.093514,-0.732422,0.793457,7.446289
8.894957,0.176034,0.001198,10.160870,0.133733,0.667947,0.099884,1.129150,0.335693,7.598877
8.905043,0.261656,-0.104782,10.093810,0.219355,0.561967,0.032823,-1.922607,1.922607,8.483887
8.915132,0.298180,-0.263452,10.083032,0.255879,0.403297,0.022045,-5.004883,2.838135,7.904053
8.925221,0.081431,-0.144300,10.097402,0.039130,0.522450,0.036416,-6.256104,3.295898,9.704590
8.935325,0.150287,-0.164059,10.098001,0.107987,0.502691,0.037014,-6.744385,3.723145,11.138916
8.945411,0.065863,-0.078437,10.057885,0.023563,0.588313,-0.003102,-7.202148,3.784180,10.986328
8.955500,0.094005,-0.260458,10.151889,0.051704,0.406291,0.090902,-5.981445,3.723145,10.223389
8.965590,0.126337,-0.316143,9.988429,0.084037,0.350607,-0.072558,-3.601074,2.014160,8.789062
8.975678,0.104782,-0.202978,10.020163,0.062482,0.463772,-0.040824,-2.349854,1.464844,8.087158
8.985809,0.143102,-0.115560,9.951306,0.100802,0.551190,-0.109681,-1.800537,0.915527,7.598877
8.995894,0.000000,-0.282612,10.129735,-0.042301,0.384137,0.068748,0.244141,-0.366211,4.669189
9.005979,0.071851,-0.308359,10.145303,0.029550,0.358391,0.084316,0.946045,-0.488281,4.272461
9.016067,0.088017,-0.238903,9.965078,0.045716,0.427846,-0.095909,-0.976562,0.701904,6.469727
9.026154,0.050894,-0.186213,10.142309,0.008594,0.480537,0.081322,-0.427246,0.457764,6.134033
9.036241,0.025746,-0.256866,10.056687,-0.016554,0.409884,-0.004300,-0.427246,0.762939,4.974365
9.046329,0.098795,-0.184417,10.029144,0.056494,0.482333,-0.031843,-1.647949,1.770020,5.432129
9.056416,0.091011,-0.197589,9.964479,0.048710,0.469160,-0.096508,-2.502441,2.319336,6.286621
9.066503,-0.007784,-0.282612,10.150692,-0.050084,0.384137,0.089705,-2.593994,2.838135,6.713867
9.076590,0.055085,-0.315544,10.187216,0.012785,0.351206,0.126229,-1.770020,2.288818,6.652832
9.086751,0.166454,-0.422122,10.135723,0.124153,0.244627,0.074736,-1.342773,1.495361,5.645752
9.096846,0.213755,-0.443079,10.042916,0.171455,0.223671,-0.018071,-0.701904,1.220703,5.249023
9.106940,0.067061,-0.288001,9.986034,0.024760,0.378748,-0.074953,0.518799,0.518799,6.256104
9.117034,0.220342,-0.350272,10.169852,0.178041,0.316478,0.108865,1.770020,0.274658,6.561279
9.127128,0.318538,-0.333506,10.025552,0.276237,0.333243,-0.035435,1.708984,0.091553,6.164551
9.137223,0.179028,-0.268242,10.106384,0.136727,0.398507,0.045397,0.946045,-0.213623,5.493164
9.147316,0.149689,-0.321531,9.961485,0.107388,0.345218,-0.099502,-0.091553,-0.213623,5.676270
9.157413,0.083826,-0.191003,10.084230,0.041525,0.475747,0.023243,-0.091553,-0.335693,6.774902
9.167508,0.004191,-0.227527,10.180031,-0.038109,0.439223,0.119044,-0.488281,-0.244141,6.317139
9.177603,0.013173,-0.362247,10.045311,-0.029128,0.304503,-0.015676,0.457764,-1.037598,4.882812
9.187783,-0.004191,-0.386796,10.120754,-0.046492,0.279954,0.059767,0.885010,-1.281738,3.570557
9.197870,0.008981,-0.105980,10.078841,-0.033319,0.560770,0.017854,1.739502,-1.190186,3.753662
9.207958,0.128732,-0.396376,10.253677,0.086432,0.270374,0.192691,1.373291,-0.671387,4.638672
9.218045,0.281415,-0.342488,10.136321,0.239114,0.324262,0.075335,-1.495361,-0.518799,5.462646
9.228131,0.159868,-0.238903,10.086026,0.117567,0.427846,0.025039,-2.593994,-0.518799,5.706787
9.238218,0.208367,-0.222737,10.001003,0.166066,0.444013,-0.059984,-2.777100,-0.549316,5.676270
9.248306,0.156275,-0.256866,10.075248,0.113974,0.409884,0.014262,-2.716064,-0.671387,4.516602
9.258392,0.098795,-0.325124,10.177037,0.056494,0.341626,0.116050,-2.258301,-1.098633,4.486084
9.268479,0.171244,-0.191003,10.096205,0.128943,0.475747,0.035218,-2.136230,-1.007080,4.699707
9.278567,0.162263,-0.340093,10.248289,0.119962,0.326657,0.187302,-0.549316,-0.793457,5.828857
9.288721,0.276026,-0.390388,9.952504,0.233725,0.276361,-0.108483,-0.152588,-0.610352,6.683350
9.298815,0.306563,-0.398172,10.075847,0.264262,0.268577,0.014860,0.854492,-0.976562,6.652832
9.308909,0.223934,-0.443079,10.017169,0.181634,0.223671,-0.043818,1.220703,-0.762939,7.415771
9.319003,0.029938,-0.256267,10.193203,-0.012363,0.410482,0.132216,0.549316,0.457764,8.636475
9.329097,0.078437,-0.378413,10.142908,0.036136,0.288336,0.081921,-0.366211,0.488281,7.904053
9.339191,0.211959,-0.349673,9.981244,0.169659,0.317077,-0.079743,0.000000,0.030518,6.378174
9.349285,0.005389,-0.403561,10.138716,-0.036912,0.263189,0.077730,-0.915527,-0.366211,7.720947
9.359376,0.227527,-0.433499,10.017768,0.185226,0.233251,-0.043219,-0.030518,-0.732422,6.988525
9.369471,0.211360,-0.388592,10.053094,0.169060,0.278158,-0.007892,2.014160,-0.854492,5.554199
9.379565,0.137714,-0.407153,10.099797,0.095413,0.259596,0.038811,-0.305176,-1.464844,5.310059
9.389687,0.100591,-0.532293,10.233320,0.058290,0.134456,0.172333,-1.586914,-1.495361,4.974365
9.399781,0.073647,-0.412542,10.142908,0.031346,0.254207,0.081921,-0.152588,-0.885010,3.570557
9.409876,0.070653,-0.293989,10.017169,0.028353,0.372761,-0.043818,0.091553,-0.091553,1.373291
9.419970,0.056882,-0.462838,10.059082,0.014581,0.203912,-0.001905,0.732422,0.396729,0.061035
9.430064,0.091609,-0.436492,10.044712,0.049309,0.230257,-0.016275,-0.915527,1.129150,-0.549316
9.440157,0.094005,-0.386197,9.966275,0.051704,0.280553,-0.094712,-1.220703,0.701904,-2.441406
9.450252,0.068258,-0.296384,10.089619,0.025958,0.370366,0.028632,-1.098633,0.427246,-4.974365
9.460347,0.089813,-0.529299,10.067465,0.047513,0.137450,0.006478,-0.030518,0.610352,-7.232666
9.470461,0.095801,-0.579595,10.053094,0.053500,0.087155,-0.007892,0.244141,0.885010,-7.720947
9.480558,0.044308,-0.473016,10.080038,0.002007,0.193733,0.019052,3.631592,1.159668,-5.706787
9.490740,-0.020358,-0.608934,10.080637,-0.062658,0.057816,0.019650,-0.854492,1.373291,-5.584717
9.500829,-0.003593,-0.290396,10.135124,-0.045893,0.376353,0.074137,-5.432129,1.220703,-4.882812
9.510918,0.028141,-0.326920,9.817784,-0.014159,0.339829,-0.243203,-5.615234,0.549316,-4.943848
9.521008,0.093406,-0.865800,9.937535,0.051105,-0.199050,-0.123452,-6.896973,-0.183105,-6.591797
9.531096,0.115560,-0.525707,10.119556,0.073259,0.141043,0.058569,0.915527,-0.396729,-7.385254
9.541184,-0.011376,-0.595761,10.124945,-0.053677,0.070988,0.063958,-1.525879,-1.037598,-7.781982
9.551272,0.119751,-0.544268,10.046508,0.077450,0.122481,-0.014479,-0.701904,-0.061035,-5.706787
9.561359,0.194595,-0.437690,10.059681,0.152295,0.229060,-0.001306,-0.579834,0.122070,-4.974365
9.571445,0.250878,-0.504750,10.196796,0.208578,0.161999,0.135809,0.701904,1.037598,-4.058838
9.581538,0.203577,-0.629291,10.108779,0.161276,0.037458,0.047792,1.342773,1.129150,-2.105713
9.591703,0.431104,-0.642464,10.057885,0.388803,0.024285,-0.003102,-2.899170,-0.396729,-0.976562
9.601798,0.051493,-0.814307,10.175839,0.009192,-0.147557,0.114852,-4.760742,0.457764,-0.030518
9.611893,-0.119152,-0.713117,10.197394,-0.161453,-0.046368,0.136408,0.732422,0.854492,2.441406
9.621989,0.449066,-0.299377,10.036928,0.406766,0.367372,-0.024059,2.319336,-0.091553,-0.946045
9.632083,0.465831,-0.170046,10.087822,0.423531,0.496703,0.026835,0.701904,-0.366211,-2.410889
9.642177,0.331111,-0.456251,10.117760,0.288811,0.210498,0.056773,3.204346,0.457764,-1.892090
9.652271,0.377216,-0.478405,10.109976,0.334915,0.188344,0.048989,0.244141,0.091553,-1.922607
9.662365,0.273032,-0.317340,10.009385,0.230732,0.349409,-0.051601,0.915527,0.091553,-0.488281
9.672460,0.389789,-0.465233,9.866882,0.347489,0.201517,-0.194105,-1.037598,-0.122070,-2.227783
9.682554,0.335901,-0.062271,10.180629,0.293601,0.604479,0.119642,1.861572,0.366211,-2.716064
9.692675,0.216151,-0.340093,10.053094,0.173850,0.326657,-0.007892,-2.502441,0.366211,-3.265381
9.702770,0.224533,-0.302371,10.203382,0.182233,0.364378,0.142395,-5.706787,1.007080,-3.112793
9.712863,0.297581,-0.186812,10.093211,0.255281,0.479938,0.032224,-6.286621,0.427246,-6.378174
9.722957,0.100591,-0.406555,9.971065,0.058290,0.260195,-0.089922,-7.781982,0.335693,-6.866455
9.733052,0.132924,-0.486189,10.265652,0.090623,0.180561,0.204666,-3.173828,1.098633,-4.852295
9.743145,-0.397573,-0.590971,10.187814,-0.439874,0.075778,0.126828,-1.617432,0.579834,-2.960205
9.753247,0.243693,-0.152682,10.039922,0.201393,0.514067,-0.021065,0.396729,-0.946045,-2.288818
9.763341,0.471220,0.070054,9.963880,0.428920,0.736804,-0.097107,1.708984,-0.793457,-9.826660
9.773435,0.268841,-0.288001,9.857302,0.226540,0.378748,-0.203685,0.366211,-0.732422,-10.406494
9.783529,0.094603,-0.440085,10.247091,0.052303,0.226665,0.186104,-0.854492,0.152588,-9.857178
9.793651,0.606539,-0.504750,9.967473,0.564238,0.161999,-0.093514,-0.976562,-0.671387,-14.038086
9.803746,0.268242,-0.404160,10.048304,0.225942,0.262590,-0.012682,7.324219,-0.244141,-12.969971
9.813840,0.443079,-0.186213,10.148895,0.400778,0.480537,0.087908,5.310059,-0.579834,-13.275146
9.823933,0.525108,-0.370629,10.084828,0.482807,0.296120,0.023842,6.042480,1.068115,-13.824463
9.834027,0.435894,-0.125140,10.069860,0.393593,0.541610,0.008873,7.476807,2.471924,-11.901855
9.844121,0.352068,-0.295186,10.247091,0.309767,0.371563,0.186104,1.861572,1.739502,-12.847900
9.854216,0.329315,-0.303569,10.160870,0.287015,0.363181,0.099884,4.272461,1.892090,-13.580322
9.864310,0.365240,-0.030536,10.188413,0.322940,0.636213,0.127426,5.126953,1.953125,-14.007568
9.874419,0.330513,-0.270637,10.046508,0.288212,0.396112,-0.014479,4.058838,1.098633,-12.817383
9.884516,0.435894,-0.031734,9.881252,0.393593,0.635015,-0.179735,2.380371,0.549316,-11.260986
9.894636,0.296982,-0.255668,10.317744,0.254682,0.411081,0.256757,-8.422852,-1.373291,-10.192871
9.904731,0.545466,-0.070054,9.872869,0.503165,0.596695,-0.188118,-10.253906,-0.488281,-11.749268
9.914826,0.302371,0.243094,10.271640,0.260071,0.909844,0.210653,-7.720947,0.457764,-10.375977
9.924921,0.468226,-0.663420,10.370435,0.425926,0.003329,0.309448,-7.141113,0.335693,-10.711670
9.935012,0.430505,-0.309556,9.812395,0.388204,0.357193,-0.248592,-2.075195,-0.030518,-13.366699
9.945109,-0.060474,-0.080233,10.136321,-0.102775,0.586516,0.075335,5.920410,2.502441,-9.704590
9.955202,0.041314,-0.463436,10.173444,-0.000986,0.203313,0.112457,2.960205,1.495361,-9.277344
9.965300,0.271236,-0.541274,9.977053,0.228935,0.125475,-0.083934,4.577637,0.762939,-15.411377
9.975396,-0.127535,0.062271,10.283016,-0.169835,0.729020,0.222030,9.155273,0.640869,-15.014648
9.985492,-0.095801,-0.479004,10.101594,-0.138101,0.187746,0.040607,7.904053,0.732422,-14.099121
9.995629,-0.023950,-0.136516,10.113569,-0.066251,0.530233,0.052582,4.913330,0.152588,-11.566162
10.005725,0.145497,-0.097597,10.072853,0.103197,0.569152,0.011867,0.091553,-0.122070,-11.657715
10.015820,-0.014370,0.279619,10.335108,-0.056671,0.946368,0.274121,-2.807617,1.068115,-13.031006
10.025916,-1.007106,-0.808319,11.419453,-1.049406,-0.141570,1.358466,-6.927490,1.037598,-11.047363
10.036011,-0.573607,-0.369432,10.355466,-0.615908,0.297318,0.294479,-2.563477,1.525879,-9.765625
10.046106,-0.028141,-0.128134,10.645862,-0.070442,0.538616,0.584875,3.417969,0.122070,-6.011963
10.056201,0.028141,-0.519719,10.549462,-0.014159,0.147030,0.488475,-5.157471,-2.929688,-2.807617
10.066296,0.216749,0.656834,9.944720,0.174449,1.323584,-0.116267,2.868652,-0.885010,0.061035
10.076391,0.077838,0.503553,10.186617,0.035538,1.170302,0.125630,3.051758,-0.335693,3.936768
10.086485,-0.223934,-0.146695,10.139315,-0.266235,0.520055,0.078328,1.281738,0.244141,0.946045
10.096605,-0.010179,0.354463,10.244696,-0.052479,1.021212,0.183709,3.479004,-0.305176,0.915527
10.106700,-0.091609,-0.318538,10.015373,-0.133910,0.348212,-0.045614,0.762939,0.823975,1.922607
10.116796,-0.226329,-0.334704,10.120155,-0.268630,0.332046,0.059168,2.380371,0.640869,2.380371
10.126890,-0.100591,-0.354463,9.994417,-0.142891,0.312287,-0.066570,3.723145,-0.061035,5.859375
10.136986,-0.387993,-1.004112,10.315948,-0.430294,-0.337362,0.254961,-0.762939,0.152588,7.965088
10.147081,-0.297581,-0.620909,10.188413,-0.339882,0.045841,0.127426,4.638672,-0.305176,7.659912
10.157176,-0.226928,-0.132924,10.033336,-0.269229,0.533826,-0.027651,1.800537,0.305176,10.559082
10.167271,-0.204175,-0.104782,10.211765,-0.246476,0.561967,0.150778,-5.828857,1.098633,11.413574
10.177366,-0.177231,0.216151,10.100995,-0.219532,0.882900,0.040008,0.885010,-0.732422,7.354736
10.187462,-0.185015,-0.382604,10.332114,-0.227316,0.284145,0.271127,-3.082275,-1.953125,8.026123
10.197582,0.205972,-0.476010,9.802216,0.163671,0.190739,-0.258771,-1.800537,0.518799,8.453369
10.207677,0.230521,-0.492177,10.060280,0.188220,0.174573,-0.000707,-1.586914,-0.915527,12.634277
10.217773,0.359852,-0.276625,9.824969,0.317551,0.390125,-0.236018,-1.831055,-1.922607,11.383057
10.227869,0.184417,0.083227,10.619517,0.142116,0.749976,0.558530,-1.617432,-0.061035,12.420654
10.237963,0.073647,-0.659229,9.932146,0.031346,0.007520,-0.128841,-1.953125,0.457764,13.122559
10.248058,-0.070653,-0.619711,10.093810,-0.112954,0.047038,0.032823,-0.061035,-1.098633,14.465332
10.258154,-0.168849,-0.330513,10.041718,-0.211149,0.336237,-0.019269,4.089355,-1.251221,15.655518
10.268249,-0.139510,-0.680784,9.771081,-0.181810,-0.014035,-0.289906,7.324219,-0.091553,13.702393
10.278344,-0.088616,-0.510738,10.273436,-0.130916,0.156012,0.212449,-0.549316,-0.854492,13.916016
10.288438,-0.190404,-0.818498,9.860894,-0.232705,-0.151748,-0.200093,3.540039,-0.396729,8.636475
10.298562,-0.447869,-0.572410,10.494976,-0.490169,0.094340,0.433989,-0.732422,-0.579834,8.422852
10.308657,-0.128732,-0.773591,9.861493,-0.171033,-0.106842,-0.199494,-6.042480,-0.305176,5.737305
10.318752,0.061672,-0.203577,9.881851,0.019371,0.463173,-0.179136,-1.220703,-0.061035,0.610352
10.328846,-0.116757,-0.586181,9.915381,-0.159058,0.080568,-0.145606,-1.983643,-0.518799,-1.281738
10.338940,-0.135917,-0.783770,9.964479,-0.178218,-0.117021,-0.096508,2.288818,0.854492,-3.570557
10.349034,-0.062271,-1.137036,10.120754,-0.104571,-0.470286,0.059767,-0.854492,0.549316,-1.922607
10.359146,-0.002994,-1.062191,9.963880,-0.045294,-0.395442,-0.097107,0.640869,0.213623,-5.432129
10.369243,-0.054487,-1.043031,10.001602,-0.096787,-0.376282,-0.059385,-1.556396,0.701904,-5.920410
10.379339,-0.192200,-1.149011,10.396780,-0.234501,-0.482261,0.335793,1.647949,0.152588,-6.622314
10.389435,-0.002395,-1.027463,9.579479,-0.044696,-0.360714,-0.481507,-2.166748,0.183105,-7.080078
10.399562,-0.434696,-0.616718,10.505154,-0.476997,0.050032,0.444168,1.495361,0.640869,-4.364014
10.409657,0.180225,-1.481918,9.848919,0.137925,-0.815169,-0.212068,-11.352539,-0.976562,-5.096436
10.419752,0.407752,-0.935255,9.650132,0.365452,-0.268506,-0.410854,-6.256104,1.617432,-4.852295
10.429847,0.135917,-1.395698,9.757908,0.093617,-0.728948,-0.303078,5.859375,1.464844,-3.417969
10.439945,-0.038320,-0.934058,10.600356,-0.080621,-0.267308,0.539370,6.835938,1.922607,-2.960205
10.450042,0.154479,-1.229843,9.840536,0.112178,-0.563093,-0.220450,2.624512,0.183105,-3.906250
10.460137,0.603545,-0.889151,10.151290,0.561244,-0.222402,0.090303,5.065918,-0.457764,-7.202148
10.470232,0.189207,-1.441203,10.199191,0.146906,-0.774454,0.138204,2.777100,0.061035,-6.744385
10.480327,0.309556,-1.162183,9.918375,0.267256,-0.495434,-0.142612,0.030518,0.549316,-6.500244
10.490423,0.205373,-0.968785,10.165062,0.163072,-0.302036,0.104075,5.371094,1.434326,-5.798340
10.500613,0.053289,-1.347797,10.103390,0.010989,-0.681048,0.042403,4.364014,0.091553,-7.629395
10.510702,0.131726,-1.431024,10.065668,0.089426,-0.764275,0.004682,4.882812,0.518799,-8.880615
10.520792,0.119751,-1.105900,10.144704,0.077450,-0.439151,0.083717,4.516602,0.152588,-8.148193
10.530878,0.028141,-1.207090,10.058483,-0.014159,-0.540340,-0.002504,5.798340,-0.518799,-9.521484
10.540966,0.014370,-0.978365,9.871073,-0.027930,-0.311616,-0.189914,-0.854492,0.427246,-9.155273
10.551054,-0.166454,-1.163979,10.236912,-0.208754,-0.497230,0.175925,-8.300781,1.342773,-6.134033
10.561142,0.171244,-0.731678,9.880054,0.128943,-0.064929,-0.180932,-4.730225,0.549316,-5.065918
10.571227,0.179028,-1.118474,9.721384,0.136727,-0.451725,-0.339603,-6.256104,0.976562,-3.479004
10.581314,0.149689,-0.659229,10.184821,0.107388,0.007520,0.123834,0.946045,1.312256,-4.791260
10.591402,0.051493,-0.847837,10.062675,0.009192,-0.181087,0.001688,0.885010,0.671387,-6.042480
10.601521,0.131726,-0.704734,10.181827,0.089426,-0.037985,0.120840,0.244141,-0.213623,-6.866455
10.611610,0.091609,-0.792751,10.027947,0.049309,-0.126002,-0.033040,-1.129150,-1.251221,-7.598877
10.621696,0.349673,-1.027463,9.827364,0.307372,-0.360714,-0.233623,-8.850098,0.610352,-5.218506
10.631784,0.340692,-0.919687,9.871672,0.298391,-0.252938,-0.189315,-4.791260,2.258301,-1.983643
10.641872,0.385598,-0.535886,9.384285,0.343298,0.130864,-0.676702,5.859375,2.532959,1.556396
10.651959,0.196990,-0.610730,10.263257,0.154690,0.056020,0.202271,7.904053,3.143311,2.502441
10.662047,0.015568,-0.946033,10.073452,-0.026733,-0.279283,0.012465,4.760742,0.488281,0.122070
10.672135,0.014969,-0.759221,9.914183,-0.027332,-0.092472,-0.146803,5.157471,1.251221,-0.335693
10.682223,0.207768,-0.463436,10.246492,0.165467,0.203313,0.185505,5.432129,0.366211,-0.244141
10.692311,-0.037123,-0.501158,10.297985,-0.079423,0.165592,0.236998,2.319336,-0.640869,-3.448486
10.702526,0.099393,-0.620310,9.724378,0.057093,0.046439,-0.336609,-1.525879,-0.915527,-5.493164
10.712621,-0.204175,-0.702339,10.336306,-0.246476,-0.035590,0.275319,-0.244141,-1.190186,-5.737305
10.722717,0.041314,-0.649050,10.121951,-0.000986,0.017699,0.060964,-1.251221,-0.122070,-4.913330
10.732811,0.126337,-0.632884,10.284214,0.084037,0.033866,0.223227,-0.030518,-0.549316,-6.164551
10.742906,0.110770,-0.326321,10.115964,0.068469,0.340428,0.054977,0.854492,-0.061035,-6.561279
10.753001,0.065863,-0.722098,10.157877,0.023563,-0.055349,0.096890,3.051758,-1.281738,-4.180908
10.763095,0.252675,-0.545466,10.197394,0.210374,0.121284,0.136408,0.946045,-1.647949,-2.899170
10.773190,0.548459,-0.622106,10.200987,0.506159,0.044643,0.140000,-7.537842,-2.868652,-1.617432
10.783284,-0.037722,-0.354463,10.330917,-0.080022,0.312287,0.269930,-1.770020,0.732422,4.943848
10.793378,0.074246,-0.827479,9.900412,0.031945,-0.160730,-0.160575,-6.866455,0.946045,6.134033
10.803499,0.088616,-0.126936,10.274035,0.046315,0.539813,0.213048,6.317139,1.037598,4.272461
10.813596,-0.133522,-0.645458,9.690249,-0.175823,0.021292,-0.370738,6.042480,2.075195,4.577637
10.823691,-0.086221,-0.379012,10.248887,-0.128521,0.287738,0.187901,4.089355,1.281738,3.784180
10.833785,-0.020956,-0.123344,10.253079,-0.063257,0.543406,0.192092,2.166748,0.885010,3.295898
10.843879,-0.201780,-0.539478,10.001602,-0.244081,0.127271,-0.059385,-3.601074,0.061035,4.394531
10.853973,-0.208965,-0.372426,10.285411,-0.251266,0.294324,0.224425,-7.476807,-0.915527,5.157471
10.864068,-0.077239,-0.952020,10.160870,-0.119540,-0.285271,0.099884,-13.397217,-1.373291,4.913330
10.874164,0.055684,-0.588576,10.099199,0.013384,0.078173,0.038212,-6.072998,-0.946045,4.241943
10.884255,0.045505,-0.693957,9.810000,0.003205,-0.027207,-0.250987,-2.838135,-1.159668,3.509521
10.894349,-0.196392,-0.549058,9.779464,-0.238692,0.117691,-0.281523,7.141113,-0.213623,-0.610352
10.904470,0.024549,-0.792153,9.979448,-0.017752,-0.125403,-0.081539,-1.617432,0.274658,2.624512
10.914565,0.079036,-1.163381,9.969269,0.036735,-0.496631,-0.091718,5.432129,0.701904,0.579834
10.924659,0.188009,-0.241897,9.715995,0.145708,0.424853,-0.344991,6.988525,1.403809,-3.417969
10.934754,-0.237107,-0.692161,10.311757,-0.279407,-0.025411,0.250770,10.437012,0.305176,-2.410889
10.944849,0.193997,-1.006507,9.844728,0.151696,-0.339757,-0.216259,2.105713,-0.610352,-5.920410
10.954941,0.079634,-0.163460,10.416539,0.037334,0.503289,0.355552,1.373291,-0.610352,-4.821777
10.965038,0.216749,-1.097518,10.122550,0.174449,-0.430768,0.061563,-6.530762,0.518799,-6.958008
10.975134,0.202978,-0.681982,10.078841,0.160677,-0.015232,0.017854,1.525879,2.258301,-4.302979
10.985234,0.510738,-0.696352,9.906998,0.468437,-0.029602,-0.153989,9.338379,1.831055,-3.601074
10.995330,0.435295,-1.058599,9.874666,0.392994,-0.391849,-0.186321,8.575439,1.739502,-5.493164
11.005524,0.536484,-0.792751,9.934541,0.494184,-0.126002,-0.126446,10.192871,1.739502,-5.584717
11.015613,0.326321,-0.778980,10.316547,0.284021,-0.112231,0.255560,6.011963,0.579834,-1.037598
11.025701,0.428708,-1.034648,10.201586,0.386408,-0.367899,0.140599,2.288818,0.396729,0.396729
11.035789,0.547861,-1.206491,9.877061,0.505560,-0.539742,-0.183926,-8.087158,0.091553,6.713867
11.045877,0.502355,-0.698747,10.364447,0.460055,-0.031997,0.303460,-2.532959,0.701904,7.781982
11.055964,0.625699,-0.764610,10.150093,0.583398,-0.097860,0.089106,-5.096436,1.190186,9.277344
11.066051,0.171843,-0.779579,9.994417,0.129542,-0.112829,-0.066570,0.274658,0.671387,10.894775
11.076139,0.041913,-0.650248,10.021360,-0.000388,0.016502,-0.039626,-0.152588,-0.457764,13.153076
11.086226,0.219743,-0.718506,9.910591,0.177443,-0.051756,-0.150396,-2.807617,-1.342773,10.375977
11.096313,0.317939,-0.546064,9.995614,0.275638,0.120685,-0.065373,-0.915527,-0.915527,9.399414
11.106473,0.114362,-1.110690,10.107581,0.072062,-0.443941,0.046594,-0.732422,0.274658,11.230469
11.116568,0.089214,-0.771795,9.929751,0.046914,-0.105046,-0.131236,0.946045,0.701904,10.131836
11.126662,-0.019759,-0.525707,10.050699,-0.062059,0.141043,-0.010287,4.333496,1.037598,7.263184
11.136756,-0.055085,-1.144819,10.087822,-0.097386,-0.478070,0.026835,5.310059,0.823975,5.462646
11.146852,0.094005,-0.952020,10.272239,0.051704,-0.285271,0.211252,5.737305,1.373291,3.753662
11.156946,0.035327,-0.871787,10.206974,-0.006974,-0.205038,0.145988,4.486084,1.464844,0.061035
11.167040,-0.047900,-0.605940,10.393786,-0.090201,0.060810,0.332799,2.899170,1.922607,-1.831055
11.177135,0.190404,-0.967588,9.947714,0.148104,-0.300838,-0.113273,3.051758,0.671387,-1.617432
11.187229,0.285007,-1.033451,10.092014,0.242707,-0.366701,0.031027,-3.173828,0.427246,-2.502441
11.197324,0.299377,-0.665217,9.653725,0.257077,0.001533,-0.407262,-2.899170,-0.366211,-1.708984
11.207448,0.353265,-1.318458,10.020163,0.310965,-0.651709,-0.040824,-8.850098,-1.312256,-0.762939
11.217542,0.252076,-1.260978,9.889036,0.209775,-0.594228,-0.171951,-1.770020,0.030518,-3.509521
11.227637,0.160466,-1.072969,10.097402,0.118166,-0.406219,0.036416,-1.495361,1.129150,-3.173828
11.237731,0.331710,-0.907114,9.921967,0.289410,-0.240364,-0.139020,1.708984,1.068115,-4.241943
11.247826,0.185015,-1.381328,10.003398,0.142715,-0.714578,-0.057589,-0.335693,0.671387,-6.011963
11.257920,0.338895,-0.832868,10.028546,0.296595,-0.166119,-0.032441,2.929688,0.091553,-6.591797
11.268014,0.082029,-1.046624,10.031539,0.039729,-0.379874,-0.029448,0.152588,1.281738,-8.209229
11.278108,0.082628,-0.943039,9.872869,0.040328,-0.276289,-0.188118,2.014160,2.044678,-6.500244
11.288202,0.156275,-0.863405,10.066866,0.113974,-0.196655,0.005879,5.004883,1.373291,-4.913330
11.298299,0.266446,-0.453856,9.938134,0.224145,0.212893,-0.122853,3.631592,1.312256,-7.537842
11.308424,0.046703,-0.731080,10.238708,0.004402,-0.064330,0.177722,5.249023,-0.244141,-10.009766
11.318519,0.213157,-0.686173,10.169253,0.170856,-0.019424,0.108266,4.180908,-1.342773,-11.108398
11.328613,0.210163,-0.382604,9.753717,0.167862,0.284145,-0.307270,0.213623,-0.457764,-8.483887
11.338708,0.132325,-0.951422,10.028546,0.090024,-0.284672,-0.032441,-1.007080,-1.037598,-5.096436
11.348802,0.410746,-0.775388,10.011182,0.368445,-0.108638,-0.049805,-2.960205,-0.427246,-5.737305
11.358896,0.586181,-0.495170,10.012978,0.543880,0.171579,-0.048009,-0.732422,1.495361,-4.547119
11.369037,0.134720,-0.434097,9.902208,0.092419,0.232652,-0.158779,-0.335693,-0.305176,-4.119873
11.379132,0.028740,-0.795745,9.980645,-0.013560,-0.128996,-0.080342,0.671387,0.915527,-4.608154
11.389260,0.139510,-0.223934,10.108779,0.097209,0.442815,0.047792,0.610352,2.258301,-2.166748
11.399356,0.056882,-0.484991,10.002799,0.014581,0.181758,-0.058188,0.244141,1.159668,-2.593994
11.409480,-0.035327,-0.534688,9.874666,-0.077627,0.132061,-0.186321,-2.532959,0.518799,-5.767822
11.419576,0.004191,0.090412,9.987830,-0.038109,0.757161,-0.073157,-3.601074,-0.061035,-4.272461
11.429671,-0.472418,-1.160387,9.817784,-0.514718,-0.493637,-0.243203,-2.136230,1.220703,-0.274658
11.439766,-0.004191,-0.963995,9.987231,-0.046492,-0.297246,-0.073755,-4.241943,0.274658,-1.892090
11.449860,0.178429,-0.532293,9.975256,0.136128,0.134456,-0.085730,-2.075195,-0.061035,-4.760742
11.459956,0.007185,-0.501757,10.056088,-0.035115,0.164993,-0.004899,-1.190186,0.000000,-6.011963
11.470052,-0.014969,-0.773591,10.188413,-0.057269,-0.106842,0.127426,0.732422,1.129150,-7.537842
11.480145,-0.016765,-0.844843,9.938732,-0.059066,-0.178094,-0.122255,0.793457,2.136230,-12.268066
11.490241,0.265248,-0.654439,10.165660,0.222948,0.012310,0.104674,3.021240,2.258301,-14.007568
11.500335,0.172441,-0.901126,10.018367,0.130141,-0.234377,-0.042620,1.770020,0.183105,-16.693115
11.510455,-0.075443,-1.251996,10.180031,-0.117744,-0.585247,0.119044,0.000000,-0.640869,-17.272949
11.520549,-0.104183,-1.083746,10.215956,-0.146484,-0.416997,0.154969,-4.516602,-1.251221,-16.143799
11.530643,0.135319,-0.481998,10.086026,0.093018,0.184752,0.025039,-4.608154,-1.129150,-15.808105
11.540735,-0.015568,-1.037043,9.786050,-0.057868,-0.370294,-0.274937,-6.042480,-0.854492,-15.533447
11.550830,0.098196,-0.860411,9.970466,0.055895,-0.193661,-0.090521,-6.866455,-1.861572,-12.145996
11.560925,0.198188,-0.846639,9.982441,0.155887,-0.179890,-0.078545,-4.882812,-1.129150,-12.451172
11.571018,0.316143,-0.435894,10.015972,0.273842,0.230856,-0.045015,0.701904,-0.213623,-9.338379
11.581112,-0.162263,-0.386197,10.172247,-0.204563,0.280553,0.111260,6.896973,0.457764,-6.835938
11.591207,-0.107776,-0.895737,10.066866,-0.150076,-0.228988,0.005879,6.713867,1.586914,-2.868652
11.601302,0.275427,0.192799,10.178234,0.233127,0.859549,0.117247,10.467529,1.739502,0.396729
11.611429,0.006586,-0.484393,10.463242,-0.035714,0.182357,0.402255,8.026123,1.068115,1.739502
11.621524,-0.301772,-0.116158,10.424323,-0.344073,0.550591,0.363336,4.119873,1.281738,-0.640869
11.631619,0.159868,0.043709,10.359058,0.117567,0.710459,0.298071,8.117676,0.061035,1.556396
11.641714,0.238304,-0.734672,10.462044,0.196004,-0.067923,0.401057,-6.195068,-0.030518,-0.274658
11.651808,0.238304,-0.356858,10.028546,0.196004,0.309892,-0.032441,-7.171631,-0.213623,0.122070
11.661900,0.068857,-0.495769,10.115964,0.026556,0.170980,0.054977,-6.439209,-0.732422,4.211426
11.671995,0.168849,-0.531096,10.260862,0.126548,0.135654,0.199876,-4.791260,0.030518,5.767822
11.682090,0.220342,-0.759820,10.172247,0.178041,-0.093070,0.111260,-0.640869,0.274658,5.523682
11.692184,0.432301,-0.396974,9.968670,0.390000,0.269775,-0.092317,0.122070,0.335693,5.004883
11.702280,0.501757,-0.539478,9.940529,0.459456,0.127271,-0.120458,0.274658,0.701904,5.340576
11.712402,0.150886,-0.610730,9.865085,0.108586,0.056020,-0.195901,2.227783,0.213623,2.746582
11.722497,0.110171,-0.402962,10.150093,0.067870,0.263787,0.089106,4.211426,0.457764,2.288818
11.732592,0.202379,-0.179028,10.074051,0.160079,0.487722,0.013064,2.838135,1.708984,4.791260
11.742686,0.044308,-0.526904,9.709409,0.002007,0.139845,-0.351578,-1.983643,1.129150,5.218506
11.752812,-0.201182,-0.387394,10.468630,-0.243482,0.279355,0.407644,4.638672,1.281738,3.784180
11.762907,-0.083826,-0.223336,9.998009,-0.126126,0.443414,-0.062978,4.974365,1.373291,4.455566
11.773002,-0.351469,-0.608335,10.376422,-0.393770,0.058415,0.315435,4.486084,-0.091553,2.960205
11.783097,-0.046104,-0.783770,9.793834,-0.088405,-0.117021,-0.267153,-5.981445,-0.396729,3.173828
11.793193,-0.118553,-0.479004,10.157877,-0.160854,0.187746,0.096890,0.274658,1.220703,3.295898
11.803288,-0.041314,-0.657433,10.335707,-0.083615,0.009317,0.274720,-0.732422,1.007080,1.617432
11.813407,-0.030536,-0.649649,10.104587,-0.072837,0.017100,0.043601,-1.800537,0.183105,-1.037598
11.823501,0.158670,-0.872985,10.145901,0.116370,-0.206235,0.084915,-4.882812,-0.701904,-1.983643
11.833596,0.235909,-0.345482,10.115365,0.193609,0.321268,0.054378,1.495361,0.061035,-3.479004
11.843691,0.057480,-0.550256,10.141111,0.015180,0.116494,0.080125,-1.922607,0.183105,-2.624512
11.853785,-0.094005,-0.349673,10.108779,-0.136305,0.317077,0.047792,1.617432,1.556396,-4.272461
11.863879,-0.127535,-0.619711,9.842333,-0.169835,0.047038,-0.218654,-0.488281,1.220703,-6.072998
11.873971,-0.236508,-0.721500,9.989626,-0.278809,-0.054750,-0.071360,-0.152588,1.129150,-13.977051
11.884065,-0.364043,-0.862806,10.088421,-0.406344,-0.196056,0.027434,3.051758,0.823975,-15.930176
11.894161,0.059277,-0.943638,10.144105,0.016976,-0.276888,0.083118,3.295898,0.885010,-18.951416
11.904256,-0.456251,-0.847837,9.972861,-0.498552,-0.181087,-0.088125,1.464844,1.464844,-19.287109
11.914374,-0.085622,-1.257984,10.157877,-0.127922,-0.591235,0.096890,-0.732422,2.166748,-18.493652
11.924469,0.101190,-1.384321,10.111772,0.058889,-0.717572,0.050786,-0.915527,1.525879,-17.456055
11.934564,0.289797,-1.603466,10.035731,0.247497,-0.936716,-0.025256,1.556396,0.854492,-17.150879
11.944659,0.236508,-0.856818,9.878857,0.194208,-0.190069,-0.182130,-1.220703,1.312256,-13.214111
11.954750,0.189207,-0.574206,10.087224,0.146906,0.092544,0.026237,2.685547,1.708984,-12.481689
11.964847,0.082628,-1.104703,10.219548,0.040328,-0.437953,0.158562,-7.415771,0.457764,-14.251709
11.974942,-0.022753,-0.608934,10.066267,-0.065053,0.057816,0.005280,-3.753662,1.770020,-12.664795
11.985038,0.193398,-0.971180,10.013577,0.151097,-0.304431,-0.047410,3.479004,1.678467,-8.087158
11.995132,0.082029,-0.905916,10.306967,0.039729,-0.239167,0.245980,-1.007080,0.946045,-6.256104
12.005314,0.255070,-0.902324,10.093211,0.212769,-0.235574,0.032224,-4.882812,-0.488281,-5.340576
12.015439,0.115560,-0.388592,10.094409,0.073259,0.278158,0.033422,2.593994,1.159668,-6.927490
12.025532,-0.069456,-0.675396,9.950707,-0.111756,-0.008646,-0.110279,3.814697,1.983643,-3.753662
12.035627,-0.044907,-0.599952,10.183024,-0.087207,0.066797,0.122037,5.249023,0.396729,-5.004883
12.045722,-0.172441,-0.741259,10.011182,-0.214742,-0.074509,-0.049805,1.159668,0.213623,-5.737305
12.055817,-0.280816,-0.512534,9.950707,-0.323117,0.154215,-0.110279,-1.159668,1.129150,-5.737305
12.065912,-0.325723,-0.611927,9.924362,-0.368023,0.054822,-0.136625,-4.089355,0.061035,-6.896973
12.076007,-0.356858,-0.759221,9.902807,-0.399158,-0.092472,-0.158180,-5.035400,1.251221,-8.361816
12.086102,-0.262255,-0.684377,9.756112,-0.304555,-0.017627,-0.304875,-0.518799,1.708984,-6.225586
12.096196,-0.243094,-0.551453,10.093810,-0.285395,0.115296,0.032823,3.295898,2.044678,-4.577637
12.106292,-0.326321,-0.706531,10.232721,-0.368622,-0.039781,0.171734,3.479004,0.488281,-5.340576
12.116411,-0.099992,-0.843646,10.012379,-0.142293,-0.176896,-0.048608,1.068115,-0.244141,-6.042480
12.126505,0.015568,-1.071771,10.121353,-0.026733,-0.405022,0.060366,-1.770020,-0.640869,-6.195068
12.136599,0.000000,-1.106499,9.971065,-0.042301,-0.439750,-0.089922,-2.441406,-0.427246,-3.906250
12.146694,0.007784,-0.688568,10.264455,-0.034517,-0.021819,0.203468,-3.509521,0.061035,0.030518
12.156820,-0.001198,-0.584385,9.874067,-0.043498,0.082365,-0.186920,-1.037598,0.518799,-0.335693
12.166915,-0.061073,-0.644260,10.148895,-0.103374,0.022489,0.087908,2.288818,1.312256,1.220703
12.177009,0.081431,-0.726888,10.136920,0.039130,-0.060139,0.075933,7.019043,1.159668,1.281738
12.187104,0.053289,-0.762215,10.021360,0.010989,-0.095465,-0.039626,6.958008,0.610352,-0.946045
12.197198,0.021555,-0.617316,10.093211,-0.020745,0.049433,0.032224,3.814697,0.427246,-1.708984
12.207292,0.074246,-0.738864,10.115365,0.031945,-0.072114,0.054378,-0.396729,0.152588,-0.976562
12.217414,0.091011,-0.781375,10.047706,0.048710,-0.114626,-0.013281,-4.272461,0.000000,-1.739502
12.227509,0.174238,-0.662822,10.099199,0.131937,0.003928,0.038212,-4.943848,0.152588,-1.007080
12.237604,0.032932,-0.625699,10.203382,-0.009369,0.041051,0.142395,-6.103516,0.091553,-0.885010
12.247699,0.077838,-0.976569,10.082433,0.035538,-0.309820,0.021447,-3.601074,0.915527,0.396729
12.257794,0.229922,-0.830473,10.089020,0.187621,-0.163724,0.028033,0.640869,1.220703,1.983643
12.267888,-0.159269,-0.919089,10.048903,-0.201569,-0.252339,-0.012084,2.502441,0.122070,1.251221
12.277983,-0.121547,-0.931064,10.141111,-0.163848,-0.264314,0.080125,3.967285,-0.549316,-0.396729
12.288077,-0.022753,-0.865800,10.065668,-0.065053,-0.199050,0.004682,3.234863,-1.068115,-1.800537
12.298172,-0.012574,-0.897534,9.921368,-0.054874,-0.230784,-0.139618,0.518799,-1.464844,-1.007080
12.308266,0.017963,-0.802930,10.077643,-0.024338,-0.136181,0.016657,1.556396,-1.007080,-1.037598
12.318385,-0.093406,-0.447270,9.904005,-0.135706,0.219480,-0.156982,-0.885010,0.427246,1.708984
12.328481,-0.239502,-0.492775,10.326725,-0.281802,0.173974,0.265739,-0.946045,-0.274658,2.288818
12.338574,-0.158670,-0.245490,10.218351,-0.200971,0.421260,0.157364,-2.166748,0.000000,-0.823975
12.348670,-0.262255,-0.626896,9.966275,-0.304555,0.039853,-0.094712,-4.760742,0.793457,-1.556396
12.358764,-0.438887,-1.046025,9.848320,-0.481188,-0.379275,-0.212667,-4.058838,0.335693,-0.274658
12.368862,0.033530,-1.072969,9.838141,-0.008770,-0.406219,-0.222845,-3.509521,0.518799,0.152588
12.378958,0.096400,-0.644859,10.026749,0.054099,0.021890,-0.034238,0.701904,-0.335693,2.929688
12.389053,0.082029,-1.603466,10.099199,0.039729,-0.936716,0.038212,-5.401611,-1.495361,3.997803
12.399148,0.093406,-1.310674,9.751921,0.051105,-0.643925,-0.309066,-4.089355,-0.457764,4.028320
12.409243,-0.023950,-1.715433,9.855505,-0.066251,-1.048683,-0.205481,-4.364014,-1.800537,6.744385
12.419367,-0.108973,-1.421444,9.972263,-0.151274,-0.754695,-0.088724,0.122070,-1.159668,6.347656
12.429462,-0.217348,-1.390309,9.788445,-0.259649,-0.723559,-0.272542,4.852295,1.373291,8.300781
12.439557,-0.324525,-1.171165,10.286010,-0.366826,-0.504415,0.225023,8.880615,1.434326,9.643555
12.449652,-0.282612,-1.831591,10.124346,-0.324913,-1.164842,0.063359,8.148193,-0.152588,7.141113
12.459748,-0.224533,-1.300496,10.060878,-0.266834,-0.633746,-0.000109,7.354736,-0.549316,5.187988
12.469843,0.283810,-0.877176,10.074650,0.241509,-0.210426,0.013663,9.002686,0.030518,3.692627
12.479938,-0.062869,-1.313069,10.112371,-0.105170,-0.646320,0.051384,7.965088,0.091553,2.655029
12.490033,0.180824,-1.355581,10.047706,0.138523,-0.688832,-0.013281,6.103516,-0.183105,2.227783
12.500128,0.210762,-1.320255,9.996812,0.168461,-0.653505,-0.064175,3.112793,-0.579834,3.692627
12.510223,0.285007,-1.080154,9.960287,0.242707,-0.413404,-0.100699,3.631592,-0.274658,5.432129
12.520343,0.404160,-1.068777,9.929751,0.361859,-0.402028,-0.131236,2.624512,-0.457764,8.056641
12.530439,0.210163,-0.827479,10.166858,0.167862,-0.160730,0.105871,-0.640869,-1.586914,8.819580
12.540535,0.173040,-0.762215,9.748328,0.130740,-0.095465,-0.312659,-4.302979,-1.922607,9.063721
12.550630,0.161065,-0.827479,10.041718,0.118765,-0.160730,-0.019269,-3.936768,-0.640869,9.399414
12.560726,0.135319,-0.738265,10.242301,0.093018,-0.071515,0.181314,-7.965088,-1.403809,7.934570
12.570817,-0.292791,-0.553848,10.132729,-0.335092,0.112901,0.071742,-4.241943,-0.396729,8.270264
12.580913,-0.052690,-0.826880,10.003398,-0.094991,-0.160131,-0.057589,-2.288818,-0.030518,9.063721
12.591010,0.319735,-0.718506,10.394984,0.277435,-0.051756,0.333997,0.915527,-0.488281,7.690430
12.601105,0.059277,-0.828078,10.166858,0.016976,-0.161329,0.105871,-0.976562,-0.762939,6.530762
12.611200,0.137714,-0.665217,10.080038,0.095413,0.001533,0.019052,-4.302979,-0.671387,5.432129
12.621320,0.474214,-0.999921,9.577084,0.431913,-0.333171,-0.483902,-1.556396,0.305176,5.950928
