time,ax_raw,ay_raw,az_raw,ax,ay,az,gx,gy,gz
0.000777,-0.156874,-0.173639,10.083032,-0.005563,0.000347,0.002411,-0.030518,0.061035,-0.061035
0.010843,-0.155078,-0.170046,10.083631,-0.003767,0.003940,0.003010,-0.030518,0.030518,-0.061035
0.020911,-0.157473,-0.176034,10.085427,-0.006162,-0.002048,0.004807,-0.030518,0.030518,-0.030518
0.030977,-0.152682,-0.173040,10.089619,-0.001372,0.000946,0.008998,0.000000,0.000000,-0.030518
0.041044,-0.150287,-0.162263,10.092612,0.001023,0.011724,0.011992,0.030518,0.000000,0.030518
0.051112,-0.151485,-0.170645,10.095007,-0.000174,0.003341,0.014387,0.061035,0.000000,0.000000
0.061178,-0.149689,-0.170645,10.087224,0.001622,0.003341,0.006603,0.061035,-0.030518,0.000000
0.071244,-0.146096,-0.167053,10.077045,0.005214,0.006934,-0.003576,0.061035,0.000000,0.000000
0.081312,-0.151485,-0.167053,10.071656,-0.000174,0.006934,-0.008965,0.061035,0.030518,-0.030518
0.091378,-0.144300,-0.167053,10.080038,0.007011,0.006934,-0.000582,0.000000,0.030518,-0.030518
0.101444,-0.142504,-0.173040,10.078841,0.008807,0.000946,-0.001780,0.000000,0.030518,-0.030518
0.111521,-0.144899,-0.171843,10.075847,0.006412,0.002144,-0.004774,0.000000,0.061035,0.000000
0.121589,-0.142504,-0.178429,10.063872,0.008807,-0.004443,-0.016749,0.000000,0.061035,0.000000
0.131655,-0.144899,-0.176034,10.067465,0.006412,-0.002048,-0.013156,0.030518,0.030518,0.000000
0.141722,-0.142504,-0.176633,10.068662,0.008807,-0.002646,-0.011959,0.030518,0.030518,0.000000
0.151787,-0.147892,-0.180824,10.072255,0.003418,-0.006838,-0.008366,0.000000,0.030518,0.000000
0.161854,-0.148491,-0.171843,10.078841,0.002819,0.002144,-0.001780,0.030518,0.030518,0.030518
0.171921,-0.146096,-0.170645,10.071656,0.005214,0.003341,-0.008965,0.030518,0.030518,0.030518
0.181988,-0.146695,-0.171244,10.072853,0.004616,0.002742,-0.007767,0.000000,0.030518,0.000000
0.192055,-0.152682,-0.166454,10.077045,-0.001372,0.007532,-0.003576,0.000000,0.030518,0.000000
0.202121,-0.152682,-0.173040,10.078242,-0.001372,0.000946,-0.002379,-0.030518,0.030518,-0.030518
0.212187,-0.150287,-0.172441,10.075248,0.001023,0.001545,-0.005372,-0.030518,0.061035,-0.061035
0.222254,-0.148491,-0.174836,10.073452,0.002819,-0.000850,-0.007169,-0.030518,0.030518,-0.030518
0.232320,-0.146096,-0.176633,10.081236,0.005214,-0.002646,0.000615,-0.030518,0.061035,-0.030518
0.242386,-0.149090,-0.183219,10.084230,0.002221,-0.009233,0.003609,-0.030518,0.030518,-0.030518
0.252454,-0.151485,-0.176034,10.079440,-0.000174,-0.002048,-0.001181,0.000000,0.030518,0.000000
0.262522,-0.155078,-0.175435,10.077045,-0.003767,-0.001449,-0.003576,-0.030518,0.061035,-0.030518
0.272589,-0.154479,-0.174238,10.074650,-0.003168,-0.000251,-0.005971,-0.061035,0.061035,0.000000
0.282654,-0.153880,-0.169448,10.071656,-0.002569,0.004539,-0.008965,-0.061035,0.061035,0.030518
0.292720,-0.153880,-0.165256,10.078242,-0.002569,0.008730,-0.002379,-0.030518,0.061035,0.000000
0.302785,-0.161664,-0.164059,10.072853,-0.010353,0.009927,-0.007767,-0.030518,0.000000,0.000000
0.312851,-0.161664,-0.171843,10.074051,-0.010353,0.002144,-0.006570,-0.061035,0.000000,0.000000
0.322917,-0.155078,-0.173639,10.071057,-0.003767,0.000347,-0.009564,-0.030518,0.030518,0.000000
0.332983,-0.144300,-0.173040,10.075248,0.007011,0.000946,-0.005372,-0.030518,0.030518,0.000000
0.343049,-0.150886,-0.169448,10.081835,0.000424,0.004539,0.001214,0.000000,0.000000,0.000000
0.353115,-0.149090,-0.177830,10.075248,0.002221,-0.003844,-0.005372,0.000000,0.030518,0.030518
0.363180,-0.146695,-0.179626,10.080038,0.004616,-0.005640,-0.000582,0.030518,0.000000,0.000000
0.373248,-0.144899,-0.176633,10.074051,0.006412,-0.002646,-0.006570,0.030518,0.030518,-0.030518
0.383314,-0.145497,-0.174836,10.077045,0.005813,-0.000850,-0.003576,0.061035,0.030518,-0.030518
0.393380,-0.149090,-0.174836,10.081236,0.002221,-0.000850,0.000615,0.061035,0.030518,-0.030518
0.403445,-0.149090,-0.174238,10.084828,0.002221,-0.000251,0.004208,0.061035,0.000000,-0.030518
0.413511,-0.146096,-0.173639,10.078242,0.005214,0.000347,-0.002379,0.030518,0.000000,0.000000
0.423577,-0.155676,-0.176034,10.077045,-0.004366,-0.002048,-0.003576,-0.030518,0.030518,0.000000
0.433644,-0.156874,-0.171843,10.083032,-0.005563,0.002144,0.002411,0.000000,0.030518,-0.030518
0.443711,-0.155078,-0.165855,10.090816,-0.003767,0.008131,0.010195,0.000000,0.000000,-0.030518
0.453777,-0.159269,-0.170645,10.089619,-0.007958,0.003341,0.008998,0.000000,0.030518,-0.030518
0.463843,-0.155676,-0.173040,10.086625,-0.004366,0.000946,0.006004,-0.030518,0.030518,-0.030518
0.473909,-0.161065,-0.173040,10.077045,-0.009754,0.000946,-0.003576,-0.030518,0.030518,-0.030518
0.483976,-0.155078,-0.177231,10.076446,-0.003767,-0.003245,-0.004175,-0.030518,0.030518,-0.030518
0.494043,-0.148491,-0.169448,10.088421,0.002819,0.004539,0.007800,-0.030518,0.030518,0.000000
0.504109,-0.148491,-0.171843,10.081835,0.002819,0.002144,0.001214,-0.030518,0.061035,-0.030518
0.514176,-0.146096,-0.171843,10.084828,0.005214,0.002144,0.004208,0.000000,0.030518,-0.030518
0.524243,-0.150287,-0.176034,10.082433,0.001023,-0.002048,0.001813,0.000000,0.030518,-0.061035
0.534309,-0.148491,-0.178429,10.083631,0.002819,-0.004443,0.003010,0.000000,0.030518,-0.030518
0.544373,-0.152682,-0.181423,10.088421,-0.001372,-0.007437,0.007800,-0.030518,0.061035,0.000000
0.554438,-0.149090,-0.177830,10.088421,0.002221,-0.003844,0.007800,0.000000,0.061035,0.000000
0.564504,-0.143102,-0.181423,10.080637,0.008208,-0.007437,0.000016,-0.030518,0.030518,-0.030518
0.574569,-0.140707,-0.174238,10.078841,0.010603,-0.000251,-0.001780,-0.061035,0.000000,0.030518
0.584673,-0.139510,-0.173639,10.085427,0.011801,0.000347,0.004807,0.000000,0.000000,0.000000
0.594738,-0.137714,-0.174238,10.086625,0.013597,-0.000251,0.006004,0.000000,0.000000,0.000000
0.604803,-0.137714,-0.169448,10.083631,0.013597,0.004539,0.003010,0.000000,0.030518,0.030518
0.614875,-0.137115,-0.171244,10.071656,0.014196,0.002742,-0.008965,0.030518,0.030518,0.030518
0.624941,-0.140707,-0.167651,10.074650,0.010603,0.006335,-0.005971,0.000000,0.030518,0.000000
0.635007,-0.139510,-0.172441,10.077643,0.011801,0.001545,-0.002977,0.000000,0.030518,0.000000
0.645073,-0.144899,-0.170046,10.079440,0.006412,0.003940,-0.001181,0.000000,0.030518,0.030518
0.655138,-0.141306,-0.175435,10.084230,0.010004,-0.001449,0.003609,0.000000,0.030518,0.000000
0.665204,-0.140707,-0.173639,10.083631,0.010603,0.000347,0.003010,-0.030518,0.000000,0.030518
0.675268,-0.144899,-0.174836,10.081835,0.006412,-0.000850,0.001214,-0.030518,0.061035,0.030518
0.685333,-0.155078,-0.173040,10.092612,-0.003767,0.000946,0.011992,-0.030518,0.030518,0.030518
0.695398,-0.152682,-0.178429,10.095606,-0.001372,-0.004443,0.014985,0.000000,0.030518,0.030518
0.705463,-0.153880,-0.182620,10.079440,-0.002569,-0.008634,-0.001181,0.000000,0.030518,0.030518
0.715528,-0.156874,-0.181423,10.077045,-0.005563,-0.007437,-0.003576,-0.030518,0.030518,0.030518
0.725594,-0.159868,-0.177231,10.072255,-0.008557,-0.003245,-0.008366,0.030518,0.061035,0.000000
0.735666,-0.162861,-0.177830,10.070458,-0.011551,-0.003844,-0.010162,0.000000,0.030518,0.000000
0.745732,-0.155078,-0.177231,10.076446,-0.003767,-0.003245,-0.004175,0.000000,0.030518,0.000000
0.755797,-0.152084,-0.172441,10.075248,-0.000773,0.001545,-0.005372,-0.030518,0.061035,0.030518
0.765903,-0.152084,-0.176633,10.078841,-0.000773,-0.002646,-0.001780,-0.030518,0.061035,-0.061035
0.775969,-0.157473,-0.180824,10.080637,-0.006162,-0.006838,0.000016,-0.030518,0.030518,-0.030518
0.786036,-0.153281,-0.174238,10.090816,-0.001971,-0.000251,0.010195,-0.030518,0.000000,0.000000
0.796102,-0.154479,-0.165855,10.094409,-0.003168,0.008131,0.013788,-0.061035,-0.030518,0.030518
0.806168,-0.156275,-0.168849,10.092612,-0.004964,0.005137,0.011992,0.000000,-0.030518,0.030518
0.816232,-0.153880,-0.174238,10.083631,-0.002569,-0.000251,0.003010,-0.030518,-0.030518,0.030518
0.826298,-0.149689,-0.172441,10.081236,0.001622,0.001545,0.000615,0.000000,-0.030518,0.000000
0.836363,-0.150886,-0.176633,10.081835,0.000424,-0.002646,0.001214,0.000000,0.030518,-0.030518
0.846429,-0.152084,-0.172441,10.087822,-0.000773,0.001545,0.007202,0.000000,0.030518,0.000000
0.856502,-0.155078,-0.171843,10.087224,-0.003767,0.002144,0.006603,0.030518,0.000000,0.000000
0.866575,-0.146096,-0.165256,10.082433,0.005214,0.008730,0.001813,0.030518,0.000000,0.000000
0.876641,-0.143701,-0.162263,10.077643,0.007609,0.011724,-0.002977,0.000000,0.000000,0.000000
0.886711,-0.147892,-0.164658,10.082433,0.003418,0.009329,0.001813,0.030518,0.030518,0.000000
0.896775,-0.141306,-0.169448,10.082433,0.010004,0.004539,0.001813,0.061035,0.061035,0.000000
0.906841,-0.143701,-0.177231,10.080038,0.007609,-0.003245,-0.000582,0.030518,0.061035,0.000000
0.916906,-0.147892,-0.183818,10.072853,0.003418,-0.009832,-0.007767,0.030518,0.091553,0.000000
0.926976,-0.149090,-0.180225,10.070458,0.002221,-0.006239,-0.010162,0.061035,0.061035,-0.030518
0.937043,-0.152084,-0.177830,10.085427,-0.000773,-0.003844,0.004807,0.030518,0.061035,0.000000
0.947109,-0.154479,-0.182021,10.084230,-0.003168,-0.008035,0.003609,0.000000,0.030518,0.030518
0.957175,-0.155078,-0.171843,10.079440,-0.003767,0.002144,-0.001181,-0.030518,0.030518,0.000000
0.967241,-0.149090,-0.174238,10.081236,0.002221,-0.000251,0.000615,-0.030518,0.030518,0.000000
0.977307,-0.149090,-0.173040,10.083631,0.002221,0.000946,0.003010,0.030518,0.030518,0.000000
0.987375,-0.150287,-0.177231,10.099199,0.001023,-0.003245,0.018578,0.030518,0.000000,0.000000
0.997443,-0.149090,-0.173040,10.094409,0.002221,0.000946,0.013788,0.030518,0.030518,0.000000
1.007514,-0.150886,-0.178429,10.083631,0.000424,-0.004443,0.003010,0.030518,0.000000,0.000000
1.017581,-0.149090,-0.174836,10.078242,0.002221,-0.000850,-0.002379,0.030518,0.000000,0.000000
1.027647,-0.140707,-0.174238,10.075847,0.010603,-0.000251,-0.004774,0.030518,0.030518,0.000000
1.037713,-0.143701,-0.171244,10.081236,0.007609,0.002742,0.000615,0.030518,0.030518,0.000000
1.047779,-0.148491,-0.174836,10.082433,0.002819,-0.000850,0.001813,0.030518,0.030518,0.030518
1.057852,-0.150886,-0.180225,10.075847,0.000424,-0.006239,-0.004774,0.061035,0.030518,0.000000
1.067920,-0.149689,-0.179626,10.074051,0.001622,-0.005640,-0.006570,0.030518,0.030518,0.000000
1.077985,-0.147892,-0.176633,10.071057,0.003418,-0.002646,-0.009564,0.030518,0.030518,0.030518
1.088051,-0.155676,-0.173639,10.077643,-0.004366,0.000347,-0.002977,0.030518,0.091553,0.030518
1.098116,-0.158670,-0.173639,10.078242,-0.007359,0.000347,-0.002379,0.000000,0.000000,0.030518
1.108183,-0.149689,-0.169448,10.079440,0.001622,0.004539,-0.001181,-0.030518,0.030518,-0.030518
1.118249,-0.151485,-0.172441,10.080637,-0.000174,0.001545,0.000016,-0.030518,0.030518,-0.030518
1.128315,-0.147892,-0.176633,10.076446,0.003418,-0.002646,-0.004175,-0.030518,0.030518,-0.061035
1.138381,-0.145497,-0.169448,10.083032,0.005813,0.004539,0.002411,-0.030518,0.030518,-0.061035
1.148447,-0.148491,-0.168849,10.087224,0.002819,0.005137,0.006603,-0.030518,0.061035,-0.030518
1.158513,-0.143102,-0.170046,10.079440,0.008208,0.003940,-0.001181,0.000000,0.061035,-0.030518
1.168612,-0.148491,-0.164658,10.081236,0.002819,0.009329,0.000615,0.030518,0.061035,-0.030518
1.178679,-0.147892,-0.171843,10.083631,0.003418,0.002144,0.003010,0.030518,0.030518,0.000000
1.188745,-0.146695,-0.173639,10.089020,0.004616,0.000347,0.008399,-0.030518,0.030518,0.000000
1.198811,-0.147294,-0.177830,10.091415,0.004017,-0.003844,0.010794,-0.030518,0.030518,-0.030518
1.208877,-0.138312,-0.179028,10.091415,0.012998,-0.005042,0.010794,-0.061035,0.000000,0.000000
1.218958,-0.142504,-0.171244,10.079440,0.008807,0.002742,-0.001181,0.000000,0.030518,0.000000
1.229039,-0.140707,-0.176034,10.073452,0.010603,-0.002048,-0.007169,0.030518,0.000000,-0.030518
1.239105,-0.148491,-0.176633,10.081835,0.002819,-0.002646,0.001214,0.000000,0.000000,-0.030518
1.249175,-0.147892,-0.173639,10.081236,0.003418,0.000347,0.000615,0.030518,0.000000,-0.061035
1.259242,-0.152682,-0.171843,10.080038,-0.001372,0.002144,-0.000582,0.000000,0.000000,-0.061035
1.269306,-0.155676,-0.173040,10.074650,-0.004366,0.000946,-0.005971,0.000000,0.030518,-0.030518
1.279376,-0.148491,-0.170046,10.074051,0.002819,0.003940,-0.006570,0.000000,0.000000,-0.030518
1.289442,-0.146695,-0.168849,10.086625,0.004616,0.005137,0.006004,0.000000,-0.061035,0.000000
1.299509,-0.147294,-0.170645,10.089020,0.004017,0.003341,0.008399,0.000000,0.000000,-0.030518
1.309582,-0.149689,-0.173040,10.080637,0.001622,0.000946,0.000016,0.000000,0.000000,-0.030518
1.319650,-0.150287,-0.171244,10.078841,0.001023,0.002742,-0.001780,0.030518,0.000000,-0.030518
1.329715,-0.149090,-0.173639,10.080038,0.002221,0.000347,-0.000582,0.030518,0.030518,-0.030518
1.339781,-0.150287,-0.169448,10.086026,0.001023,0.004539,0.005405,0.061035,0.000000,0.000000
1.349847,-0.149090,-0.165256,10.087224,0.002221,0.008730,0.006603,0.000000,0.000000,0.000000
1.359913,-0.140109,-0.159868,10.085427,0.011202,0.014119,0.004807,0.000000,0.000000,0.030518
1.369986,-0.140109,-0.158670,10.085427,0.011202,0.015316,0.004807,0.000000,0.030518,0.000000
1.380058,-0.146695,-0.165855,10.085427,0.004616,0.008131,0.004807,0.030518,0.030518,0.030518
1.390125,-0.146096,-0.164658,10.087822,0.005214,0.009329,0.007202,0.030518,0.030518,0.000000
1.400195,-0.144300,-0.164658,10.080038,0.007011,0.009329,-0.000582,0.000000,0.000000,0.000000
1.410262,-0.144300,-0.166454,10.086026,0.007011,0.007532,0.005405,0.000000,0.000000,-0.030518
1.420327,-0.147892,-0.164059,10.085427,0.003418,0.009927,0.004807,0.000000,0.000000,0.000000
1.430430,-0.143102,-0.169448,10.085427,0.008208,0.004539,0.004807,0.000000,0.000000,-0.030518
1.440520,-0.138312,-0.163460,10.090816,0.012998,0.010526,0.010195,0.000000,-0.030518,-0.061035
1.450611,-0.138911,-0.168849,10.092014,0.012399,0.005137,0.011393,-0.030518,0.000000,-0.030518
1.460677,-0.135319,-0.171843,10.085427,0.015992,0.002144,0.004807,-0.030518,0.030518,-0.061035
1.470741,-0.135917,-0.171843,10.082433,0.015393,0.002144,0.001813,-0.030518,0.000000,-0.061035
1.480806,-0.138312,-0.177231,10.088421,0.012998,-0.003245,0.007800,-0.030518,0.030518,-0.061035
1.490871,-0.134121,-0.172441,10.093211,0.017190,0.001545,0.012590,-0.030518,0.030518,-0.030518
1.500938,-0.139510,-0.173639,10.093211,0.011801,0.000347,0.012590,0.000000,0.030518,-0.030518
1.511004,-0.144899,-0.173639,10.087224,0.006412,0.000347,0.006603,0.030518,0.030518,0.000000
1.521071,-0.150287,-0.168250,10.081835,0.001023,0.005736,0.001214,0.030518,0.061035,-0.030518
1.531159,-0.147892,-0.168849,10.078242,0.003418,0.005137,-0.002379,0.061035,0.061035,-0.030518
1.541224,-0.142504,-0.170645,10.077045,0.008807,0.003341,-0.003576,0.030518,0.030518,0.000000
1.551290,-0.147294,-0.177231,10.075847,0.004017,-0.003245,-0.004774,-0.030518,0.000000,-0.030518
1.561356,-0.150287,-0.179626,10.070458,0.001023,-0.005640,-0.010162,-0.030518,0.000000,-0.030518
1.571422,-0.149689,-0.185015,10.078841,0.001622,-0.011029,-0.001780,-0.030518,0.000000,-0.030518
1.581486,-0.155078,-0.181423,10.078841,-0.003767,-0.007437,-0.001780,-0.030518,0.000000,-0.030518
1.591553,-0.150886,-0.171843,10.080637,0.000424,0.002144,0.000016,0.030518,0.030518,0.000000
1.601619,-0.152084,-0.171244,10.086625,-0.000773,0.002742,0.006004,0.030518,0.030518,-0.030518
1.611684,-0.149090,-0.167651,10.085427,0.002221,0.006335,0.004807,0.030518,0.091553,0.000000
1.621749,-0.149090,-0.171244,10.079440,0.002221,0.002742,-0.001181,0.030518,0.091553,0.000000
1.631814,-0.152084,-0.176633,10.083631,-0.000773,-0.002646,0.003010,0.030518,0.061035,0.000000
1.641880,-0.152682,-0.163460,10.086625,-0.001372,0.010526,0.006004,0.030518,0.091553,0.000000
1.651947,-0.153880,-0.162263,10.087822,-0.002569,0.011724,0.007202,0.030518,0.091553,0.000000
1.662013,-0.144300,-0.157473,10.088421,0.007011,0.016514,0.007800,0.000000,0.061035,-0.030518
1.672080,-0.143102,-0.158670,10.084828,0.008208,0.015316,0.004208,0.000000,0.091553,-0.030518
1.682146,-0.139510,-0.161664,10.086026,0.011801,0.012322,0.005405,0.030518,0.091553,0.000000
1.692212,-0.134121,-0.160466,10.086026,0.017190,0.013520,0.005405,0.030518,0.091553,-0.061035
1.702278,-0.133522,-0.160466,10.083032,0.017788,0.013520,0.002411,0.030518,0.061035,-0.061035
1.712344,-0.134720,-0.162861,10.083631,0.016591,0.011125,0.003010,0.000000,0.030518,-0.030518
1.722412,-0.134121,-0.160466,10.082433,0.017190,0.013520,0.001813,0.000000,0.061035,-0.030518
1.732477,-0.143102,-0.162263,10.086625,0.008208,0.011724,0.006004,0.000000,0.061035,-0.030518
1.742543,-0.148491,-0.162263,10.090816,0.002819,0.011724,0.010195,-0.030518,0.061035,-0.030518
1.752609,-0.144300,-0.166454,10.087822,0.007011,0.007532,0.007202,-0.030518,0.030518,-0.030518
1.762675,-0.148491,-0.167053,10.089619,0.002819,0.006934,0.008998,0.000000,0.030518,-0.030518
1.772750,-0.147294,-0.171843,10.084828,0.004017,0.002144,0.004208,0.000000,0.061035,-0.030518
1.782816,-0.150287,-0.169448,10.092014,0.001023,0.004539,0.011393,0.030518,0.030518,-0.030518
1.792883,-0.149689,-0.169448,10.096205,0.001622,0.004539,0.015584,0.000000,0.000000,-0.061035
1.802950,-0.144300,-0.170645,10.088421,0.007011,0.003341,0.007800,-0.030518,0.000000,0.000000
1.813016,-0.149689,-0.169448,10.081835,0.001622,0.004539,0.001214,0.000000,0.030518,0.000000
1.823082,-0.153281,-0.165256,10.081835,-0.001971,0.008730,0.001214,-0.030518,0.030518,0.000000
1.833148,-0.147294,-0.167053,10.089020,0.004017,0.006934,0.008399,0.000000,0.030518,0.000000
1.843214,-0.144899,-0.168849,10.090217,0.006412,0.005137,0.009597,0.030518,0.061035,-0.030518
1.853280,-0.152084,-0.168849,10.086625,-0.000773,0.005137,0.006004,0.061035,0.030518,-0.030518
1.863347,-0.152084,-0.173639,10.083032,-0.000773,0.000347,0.002411,0.061035,0.000000,-0.030518
1.873413,-0.150287,-0.180824,10.078242,0.001023,-0.006838,-0.002379,0.030518,0.030518,-0.061035
1.883479,-0.146096,-0.177830,10.082433,0.005214,-0.003844,0.001813,0.000000,0.000000,-0.061035
1.893704,-0.147294,-0.179028,10.084230,0.004017,-0.005042,0.003609,-0.030518,0.061035,-0.061035
1.903772,-0.152682,-0.170645,10.084230,-0.001372,0.003341,0.003609,-0.061035,0.030518,-0.061035
1.913838,-0.148491,-0.173639,10.077045,0.002819,0.000347,-0.003576,-0.030518,0.061035,0.030518
1.923903,-0.147892,-0.182021,10.077643,0.003418,-0.008035,-0.002977,0.000000,0.061035,0.000000
1.933969,-0.145497,-0.177830,10.080038,0.005813,-0.003844,-0.000582,0.000000,0.061035,0.000000
1.944036,-0.159868,-0.180225,10.075248,-0.008557,-0.006239,-0.005372,0.000000,0.061035,0.000000
1.954102,-0.152084,-0.174238,10.071057,-0.000773,-0.000251,-0.009564,0.000000,0.061035,0.000000
1.964168,-0.153880,-0.167651,10.072853,-0.002569,0.006335,-0.007767,0.000000,0.030518,0.000000
1.974235,-0.157473,-0.165855,10.069261,-0.006162,0.008131,-0.011360,-0.030518,0.000000,0.030518
1.984304,-0.155078,-0.168250,10.075847,-0.003767,0.005736,-0.004774,-0.061035,0.000000,0.030518
1.994368,-0.151485,-0.174238,10.085427,-0.000174,-0.000251,0.004807,-0.061035,0.000000,0.030518
2.004433,-0.144300,-0.174238,10.084828,0.007011,-0.000251,0.004208,-0.030518,0.000000,0.000000
2.014498,-0.147892,-0.167651,10.072853,0.003418,0.006335,-0.007767,-0.030518,0.030518,0.000000
2.024562,-0.141306,-0.164658,10.072853,0.010004,0.009329,-0.007767,0.000000,0.000000,-0.030518
2.034627,-0.147294,-0.172441,10.084230,0.004017,0.001545,0.003609,0.030518,-0.030518,-0.030518
2.044693,-0.153880,-0.171244,10.087822,-0.002569,0.002742,0.007202,0.000000,-0.030518,-0.030518
2.054757,-0.146096,-0.170046,10.085427,0.005214,0.003940,0.004807,0.000000,0.000000,-0.061035
2.064821,-0.133522,-0.173639,10.078242,0.017788,0.000347,-0.002379,0.000000,0.000000,-0.061035
2.074885,-0.136516,-0.167053,10.074650,0.014794,0.006934,-0.005971,-0.030518,0.000000,-0.061035
2.084949,-0.141905,-0.167053,10.074650,0.009406,0.006934,-0.005971,0.000000,-0.030518,-0.030518
2.095013,-0.141905,-0.161065,10.072255,0.009406,0.012921,-0.008366,-0.030518,0.000000,-0.030518
2.105078,-0.140109,-0.157473,10.068063,0.011202,0.016514,-0.012557,0.000000,0.000000,0.000000
2.115143,-0.146096,-0.164658,10.063273,0.005214,0.009329,-0.017347,0.000000,0.000000,0.000000
2.125208,-0.144300,-0.173040,10.062076,0.007011,0.000946,-0.018545,0.000000,0.000000,-0.030518
2.135272,-0.152084,-0.171244,10.075847,-0.000773,0.002742,-0.004774,0.000000,0.030518,-0.030518
2.145337,-0.156275,-0.178429,10.083631,-0.004964,-0.004443,0.003010,0.000000,0.091553,0.000000
2.155401,-0.151485,-0.177231,10.068063,-0.000174,-0.003245,-0.012557,0.000000,0.030518,0.030518
2.165466,-0.149689,-0.181423,10.056687,0.001622,-0.007437,-0.023934,0.030518,0.030518,0.030518
2.175529,-0.152682,-0.177231,10.061477,-0.001372,-0.003245,-0.019144,0.000000,0.061035,0.000000
2.185594,-0.149090,-0.187410,10.075248,0.002221,-0.013424,-0.005372,0.000000,0.122070,0.000000
2.195658,-0.153281,-0.191003,10.075847,-0.001971,-0.017017,-0.004774,0.030518,0.152588,0.030518
2.205723,-0.147892,-0.171843,10.072255,0.003418,0.002144,-0.008366,0.152588,0.122070,0.000000
2.215788,-0.149689,-0.183818,10.070458,0.001622,-0.009832,-0.010162,0.152588,0.000000,-0.030518
2.225853,-0.149689,-0.170046,10.060280,0.001622,0.003940,-0.020341,0.061035,-0.030518,0.030518
2.235918,-0.120948,-0.250878,10.094409,0.030362,-0.076892,0.013788,-0.061035,-0.091553,0.030518
2.245982,-0.150287,-0.187410,10.083032,0.001023,-0.013424,0.002411,0.061035,0.000000,0.000000
2.256047,-0.135319,-0.212558,10.045311,0.015992,-0.038572,-0.035310,-0.183105,-0.091553,0.000000
2.266112,-0.161065,-0.116158,10.060878,-0.009754,0.057828,-0.019742,-0.213623,-0.091553,0.030518
2.276177,-0.158670,-0.150287,10.047706,-0.007359,0.023699,-0.032915,0.122070,0.061035,0.030518
2.286241,-0.153281,-0.182620,10.065070,-0.001971,-0.008634,-0.015551,0.030518,0.000000,0.030518
2.296306,-0.179626,-0.120948,10.043514,-0.028316,0.053038,-0.037106,0.183105,0.091553,0.000000
2.306371,-0.141306,-0.193997,10.069261,0.010004,-0.020010,-0.011360,0.091553,0.030518,-0.030518
2.316435,-0.156874,-0.145497,10.053693,-0.005563,0.028489,-0.026928,0.091553,0.061035,0.000000
2.326500,-0.147892,-0.175435,10.056687,0.003418,-0.001449,-0.023934,0.091553,0.061035,-0.030518
2.336564,-0.141306,-0.175435,10.059082,0.010004,-0.001449,-0.021539,0.091553,0.030518,-0.030518
2.346629,-0.145497,-0.174238,10.062675,0.005813,-0.000251,-0.017946,0.122070,0.000000,-0.030518
2.356694,-0.143701,-0.168250,10.063872,0.007609,0.005736,-0.016749,0.122070,0.030518,-0.061035
2.366760,-0.145497,-0.175435,10.053094,0.005813,-0.001449,-0.027526,0.213623,0.061035,-0.030518
2.376825,-0.143701,-0.177231,10.047706,0.007609,-0.003245,-0.032915,0.213623,0.091553,-0.030518
2.386889,-0.150287,-0.177830,10.054891,0.001023,-0.003844,-0.025730,0.183105,0.061035,-0.061035
2.396954,-0.150287,-0.174836,10.055490,0.001023,-0.000850,-0.025131,0.213623,0.061035,-0.030518
2.407020,-0.147892,-0.173040,10.059082,0.003418,0.000946,-0.021539,0.183105,0.091553,0.000000
2.417085,-0.147892,-0.182620,10.051897,0.003418,-0.008634,-0.028724,0.335693,0.122070,-0.030518
2.427151,-0.135917,-0.265847,10.070458,0.015393,-0.091861,-0.010162,0.427246,0.122070,-0.183105
2.437216,-0.093406,-0.507744,10.089020,0.057905,-0.333758,0.008399,1.037598,-0.091553,-2.502441
2.447282,-0.095202,-0.413740,10.028546,0.056109,-0.239753,-0.052075,1.678467,-0.305176,-4.608154
2.457347,-0.124541,-0.240699,10.023157,0.026770,-0.066713,-0.057464,1.403809,-0.213623,-8.544922
2.467413,-0.170645,-0.038919,10.038126,-0.019335,0.135067,-0.042495,1.098633,-0.061035,-8.819580
2.477477,-0.202978,0.109572,10.049502,-0.051667,0.283558,-0.031119,0.640869,-0.030518,-5.889893
2.487543,-0.193398,0.034129,10.059681,-0.042087,0.208115,-0.020940,0.488281,-0.030518,-4.455566
2.497609,-0.201182,0.077838,10.063872,-0.049871,0.251824,-0.016749,0.244141,-0.061035,-2.960205
2.507676,-0.259261,0.276026,10.060878,-0.107950,0.450012,-0.019742,0.213623,-0.213623,1.342773
2.517742,-0.728086,0.787961,10.035731,-0.576775,0.961948,-0.044890,0.183105,-0.152588,2.777100
2.527808,-0.732277,1.386716,10.056687,-0.580967,1.560703,-0.023934,-0.518799,0.457764,-6.866455
2.537873,-0.662223,1.575923,10.007589,-0.510912,1.749909,-0.073032,-0.183105,0.427246,-11.566162
2.547938,-0.673599,1.501078,10.045311,-0.522289,1.675065,-0.035310,0.274658,0.457764,-16.845703
2.558003,-0.820294,0.969983,10.109377,-0.668984,1.143969,0.028757,-0.366211,0.427246,-16.510010
2.568068,-0.868793,0.865201,10.017768,-0.717483,1.039187,-0.062853,0.244141,0.305176,-14.923096
2.578154,-0.843646,0.488584,9.959689,-0.692335,0.662570,-0.120932,-0.091553,0.122070,-12.664795
2.589469,-0.864602,0.461640,9.927955,-0.713291,0.635626,-0.152666,0.061035,-0.183105,-9.399414
2.599571,-1.093925,0.214354,10.175839,-0.942615,0.388340,0.095218,-1.251221,-0.366211,-6.988525
2.609670,-1.207689,-0.318538,10.012978,-1.056378,-0.144551,-0.067643,-1.342773,-1.647949,-6.408691
2.619768,-1.189726,-0.243693,10.044712,-1.038415,-0.069707,-0.035909,1.037598,-0.488281,0.946045
2.629864,-1.380130,-0.196990,10.139914,-1.228819,-0.023004,0.059293,1.800537,-0.518799,6.134033
2.639961,-1.313668,-0.593366,9.847123,-1.162358,-0.419380,-0.233498,1.190186,-0.732422,15.625000
2.650058,-1.365760,-0.554447,10.048304,-1.214449,-0.380461,-0.032316,1.037598,-0.213623,20.721436
2.660155,-1.202300,-0.697549,10.053693,-1.050989,-0.523563,-0.026928,0.640869,-0.335693,29.174805
2.670252,-0.775388,-0.713117,10.181228,-0.624077,-0.539131,0.100607,0.305176,-0.396729,32.318115
2.680341,-1.001717,-0.664019,10.283016,-0.850406,-0.490033,0.202396,0.244141,-0.396729,34.851074
2.690431,-1.213676,-0.263452,10.253079,-1.062366,-0.089466,0.172458,3.021240,0.091553,38.238525
2.700521,-0.984952,-0.955613,10.584789,-0.833641,-0.781627,0.504168,-2.319336,-0.640869,36.926270
2.710608,-0.623304,-0.549058,10.124945,-0.471993,-0.375072,0.044324,-1.342773,-0.518799,41.320801
2.720698,-0.650248,-0.692759,10.157278,-0.498937,-0.518773,0.076657,0.244141,0.305176,43.853760
2.730788,-0.597557,-0.992736,10.238708,-0.446247,-0.818749,0.158088,2.258301,0.152588,44.555664
2.740879,-0.647853,-1.163381,10.168055,-0.496542,-0.989395,0.087435,0.122070,-0.640869,43.762207
2.750969,-0.543071,-1.282533,10.023755,-0.391760,-1.108547,-0.056865,-1.739502,-1.159668,43.060303
2.761060,-0.414937,-1.348995,10.023157,-0.263627,-1.175009,-0.057464,-3.387451,-1.647949,42.083740
2.771203,-0.346080,-1.473536,10.048903,-0.194770,-1.299550,-0.031718,-5.584717,-1.708984,40.527344
2.781294,-0.247286,-1.398691,10.144105,-0.095975,-1.224705,0.063484,-4.791260,-1.525879,35.858154
2.791385,-0.280217,-1.280138,10.072255,-0.128907,-1.106152,-0.008366,-3.692627,-1.342773,34.362793
2.801476,-0.290995,-1.317859,10.120155,-0.139684,-1.143873,0.039534,-1.953125,-1.434326,33.813477
2.811560,-0.346679,-1.423240,10.154883,-0.195368,-1.249254,0.074262,-1.586914,-1.464844,34.149170
2.821654,-0.492775,-1.101709,9.807006,-0.341465,-0.927723,-0.273615,-0.122070,-0.793457,34.606934
2.831745,-0.407153,-0.999322,9.873468,-0.255843,-0.825336,-0.207153,0.122070,-0.518799,34.729004
2.841835,-0.370629,-0.994532,10.002799,-0.219319,-0.820546,-0.077822,0.915527,-0.396729,33.996582
2.851926,-0.369432,-1.269959,10.155482,-0.218121,-1.095973,0.074861,1.373291,0.946045,30.059814
2.862050,-0.480201,-0.843646,10.131531,-0.328891,-0.669659,0.050911,3.051758,0.152588,27.709961
2.872141,-0.206570,-0.846041,10.147698,-0.055260,-0.672054,0.067077,3.265381,-0.457764,22.888184
2.882231,-0.119152,-1.053809,10.035132,0.032158,-0.879822,-0.045489,0.274658,-1.525879,20.324707
2.892322,-0.223336,-0.980760,9.986633,-0.072025,-0.806774,-0.093988,2.471924,-1.525879,15.411377
2.902412,-0.309556,-1.034050,10.066267,-0.158246,-0.860063,-0.014354,1.312256,-1.678467,16.784668
2.912503,-0.192200,-1.278940,9.951306,-0.040890,-1.104954,-0.129315,1.525879,-1.861572,17.730713
2.922594,-0.407153,-1.287922,9.774075,-0.255843,-1.113936,-0.306546,2.868652,-1.373291,16.937256
2.932684,-0.352068,-1.162183,9.818383,-0.200757,-0.988197,-0.262238,3.051758,-1.770020,16.082764
2.942774,-0.664019,-0.738265,10.559042,-0.512709,-0.564279,0.478422,1.434326,-1.434326,13.092041
2.952863,-0.310155,-1.326242,9.944121,-0.158844,-1.152256,-0.136500,1.281738,-0.946045,13.244629
2.962954,-0.234712,-1.275947,10.080637,-0.083401,-1.101960,0.000016,0.305176,-0.213623,12.115479
2.973044,-0.490979,-1.159189,10.280023,-0.339668,-0.985203,0.199402,1.373291,-0.183105,12.390137
2.983136,-0.231718,-0.844843,10.547067,-0.080408,-0.670857,0.466447,2.593994,0.091553,12.420654
2.993232,-0.460443,-1.030457,10.465038,-0.309132,-0.856471,0.384417,1.129150,0.427246,9.643555
3.003327,-0.065264,-0.916694,10.130334,0.086046,-0.742708,0.049713,-0.427246,-1.892090,8.880615
3.013423,-0.345482,-2.082469,10.109377,-0.194171,-1.908483,0.028757,-1.983643,0.427246,-0.274658
3.023519,-0.265248,-1.897454,9.695638,-0.113938,-1.723468,-0.384983,-1.739502,1.464844,-4.577637
3.033615,-0.525707,-1.131647,10.205777,-0.374396,-0.957661,0.125156,-1.922607,2.868652,-5.493164
3.043711,-0.419128,-1.378932,10.135723,-0.267818,-1.204946,0.055102,-2.410889,2.929688,-4.425049
3.053808,-0.067659,-0.900527,10.027947,0.083651,-0.726541,-0.052674,-2.380371,2.532959,-2.380371
3.063905,0.044907,-1.020877,10.081835,0.196217,-0.846891,0.001214,-1.770020,3.173828,-1.495361
3.074001,-0.634680,-0.484393,10.966196,-0.483370,-0.310407,0.885575,-4.486084,1.953125,-0.457764
3.084090,-0.275427,-0.686173,10.133328,-0.124117,-0.512187,0.052707,-2.105713,0.427246,-1.617432
3.094179,-0.010778,-0.355660,9.781859,0.140533,-0.181674,-0.298762,-0.488281,0.671387,-0.732422
3.104267,-0.218546,-0.634680,9.965676,-0.067235,-0.460694,-0.114944,-3.143311,-0.366211,2.288818
3.114354,-0.339494,-0.185015,10.151889,-0.188183,-0.011029,0.071268,-1.800537,0.305176,2.929688
3.124444,-0.359253,-0.570015,10.095007,-0.207942,-0.396028,0.014387,-2.075195,-0.579834,3.234863
3.134531,0.205972,-0.298779,9.528585,0.357282,-0.124792,-0.552036,-2.990723,-0.030518,2.807617
3.144618,-0.037123,-0.252675,9.515413,0.114188,-0.078688,-0.565208,-2.746582,0.183105,2.258301
3.154705,-0.134720,-0.171244,9.850715,0.016591,0.002742,-0.229905,-3.814697,1.586914,-0.152588
3.164791,-0.498763,-0.043709,10.437495,-0.347452,0.130277,0.356874,-3.234863,1.342773,-2.349854
3.174877,-0.717907,0.346080,10.763218,-0.566597,0.520067,0.682597,-3.936768,1.342773,-7.110596
3.185006,-0.746049,0.182021,10.815908,-0.594738,0.356008,0.735287,-4.364014,1.464844,-7.415771
3.195103,-0.721500,0.252675,10.484198,-0.570189,0.426661,0.403577,-4.150391,1.739502,-9.979248
3.205225,-0.376018,-0.325723,10.336306,-0.224707,-0.151736,0.255685,-3.631592,1.922607,-11.016846
3.215317,-0.002994,-0.156275,10.050101,0.148317,0.017711,-0.030520,-3.723145,2.075195,-12.084961
3.225413,-0.611329,-0.134720,10.221943,-0.460018,0.039266,0.141323,-4.241943,1.312256,-9.521484
3.235505,-0.157473,-0.271236,10.033336,-0.006162,-0.097250,-0.047285,-3.173828,0.823975,-7.995605
3.245599,-0.273631,-0.292791,10.163864,-0.122320,-0.118805,0.083243,-1.403809,-0.640869,-4.852295
3.255692,-0.350272,0.020956,9.885443,-0.198961,0.194943,-0.195178,0.030518,-0.854492,-3.448486
3.265788,-0.389191,-0.129331,9.908196,-0.237880,0.044655,-0.172425,-1.434326,-1.312256,-3.814697
3.275880,-0.396376,0.151485,10.506352,-0.245065,0.325471,0.425731,-1.678467,-0.122070,-3.784180
3.285969,-0.297581,0.324525,10.041119,-0.146271,0.498511,-0.039501,-1.556396,-1.068115,-3.204346
3.296056,-0.279020,0.107177,9.972263,-0.127709,0.281163,-0.108358,-0.701904,-1.403809,-1.800537
3.306144,-0.389789,0.152084,10.008188,-0.238479,0.326070,-0.072433,0.915527,-1.068115,-0.793457
3.316231,-0.658630,0.224533,10.175240,-0.507320,0.398519,0.094620,0.640869,-1.037598,1.098633
3.326320,-0.594564,0.011376,10.148297,-0.443253,0.185363,0.067676,0.976562,-0.274658,0.457764
3.336406,-0.548459,0.180225,9.983639,-0.397149,0.354211,-0.096982,3.753662,0.549316,-0.457764
3.346495,-0.565225,0.618514,10.030941,-0.413914,0.792500,-0.049680,2.593994,0.671387,-0.152588
3.356581,-0.801134,0.558040,10.180629,-0.649823,0.732026,0.100009,2.899170,0.427246,-4.272461
3.366670,-0.477806,0.231718,9.733359,-0.326496,0.405704,-0.347261,1.342773,-0.549316,-5.096436
3.376758,-0.506547,0.132924,10.242900,-0.355236,0.306910,0.162279,1.525879,-0.579834,-5.584717
3.386853,-0.444276,0.256866,9.887838,-0.292966,0.430852,-0.192783,1.464844,-0.610352,-4.638672
3.396945,-0.490380,0.202379,10.139315,-0.339070,0.376365,0.058694,0.122070,-0.854492,-3.601074
3.407075,-0.466430,0.550854,10.106982,-0.315119,0.724841,0.026362,0.732422,-0.183105,-1.403809
3.417168,-0.350870,0.547262,9.873468,-0.199560,0.721248,-0.207153,0.579834,-0.091553,0.091553
3.427263,-0.982557,0.392184,10.352472,-0.831246,0.566171,0.271851,2.990723,-0.244141,-0.366211
3.437357,-0.404160,0.620310,10.120155,-0.252849,0.794296,0.039534,2.166748,0.000000,0.152588
3.447452,-0.424517,0.480201,9.959090,-0.273207,0.654188,-0.121531,1.739502,0.976562,-0.183105
3.457549,-0.422122,0.660427,10.072853,-0.270812,0.834413,-0.007767,0.732422,1.403809,-3.540039
3.467645,-0.325723,0.554447,9.986633,-0.174412,0.728433,-0.093988,-0.152588,0.640869,-5.310059
3.477742,-0.344284,0.588576,9.942924,-0.192973,0.762562,-0.137697,-0.610352,0.061035,-8.148193
3.487832,-0.316143,0.728685,10.065668,-0.164832,0.902671,-0.014952,-0.518799,-0.061035,-8.117676
3.497920,-0.366438,0.721500,10.195598,-0.215127,0.895486,0.114977,0.030518,0.183105,-6.256104
3.508010,-0.356858,0.723895,10.140513,-0.205547,0.897881,0.059892,-0.061035,-0.335693,-5.798340
3.518100,-0.325723,0.844244,10.069860,-0.174412,1.018231,-0.010761,0.366211,-0.457764,-5.737305
3.528191,-0.348475,0.797542,9.965078,-0.197165,0.971528,-0.115543,2.471924,-0.030518,-2.777100
3.538280,-0.352667,0.765807,10.080637,-0.201356,0.939794,0.000016,0.213623,0.091553,-0.274658
3.548369,-0.177830,0.583187,9.995015,-0.026520,0.757173,-0.085605,-0.946045,0.518799,0.762939
3.558458,-0.137115,0.542472,10.164463,0.014196,0.716458,0.083842,-0.579834,1.251221,1.495361
3.568547,-0.262255,0.864602,10.157877,-0.110944,1.038588,0.077256,0.823975,-0.061035,0.030518
3.578637,-0.182620,0.897534,10.084828,-0.031310,1.071520,0.004208,0.457764,-0.762939,0.061035
3.588728,-0.181423,0.690963,10.041718,-0.030112,0.864949,-0.038903,1.220703,-0.213623,0.213623
3.598824,-0.197589,0.731678,10.105186,-0.046279,0.905665,0.024565,-1.892090,-0.488281,-0.579834
3.608916,-0.001198,0.640668,9.980645,0.150113,0.814654,-0.099976,-2.777100,0.305176,-1.556396
3.619013,0.062271,0.764011,10.229727,0.213581,0.937997,0.149106,-1.342773,0.579834,-2.838135
3.629111,0.164059,0.861608,10.038724,0.315369,1.035594,-0.041896,-0.244141,0.976562,-2.593994
3.639206,0.188608,0.894540,10.005194,0.339918,1.068526,-0.075427,0.305176,0.885010,-2.838135
3.649302,0.425116,0.998124,10.156679,0.576427,1.172111,0.076058,-0.427246,-0.640869,-5.310059
3.659397,0.409548,1.160387,10.269245,0.560859,1.334373,0.188624,-3.662109,-1.800537,-10.772705
3.669493,0.408351,1.077759,10.097402,0.559661,1.251745,0.016782,-3.845215,-1.983643,-12.847900
3.679590,0.601150,1.084345,9.844728,0.752461,1.258331,-0.235893,-4.730225,-2.563477,-14.495850
3.689682,0.546064,0.719703,10.151290,0.697375,0.893690,0.070670,-4.089355,-1.647949,-14.739990
3.699771,0.557441,0.849034,9.901609,0.708751,1.023021,-0.179011,-3.479004,-1.403809,-14.160156
3.709861,0.474214,0.664618,10.116563,0.625524,0.838604,0.035942,-1.617432,-1.129150,-12.512207
3.719951,0.529898,0.861608,10.007589,0.681209,1.035594,-0.073032,0.122070,-0.427246,-11.230469
3.730042,0.507744,0.778381,10.194401,0.659055,0.952368,0.113780,3.204346,0.488281,-8.331299
3.740132,0.522114,0.151485,9.977651,0.673425,0.325471,-0.102969,1.373291,0.732422,-9.185791
3.750224,0.487386,0.729283,10.287208,0.638697,0.903270,0.206587,2.105713,1.251221,-12.420654
3.760314,0.693957,0.440684,10.048304,0.845268,0.614670,-0.032316,2.899170,0.305176,-13.000488
3.770423,0.776585,0.220941,9.902208,0.927896,0.394927,-0.178412,2.471924,-0.854492,-12.054443
3.780513,0.658032,0.049697,9.944121,0.809342,0.223683,-0.136500,-0.244141,-1.892090,-13.763428
3.790604,0.804727,0.381407,10.062076,0.956037,0.555393,-0.018545,0.213623,-1.708984,-14.099121
3.800694,0.853824,0.370031,9.842932,1.005135,0.544017,-0.237689,0.823975,-1.647949,-12.237549
3.810785,0.361049,0.107776,10.280023,0.512360,0.281762,0.199402,1.434326,-0.396729,-10.955811
3.820876,0.543669,0.135319,10.082433,0.694980,0.309305,0.001813,1.922607,-0.274658,-10.864258
3.830964,1.113684,0.000599,9.748328,1.264995,0.174585,-0.332292,1.525879,0.000000,-11.047363
3.841054,0.343087,0.216151,10.535092,0.494397,0.390137,0.454471,1.068115,0.671387,-13.214111
3.851144,0.907114,0.254471,9.911190,1.058424,0.428457,-0.169431,2.471924,1.037598,-12.054443
3.861234,0.940045,0.044308,9.986633,1.091356,0.218294,-0.093988,0.427246,0.946045,-12.542725
3.871324,0.694556,-0.062271,10.444081,0.845866,0.111716,0.363461,-1.495361,0.885010,-14.801025
3.881414,1.301693,0.122146,9.835148,1.453004,0.296132,-0.245473,-1.739502,0.793457,-16.265869
3.891508,1.046624,-0.102986,10.018367,1.197934,0.071000,-0.062254,-2.960205,0.701904,-17.120361
3.901605,1.047821,0.170046,9.899214,1.199132,0.344033,-0.181406,-2.746582,0.457764,-18.218994
3.911701,0.698747,0.238903,10.206376,0.850058,0.412889,0.125755,-3.814697,-0.061035,-19.317627
3.921798,1.037642,-0.034129,9.789044,1.188953,0.139857,-0.291577,-2.624512,0.274658,-19.500732
3.931894,0.355660,0.126337,10.267449,0.506971,0.300323,0.186828,-3.143311,-0.701904,-19.073486
3.941991,0.840652,0.155078,10.042317,0.991962,0.329064,-0.038304,-1.922607,-1.220703,-17.059326
3.952086,1.266965,0.018561,10.081236,1.418276,0.192548,0.000615,-1.739502,-0.640869,-15.411377
3.962184,1.098116,0.045505,9.863888,1.249427,0.219492,-0.216733,-1.007080,1.617432,-14.038086
3.972281,1.087938,0.326920,10.463242,1.239248,0.500906,0.382621,0.854492,1.251221,-15.625000
3.982377,1.016686,0.399370,10.232122,1.167996,0.573356,0.151501,1.434326,1.342773,-16.967773
3.992466,1.140029,0.105980,10.203981,1.291340,0.279966,0.123360,1.922607,-0.457764,-18.218994
4.002556,0.905916,0.327519,10.044113,1.057227,0.501505,-0.036508,2.990723,0.396729,-18.951416
4.012645,0.828078,-0.124541,10.512339,0.979389,0.049445,0.431719,1.129150,2.166748,-21.423340
4.022736,0.532892,0.013771,10.552456,0.684202,0.187758,0.471835,1.251221,0.732422,-22.338867
4.032826,0.804727,0.025148,9.682465,0.956037,0.199134,-0.398156,4.486084,-0.701904,-21.331787
4.042917,0.752635,-0.173040,9.983639,0.903945,0.000946,-0.096982,4.058838,-0.915527,-19.744873
4.053006,0.800535,-0.207169,10.198592,0.951846,-0.033183,0.117971,4.669189,0.091553,-21.240234
4.063098,0.927471,0.347877,9.694440,1.078782,0.521863,-0.386180,3.723145,1.312256,-24.810791
4.073188,1.077160,0.227527,10.136321,1.228471,0.401513,0.055701,3.692627,1.464844,-25.360107
4.083278,0.781974,-0.160466,9.969269,0.933284,0.013520,-0.111352,1.556396,-0.152588,-26.031494
4.093372,1.379531,-0.252675,9.138197,1.530842,-0.078688,-0.942424,2.990723,0.183105,-29.998779
4.103469,1.177751,0.011975,9.873468,1.329061,0.185961,-0.207153,1.770020,-0.640869,-28.869629
4.113566,0.823887,-0.179028,10.165062,0.975197,-0.005042,0.084441,2.136230,0.793457,-30.364990
4.123663,0.860411,-0.252675,10.378817,1.011721,-0.078688,0.298196,3.540039,0.518799,-30.242920
4.133760,1.165177,0.112566,9.528585,1.316488,0.286552,-0.552036,5.035400,-1.342773,-29.907227
4.143856,1.288521,-0.204175,10.102791,1.439831,-0.030189,0.022170,4.211426,0.976562,-27.252197
4.153953,0.997526,-1.079555,10.189012,1.148836,-0.905569,0.108391,1.464844,-1.464844,-24.353027
4.164049,0.797542,-0.504152,10.231523,0.948852,-0.330165,0.150903,2.227783,-0.305176,-26.947021
4.174145,1.001118,-0.564027,10.054292,1.152429,-0.390041,-0.026329,2.380371,-0.030518,-25.360107
4.184241,1.678909,-0.416733,9.414822,1.830219,-0.242747,-0.665799,3.662109,0.610352,-24.719238
4.194330,1.169967,-0.861010,9.998608,1.321278,-0.687023,-0.082013,1.647949,0.244141,-25.634766
4.204419,1.228046,-1.265768,9.748927,1.379357,-1.091782,-0.331694,-3.265381,1.342773,-28.869629
4.214513,1.111289,-0.978964,9.763896,1.262600,-0.804978,-0.316725,-4.486084,1.098633,-34.179688
4.224602,1.162782,-1.073568,10.128538,1.314093,-0.899581,0.047917,-2.593994,1.342773,-34.484863
4.234688,1.016686,-0.612526,10.311757,1.167996,-0.438540,0.231136,-1.220703,1.068115,-33.508301
4.244776,1.005908,-0.773591,10.039922,1.157219,-0.599605,-0.040699,0.244141,0.671387,-31.951904
4.254862,1.321452,-0.947829,9.780661,1.472763,-0.773843,-0.299960,-0.274658,0.427246,-32.165527
4.264948,0.997526,-0.664618,10.037527,1.148836,-0.490632,-0.043094,1.342773,0.183105,-33.233643
4.275035,1.007106,-0.610131,9.901609,1.158416,-0.436145,-0.179011,2.441406,0.000000,-32.684326
4.285121,1.012495,-0.759221,9.990225,1.163805,-0.585235,-0.090396,0.885010,-0.854492,-34.423828
4.295213,1.141826,-0.758622,9.844728,1.293136,-0.584636,-0.235893,0.457764,-0.579834,-39.978027
4.305306,0.493973,-0.771795,10.421329,0.645283,-0.597809,0.340708,0.640869,-0.640869,-40.924072
4.315400,0.650248,-1.011896,10.107581,0.801558,-0.837910,0.026960,1.129150,-1.556396,-42.114258
4.325498,0.878373,-0.882565,9.952504,1.029684,-0.708579,-0.128117,0.396729,-0.762939,-41.168213
4.335603,0.316143,-1.058000,10.557845,0.467453,-0.884014,0.477224,1.556396,0.579834,-39.428711
4.345696,0.887953,-0.927471,10.002200,1.039264,-0.753485,-0.078420,0.885010,0.976562,-37.689209
4.355789,0.631686,-1.009501,10.072853,0.782997,-0.835515,-0.007767,-1.831055,0.976562,-38.330078
4.365884,0.670007,-0.435894,9.780661,0.821317,-0.261907,-0.299960,-1.525879,0.793457,-37.780762
4.375977,0.599952,-1.037642,10.156080,0.751263,-0.863656,0.075460,-3.082275,1.525879,-36.346436
4.386071,0.655637,-0.878972,9.962682,0.806947,-0.704986,-0.117938,-0.671387,1.037598,-35.797119
4.396161,0.876577,-1.086141,9.742341,1.027888,-0.912155,-0.338280,-0.518799,0.823975,-33.325195
4.406251,0.547262,-1.000519,10.070458,0.698573,-0.826533,-0.010162,-0.885010,-0.061035,-33.660889
4.416338,0.525707,-1.196911,10.112970,0.677017,-1.022925,0.032349,-1.739502,-0.335693,-34.820557
4.426426,0.625699,-1.185535,9.820778,0.777009,-1.011548,-0.259843,-1.037598,0.518799,-34.515381
4.436513,0.447869,-1.151406,10.093810,0.599179,-0.977419,0.013189,-0.091553,0.396729,-31.250000
4.446604,0.396376,-1.232836,10.123149,0.547686,-1.058850,0.042528,0.457764,0.701904,-29.388428
4.456691,0.469424,-1.251398,10.096205,0.620734,-1.077412,0.015584,0.122070,0.762939,-27.160645
4.466780,0.559237,-1.397494,10.065070,0.710548,-1.223508,-0.015551,0.579834,1.068115,-26.763916
4.476867,0.511935,-1.290916,9.984238,0.663246,-1.116929,-0.096383,0.335693,0.274658,-23.742676
4.486957,0.536484,-1.314866,10.057286,0.687795,-1.140880,-0.023335,0.213623,0.152588,-23.223877
4.497052,0.480800,-1.263373,9.993818,0.632111,-1.089387,-0.086803,0.396729,-0.030518,-22.857666
4.507146,0.543071,-1.138832,9.886641,0.694381,-0.964846,-0.193980,-1.312256,-0.305176,-23.193359
4.517241,0.560435,-1.253194,10.170450,0.711745,-1.079208,0.089830,-2.899170,0.000000,-24.932861
4.527339,0.456251,-1.027463,10.136321,0.607562,-0.853477,0.055701,-1.312256,0.457764,-25.329590
4.537435,0.305964,-0.975372,10.430909,0.457274,-0.801386,0.350288,-0.579834,1.586914,-24.719238
4.547531,0.645458,-0.818498,10.239307,0.796768,-0.644512,0.158687,0.946045,0.762939,-24.108887
4.557626,0.661624,-0.989143,10.072255,0.812935,-0.815157,-0.008366,1.007080,0.915527,-25.146484
4.567719,0.632884,-1.046624,10.081835,0.784195,-0.872637,0.001214,-0.305176,0.976562,-24.841309
4.577816,0.593366,-1.011297,9.853709,0.744677,-0.837311,-0.226912,-1.434326,0.671387,-25.634766
4.587909,0.745450,-0.784369,10.196197,0.896760,-0.610383,0.115576,-1.373291,0.366211,-26.489258
4.597999,0.455652,-1.011896,10.239906,0.606963,-0.837910,0.159285,-0.701904,0.518799,-26.306152
4.608087,0.381407,-1.100511,10.333312,0.532717,-0.926525,0.252691,-1.586914,0.793457,-25.329590
4.618176,0.317340,-1.084345,10.156080,0.468651,-0.910359,0.075460,-0.915527,0.488281,-24.383545
4.628266,0.284409,-1.153801,10.111174,0.435719,-0.979814,0.030553,-0.885010,0.976562,-21.148682
4.638355,0.074246,-0.819097,10.321337,0.225556,-0.645110,0.240716,1.922607,0.915527,-16.418457
4.648444,0.118553,-1.301094,10.119556,0.269864,-1.127108,0.038936,0.061035,-0.061035,-15.197754
4.658534,0.238903,-1.074765,10.105186,0.390214,-0.900779,0.024565,1.617432,0.488281,-14.343262
4.668623,0.152084,-0.837059,10.155482,0.303394,-0.663073,0.074861,1.434326,-0.061035,-12.207031
4.678713,0.394579,-0.668809,9.871073,0.545890,-0.494823,-0.209548,1.251221,0.579834,-11.596680
4.688802,0.139510,-0.962199,10.584789,0.290820,-0.788213,0.504168,-5.645752,2.807617,-14.434814
4.698895,0.615520,-0.901126,9.933942,0.766831,-0.727140,-0.146678,-5.584717,2.899170,-15.350342
4.708994,0.623304,-0.282612,9.884246,0.774614,-0.108626,-0.196375,-1.525879,2.166748,-11.352539
4.719089,0.743055,-1.005309,9.513018,0.894365,-0.831323,-0.567603,-2.044678,1.800537,-8.331299
4.729186,0.277224,-0.542472,10.141111,0.428534,-0.368486,0.060491,1.037598,2.563477,-6.378174
4.739283,0.097597,-0.387394,10.283615,0.248908,-0.213408,0.202994,1.678467,1.312256,-7.598877
4.749378,0.349074,-0.389789,9.859697,0.500385,-0.215803,-0.220924,2.227783,1.007080,-7.537842
4.759473,0.145497,-0.402962,10.250684,0.296808,-0.228976,0.170063,-0.488281,-0.091553,-10.223389
4.769590,-0.236508,-0.921484,10.784174,-0.085198,-0.747498,0.703553,-1.068115,0.915527,-13.458252
4.779686,-0.032333,-0.749042,10.570419,0.118978,-0.575056,0.489798,1.220703,-1.434326,-10.772705
4.789783,0.069456,-0.863405,9.945917,0.220766,-0.689418,-0.134703,-0.549316,-1.800537,-11.291504
4.799871,0.094603,-0.772993,10.001602,0.245914,-0.599006,-0.079019,-0.549316,-1.708984,-11.932373
4.809973,-0.065264,-0.781375,10.096804,0.086046,-0.607389,0.016183,-3.204346,-2.868652,-12.054443
4.820063,-0.259261,-0.545466,10.342892,-0.107950,-0.371480,0.262271,-5.249023,-2.685547,-11.657715
4.830153,0.025148,-0.241298,10.001602,0.176458,-0.067312,-0.079019,-4.089355,-0.335693,-13.946533
4.840243,-0.131127,-0.366438,9.878857,0.020183,-0.192452,-0.201764,-3.570557,-0.640869,-13.397217
4.850333,-0.248483,-0.501757,10.262060,-0.097173,-0.327770,0.181439,-1.098633,-2.288818,-14.038086
4.860427,-0.347278,-0.501757,10.524315,-0.195967,-0.327770,0.443694,-2.868652,-2.868652,-15.045166
4.870518,-0.204774,-0.452060,10.112970,-0.053464,-0.278074,0.032349,-1.037598,-4.394531,-16.418457
4.880605,-0.163460,-0.073647,10.078242,-0.012149,0.100339,-0.002379,-0.091553,-2.807617,-16.143799
4.890696,-0.245490,-0.376617,10.215357,-0.094179,-0.202631,0.134736,-0.030518,-2.380371,-16.082764
4.900786,-0.566422,0.065264,9.656120,-0.415112,0.239250,-0.424501,-1.831055,-2.624512,-13.427734
4.910875,-0.304766,-0.305365,10.152488,-0.153456,-0.131379,0.071867,-2.929688,-1.617432,-16.357422
4.920993,-0.432900,0.064666,9.784254,-0.281589,0.238652,-0.296367,-0.396729,-1.525879,-16.479492
4.931083,-0.303569,0.194595,9.824370,-0.152258,0.368582,-0.256251,0.488281,0.152588,-15.197754
4.941173,-0.638871,0.044308,9.840536,-0.487561,0.218294,-0.240084,-1.403809,0.366211,-17.333984
4.951262,-0.311951,0.301174,9.890832,-0.160641,0.475160,-0.189789,-0.488281,0.518799,-17.364502
4.961353,-0.665815,0.275427,10.152488,-0.514505,0.449413,0.071867,-0.396729,1.495361,-16.235352
4.971443,-0.444875,0.459844,9.890233,-0.293564,0.633830,-0.190388,2.746582,2.136230,-11.993408
4.981533,-0.673000,0.487386,10.223740,-0.521690,0.661373,0.143119,1.861572,2.044678,-11.840820
4.991623,-0.531694,0.239502,9.753118,-0.380384,0.413488,-0.327502,0.518799,1.586914,-14.495850
5.001716,-0.492177,0.401765,10.166259,-0.340866,0.575751,0.085638,0.152588,1.495361,-14.587402
5.011813,-1.028661,0.538281,10.453063,-0.877350,0.712267,0.372442,-3.967285,1.434326,-15.533447
5.021909,-0.480800,-0.192200,10.053094,-0.329490,-0.018214,-0.027526,-4.455566,0.823975,-15.716553
5.032006,-1.186732,0.465233,10.787168,-1.035422,0.639219,0.706547,-2.166748,1.342773,-12.664795
5.042104,-0.202978,0.050295,9.861493,-0.051667,0.224282,-0.219128,-1.770020,0.885010,-7.934570
5.052201,-0.473016,0.041913,10.117161,-0.321706,0.215899,0.036541,-1.373291,1.190186,-7.354736
5.062297,-0.746049,0.098196,10.357262,-0.594738,0.272182,0.276641,-0.396729,0.457764,-5.920410
5.072394,-0.580193,0.052092,9.755513,-0.428883,0.226078,-0.325107,1.464844,-0.061035,-3.723145
5.082490,-0.630489,0.173040,9.889634,-0.479178,0.347026,-0.190986,-1.739502,-0.427246,-3.051758
5.092587,-0.549657,0.131726,10.043514,-0.398346,0.305712,-0.037106,-2.197266,-0.427246,-3.356934
5.102676,-0.346080,0.241298,9.515413,-0.194770,0.415284,-0.565208,-2.685547,-1.617432,-3.479004
5.112765,-0.593366,0.277822,10.157877,-0.442055,0.451808,0.077256,-2.777100,-0.335693,-1.647949
5.122856,-0.581391,0.186812,10.017768,-0.430080,0.360798,-0.062853,-1.617432,-0.274658,-1.647949
5.132946,-0.359852,0.493374,10.046508,-0.208541,0.667360,-0.034113,-0.091553,-0.793457,0.854492
5.143037,-0.510139,0.874182,10.359058,-0.358829,1.048168,0.278437,0.946045,-0.671387,1.556396
5.153128,-0.229922,0.617316,10.010583,-0.078611,0.791302,-0.070038,-0.549316,-0.854492,-0.915527
5.163219,-0.519719,0.494572,10.131531,-0.368409,0.668558,0.050911,-1.251221,-0.335693,-2.777100
5.173306,-0.553250,0.419128,10.181228,-0.401939,0.593115,0.100607,-1.495361,-0.244141,-3.143311
5.183397,-0.336500,0.365839,10.156080,-0.185190,0.539825,0.075460,-1.342773,-0.427246,-1.312256
5.193487,-0.351469,0.356259,10.008188,-0.200159,0.530245,-0.072433,-0.671387,-0.823975,-0.122070
5.203579,-0.414338,-0.066462,10.082433,-0.263028,0.107524,0.001813,-0.366211,-1.861572,2.502441
5.213675,-0.731080,0.095202,10.104587,-0.579769,0.269188,0.023967,-0.366211,-1.403809,3.936768
5.223772,-0.910706,0.553848,10.364447,-0.759396,0.727834,0.283826,2.166748,-1.617432,8.483887
5.233869,-0.868793,0.323926,10.136321,-0.717483,0.497913,0.055701,1.129150,-1.953125,9.216309
5.243965,-0.923280,0.293390,10.167457,-0.771969,0.467376,0.086836,2.380371,-1.403809,4.699707
5.254061,-0.721500,0.481998,9.970466,-0.570189,0.655984,-0.110154,2.105713,-1.464844,2.471924
5.264158,-0.749042,0.332908,9.946516,-0.597732,0.506894,-0.134105,0.396729,-1.434326,-1.190186
5.274255,-1.129850,0.156874,10.132130,-0.978540,0.330860,0.051509,-0.762939,0.244141,-6.439209
5.284351,-1.019081,0.349673,9.912387,-0.867770,0.523659,-0.168234,-0.671387,-0.854492,-7.904053
5.294447,-1.281335,0.516725,10.084230,-1.130025,0.690712,0.003609,0.427246,-0.061035,-6.744385
5.304536,-1.440005,0.541873,10.057286,-1.288695,0.715859,-0.023335,0.488281,-0.030518,-6.835938
5.314622,-1.340612,0.537083,9.965078,-1.189302,0.711069,-0.115543,-2.014160,-0.030518,-6.317139
5.324709,-1.551973,0.477208,10.029144,-1.400662,0.651194,-0.051476,-2.990723,-0.122070,-5.279541
5.334795,-1.645378,0.285606,10.109976,-1.494068,0.459592,0.029355,-4.028320,-0.305176,-3.082275
5.344881,-1.492696,0.187410,10.095007,-1.341385,0.361396,0.014387,-4.211426,-0.427246,3.753662
5.354968,-1.473536,0.150886,9.972263,-1.322225,0.324872,-0.108358,-3.234863,0.213623,7.324219
5.365075,-1.441203,0.132325,10.129735,-1.289892,0.306311,0.049114,-0.640869,2.349854,17.211914
5.375162,-1.325643,0.401765,9.973460,-1.174333,0.575751,-0.107161,-0.152588,1.556396,21.118164
5.385249,-1.539998,0.352667,10.403366,-1.388687,0.526653,0.322745,0.793457,0.976562,26.550293
5.395336,-1.288521,0.299976,10.082433,-1.137210,0.473962,0.001813,0.823975,0.946045,28.472900
5.405428,-1.213077,0.487985,10.054891,-1.061767,0.661971,-0.025730,0.152588,-0.213623,28.747559
5.415522,-1.223855,0.049697,10.067465,-1.072544,0.223683,-0.013156,-1.678467,-0.549316,28.717041
5.425618,-1.108295,0.468825,9.931547,-0.956985,0.642811,-0.149074,-0.183105,-0.610352,27.862549
5.435711,-0.962199,0.269440,9.725576,-0.810888,0.443426,-0.355045,-2.319336,0.549316,28.686523
5.445804,-1.499881,0.632884,10.344089,-1.348570,0.806870,0.263469,-0.640869,0.610352,28.533936
5.455897,-1.257984,0.452659,10.050101,-1.106673,0.626645,-0.030520,-0.610352,1.068115,27.587891
5.465992,-1.002316,0.279020,10.090816,-0.851005,0.453006,0.010195,-0.488281,-0.579834,24.353027
5.476084,-0.950224,-0.042512,9.740544,-0.798913,0.131475,-0.340076,-1.708984,1.403809,15.014648
5.486177,-0.659828,0.361049,9.504036,-0.508517,0.535035,-0.576584,-1.434326,1.312256,12.969971
5.496270,-0.737666,0.392184,10.331516,-0.586355,0.566171,0.250895,-0.213623,1.312256,12.176514
5.506358,-0.737067,-0.147294,9.693243,-0.585757,0.026692,-0.387378,-1.922607,1.953125,9.368896
5.516445,-1.059796,-0.091609,10.963801,-0.908486,0.082377,0.883180,-0.671387,2.471924,8.728027
5.526535,-0.997526,-0.301772,10.442884,-0.846215,-0.127786,0.362263,-1.525879,2.899170,3.875732
5.536622,-1.043630,-0.121547,9.736353,-0.892319,0.052439,-0.344268,-2.227783,3.601074,2.227783
5.546711,-0.469424,-0.267045,10.157278,-0.318113,-0.093058,0.076657,-1.831055,3.509521,0.701904
5.556798,-0.792153,-0.201182,9.639355,-0.640842,-0.027195,-0.441266,-1.739502,2.410889,-0.244141
5.566886,-0.732876,0.095801,9.998608,-0.581565,0.269787,-0.082013,0.274658,2.075195,-0.335693
5.577041,-0.940045,-0.268242,10.455458,-0.788735,-0.094256,0.374837,1.922607,2.777100,-0.518799
5.587133,-0.841251,-0.578397,10.236912,-0.689940,-0.404411,0.156291,1.831055,0.732422,-1.647949
5.597223,-0.638273,-0.051493,9.835746,-0.486962,0.122493,-0.244874,1.251221,1.983643,-2.197266
5.607312,-0.811313,0.073647,10.139914,-0.660002,0.247633,0.059293,0.396729,0.152588,-2.288818
5.617401,-1.322650,-0.344284,10.208172,-1.171339,-0.170298,0.127551,2.105713,1.342773,-3.387451
5.627490,-1.098116,-0.796344,10.318942,-0.946806,-0.622358,0.238321,1.739502,1.892090,-4.669189
5.637579,-0.696352,0.200583,9.109457,-0.545041,0.374569,-0.971164,2.075195,-0.183105,-6.500244
5.647667,-0.815504,-0.279619,10.317145,-0.664194,-0.105632,0.236525,1.525879,1.678467,-5.096436
5.657757,-0.902324,-0.146096,9.768686,-0.751013,0.027890,-0.311935,3.417969,1.770020,-5.981445
5.667845,-0.887355,-0.550256,9.794432,-0.736044,-0.376270,-0.286188,2.807617,-0.457764,-7.141113
5.677934,-0.903521,-0.766406,9.951306,-0.752211,-0.592420,-0.129315,3.417969,0.061035,-4.791260
5.688020,-0.991538,-0.350870,10.130933,-0.840227,-0.176884,0.050312,2.349854,0.762939,-0.732422
5.698109,-1.215472,-0.592767,10.579999,-1.064162,-0.418781,0.499378,2.197266,0.579834,-1.342773
5.708203,-0.758024,-0.966390,10.058483,-0.606713,-0.792404,-0.022137,2.075195,1.617432,-1.556396
5.718299,-0.735870,-0.030536,9.664503,-0.584559,0.143450,-0.416118,0.732422,0.518799,-1.312256
5.728392,-0.592169,0.037722,9.836345,-0.440858,0.211708,-0.244276,0.854492,0.671387,-1.220703
5.738489,-0.896336,-0.085023,9.682465,-0.745025,0.088963,-0.398156,0.854492,-0.122070,-3.051758
5.748582,-0.929866,-0.150287,10.137519,-0.778556,0.023699,0.056898,0.976562,0.366211,-3.173828
5.758678,-0.622705,-0.408950,10.323732,-0.471394,-0.234963,0.243111,2.777100,0.854492,-3.051758
5.768773,-0.742456,-0.364642,10.087822,-0.591145,-0.190656,0.007202,3.143311,0.915527,-2.075195
5.778865,-0.688568,-0.289797,9.372909,-0.537258,-0.115811,-0.707712,3.143311,1.220703,-1.586914
5.788953,-0.699944,-0.261656,10.399774,-0.548634,-0.087670,0.319153,3.509521,0.427246,-0.976562
5.799051,-0.768203,-0.249082,10.186617,-0.616892,-0.075096,0.105996,4.638672,0.274658,1.525879
5.809144,-0.870590,-0.180824,9.990225,-0.719279,-0.006838,-0.090396,2.380371,0.244141,3.906250
5.819234,-0.638273,-0.728685,10.056687,-0.486962,-0.554698,-0.023934,0.061035,-0.274658,1.739502
5.829323,-0.690963,-0.389191,10.100995,-0.539653,-0.215204,0.020374,2.258301,-0.091553,-0.549316
5.839412,-0.774190,-0.201182,10.274634,-0.622879,-0.027195,0.194013,1.922607,-0.518799,-0.061035
5.849501,-0.644260,-0.484393,10.337503,-0.492950,-0.310407,0.256882,1.312256,-0.213623,1.495361
5.859591,-0.706531,-0.644260,10.118359,-0.555220,-0.470274,0.037738,1.281738,-0.488281,2.258301
5.869692,-0.799338,-0.427511,10.100995,-0.648027,-0.253525,0.020374,0.823975,-1.037598,3.326416
5.879784,-1.051414,-0.568218,10.758428,-0.900103,-0.394232,0.677807,-0.183105,1.434326,6.408691
5.889874,-0.471819,-0.574206,9.911788,-0.320508,-0.400220,-0.168832,-0.335693,-0.152588,5.584717
5.899963,-0.857417,-0.782573,9.878857,-0.706106,-0.608586,-0.201764,-1.617432,-0.366211,7.965088
5.910052,-0.739462,-0.371827,10.041119,-0.588152,-0.197841,-0.039501,0.152588,-0.518799,8.636475
5.920143,-0.537083,-0.497565,10.017768,-0.385773,-0.323579,-0.062853,0.091553,0.274658,8.575439
5.930233,-1.047821,-0.136516,10.551857,-0.896510,0.037470,0.471237,1.678467,0.640869,9.124756
5.940322,-1.034648,-0.508942,10.718311,-0.883338,-0.334955,0.637690,2.044678,0.640869,9.979248
5.950413,-0.826282,-0.626896,9.927955,-0.674971,-0.452910,-0.152666,-0.793457,-1.586914,10.192871
5.960505,-0.871787,-0.810115,9.807605,-0.720477,-0.636129,-0.273016,-0.823975,-2.349854,10.559082
5.970594,-0.944835,-0.829874,10.224338,-0.793525,-0.655888,0.143718,0.793457,-0.122070,13.214111
5.980685,-1.208886,-0.948428,10.392589,-1.057576,-0.774442,0.311968,2.441406,-0.701904,14.465332
5.990780,-0.746049,-0.324525,9.599238,-0.594738,-0.150539,-0.481382,1.312256,0.305176,16.326904
6.000873,-0.683179,-0.551453,10.074051,-0.531869,-0.377467,-0.006570,-1.312256,-0.793457,16.357422
6.010964,-0.877176,-0.668809,9.812994,-0.725865,-0.494823,-0.267627,-1.525879,0.915527,17.883301
6.021055,-0.751437,-0.582589,10.041718,-0.600127,-0.408602,-0.038903,0.274658,1.129150,19.622803
6.031147,-0.990341,-1.280138,10.291399,-0.839030,-1.106152,0.210778,-0.915527,0.213623,19.409180
6.041238,-1.195115,-0.862806,9.821975,-1.043804,-0.688820,-0.258646,-0.793457,-0.366211,19.744873
6.051329,-0.917891,-0.758024,10.229128,-0.766581,-0.584037,0.148508,-1.861572,0.244141,20.568848
6.061419,-0.556243,-0.993933,9.984238,-0.404933,-0.819947,-0.096383,-1.342773,-0.366211,19.805908
6.071510,-0.700543,-1.116079,10.194999,-0.549233,-0.942093,0.114379,0.244141,-0.732422,20.294189
6.081599,1.700464,-1.589095,10.422526,1.851774,-1.415109,0.341906,2.227783,3.692627,37.719727
6.091690,-1.247206,-0.738864,9.842932,-1.095896,-0.564877,-0.237689,2.349854,1.831055,34.393311
6.101781,-0.852028,-0.620909,10.291998,-0.700718,-0.446923,0.211377,2.319336,1.403809,27.862549
6.111873,-1.271755,-0.720901,10.295590,-1.120445,-0.546915,0.214969,2.563477,1.159668,21.545410
6.121971,-0.875380,-0.893342,9.795630,-0.724069,-0.719356,-0.284991,2.960205,-0.823975,20.141602
6.132068,-0.788560,-1.071771,10.061477,-0.637250,-0.897785,-0.019144,2.593994,-0.732422,21.148682
6.142165,-0.722697,-1.070574,9.785451,-0.571387,-0.896588,-0.295170,1.770020,-1.831055,21.911621
6.152262,-0.540077,-0.946631,9.992021,-0.388766,-0.772645,-0.088599,-0.976562,-5.676270,20.416260
6.162360,-0.520917,-0.957409,10.075248,-0.369606,-0.783423,-0.005372,-1.861572,-5.493164,20.202637
6.172456,-0.676593,-0.757425,10.137519,-0.525282,-0.583439,0.056898,-0.946045,-3.845215,20.721436
6.182553,-0.722697,-0.659828,10.242900,-0.571387,-0.485842,0.162279,0.915527,-1.220703,21.057129
6.192655,-0.811313,-0.848436,10.296189,-0.660002,-0.674449,0.215568,1.159668,0.091553,20.690918
6.202756,-0.855022,-0.936453,10.274035,-0.703711,-0.762466,0.193414,2.410889,2.227783,20.660400
6.212844,-0.729283,-0.843646,10.179432,-0.577973,-0.669659,0.098811,3.265381,3.173828,21.240234
6.222935,-0.719105,-0.902324,10.303374,-0.567794,-0.728337,0.222753,5.310059,5.157471,20.538330
6.232994,-0.464634,-0.816103,10.109976,-0.313323,-0.642117,0.029355,4.913330,6.256104,18.707275
6.243085,-0.473016,-0.824485,10.036329,-0.321706,-0.650499,-0.044291,5.157471,8.300781,18.066406
6.253177,-0.528102,-1.084944,10.047107,-0.376791,-0.910958,-0.033514,5.767822,13.397217,19.012451
6.263268,-0.564027,-1.293311,9.984238,-0.412717,-1.119324,-0.096383,4.180908,13.824463,20.050049
6.273359,-0.598156,-1.497486,9.907597,-0.446846,-1.323500,-0.173024,0.793457,9.887695,23.437500
6.283450,-0.756227,-1.820814,9.806407,-0.604917,-1.646827,-0.274213,-1.678467,6.408691,26.184082
6.293551,-0.820294,-1.810635,10.145901,-0.668984,-1.636649,0.065281,-3.723145,1.586914,33.599854
6.303644,-0.563428,-1.592688,9.858499,-0.412118,-1.418702,-0.222122,-3.234863,-1.983643,37.506104
6.313737,-0.443079,-1.597478,9.803414,-0.291768,-1.423492,-0.277207,-3.021240,-2.227783,40.710449
6.323825,-0.468226,-1.554966,9.921368,-0.316916,-1.380980,-0.159252,-0.305176,-6.622314,46.325684
6.333917,-0.182620,-1.630410,9.168135,-0.031310,-1.456423,-0.912486,-0.061035,-14.739990,48.217773
6.344007,-1.077160,-1.160986,11.305091,-0.925849,-0.987000,1.224470,2.410889,-6.622314,48.950195
6.354100,-0.232317,-0.876577,10.173444,-0.081006,-0.702591,0.092823,6.256104,-8.209229,47.210693
6.364188,-0.302371,-0.877775,10.230326,-0.151061,-0.703788,0.149705,0.946045,0.579834,41.809082
6.374278,-0.350870,-1.253194,10.076446,-0.199560,-1.079208,-0.004175,0.305176,1.739502,38.391113
6.384369,-0.353265,-1.225651,10.160272,-0.201955,-1.051665,0.079651,-2.990723,5.187988,31.585693
6.394456,-0.143102,-1.023871,10.316547,0.008208,-0.849885,0.235926,-3.265381,5.218506,29.968262
6.404545,0.034728,-1.362766,9.862092,0.186038,-1.188780,-0.218529,-3.723145,4.180908,29.968262
6.414642,0.146096,-1.118474,9.992021,0.297407,-0.944488,-0.088599,-2.960205,-0.701904,32.440186
6.424739,0.115560,-1.366957,10.035132,0.266870,-1.192971,-0.045489,-2.136230,-3.326416,34.759521
6.434875,0.192200,-0.995131,10.238110,0.343511,-0.821144,0.157489,1.647949,-7.385254,38.818359
6.445009,0.224533,-0.916694,10.117760,0.375844,-0.742708,0.037139,3.082275,-7.843018,38.299561
6.455118,0.189805,-0.916095,10.180031,0.341116,-0.742109,0.099410,2.532959,-5.584717,38.116455
6.465210,0.038919,-1.012495,10.427316,0.190230,-0.838508,0.346696,1.708984,-2.777100,35.705566
6.475309,0.220342,-0.828677,10.190209,0.371652,-0.654691,0.109589,1.312256,-1.983643,33.752441
6.485446,0.254471,-0.906515,10.109976,0.405781,-0.732529,0.029355,-0.762939,-1.434326,28.503418
6.495545,-0.014370,-1.224454,10.021959,0.136940,-1.050468,-0.058662,-1.037598,-1.037598,25.238037
6.505643,0.036524,-0.427511,10.435100,0.187835,-0.253525,0.354479,1.464844,-6.561279,24.902344
6.515734,0.580792,-0.844843,9.865085,0.732103,-0.670857,-0.215535,-0.610352,-8.666992,23.864746
6.525827,0.650248,-1.061592,9.717792,0.801558,-0.887606,-0.362829,-2.807617,-6.134033,18.157959
6.535919,0.259860,-1.103505,10.262060,0.411170,-0.929519,0.181439,-4.791260,-5.737305,16.845703
6.546040,0.428110,-0.900527,10.183623,0.579420,-0.726541,0.103002,-3.326416,-4.333496,17.974854
6.556131,0.376018,-1.090931,9.960886,0.527329,-0.916945,-0.119735,0.274658,-1.708984,18.218994
6.566223,0.111967,-0.665815,10.269844,0.263278,-0.491829,0.189223,-0.183105,-1.953125,19.287109
6.576314,0.120350,-0.794548,10.141111,0.271660,-0.620562,0.060491,-0.701904,-1.617432,20.812988
6.586406,0.190404,-0.723895,10.386002,0.341715,-0.549908,0.305381,0.122070,-0.183105,18.096924
6.596494,0.169448,-0.629291,10.103390,0.320758,-0.455305,0.022769,0.427246,-0.518799,16.784668
6.606590,0.178429,-0.842448,9.939331,0.329740,-0.668462,-0.141290,-0.030518,-0.732422,18.463135
6.616682,0.058678,-0.626896,10.205777,0.209989,-0.452910,0.125156,-0.793457,-0.671387,19.714355
6.626773,0.022154,-1.025068,10.309362,0.173465,-0.851082,0.228741,-2.197266,0.091553,19.622803
6.636864,0.117955,-0.737067,10.041119,0.269265,-0.563081,-0.039501,-1.373291,0.854492,18.829346
6.646955,0.147294,-0.829874,10.368638,0.298604,-0.655888,0.288018,-2.044678,-0.183105,18.981934
6.657045,0.149689,-0.919687,10.023157,0.300999,-0.745701,-0.057464,-2.655029,-0.946045,19.592285
6.667135,0.188009,-0.774190,9.980046,0.339320,-0.600204,-0.100574,-2.624512,-1.220703,18.737793
6.677225,0.259261,-0.779579,9.973460,0.410571,-0.605593,-0.107161,-2.624512,-0.793457,16.967773
6.687316,-0.081431,-0.517923,10.200987,0.069880,-0.343937,0.120366,-2.716064,-0.701904,14.495850
6.697405,-0.104782,-0.902922,10.402169,0.046528,-0.728936,0.321548,-3.448486,-0.244141,12.298584
6.707493,0.053888,-1.078956,10.054891,0.205199,-0.904970,-0.025730,-4.302979,-0.396729,10.925293
6.717586,-0.044308,-0.920286,10.017169,0.107003,-0.746300,-0.063452,-1.556396,-0.213623,9.216309
6.727682,-0.233514,-1.020877,9.933942,-0.082204,-0.846891,-0.146678,-0.274658,-1.495361,8.666992
6.737780,-0.265248,-0.884361,9.875863,-0.113938,-0.710375,-0.204758,1.281738,-1.495361,5.340576
6.747877,0.067659,-1.102308,10.412347,0.218970,-0.928322,0.331727,1.068115,-1.434326,4.486084
6.757974,-0.289199,-0.836461,10.030342,-0.137888,-0.662474,-0.050279,1.770020,-1.098633,3.540039
6.768070,-0.429307,-0.736469,10.512339,-0.277997,-0.562482,0.431719,0.549316,-0.274658,4.119873
6.778167,-0.167651,-0.699944,10.270443,-0.016341,-0.525958,0.189822,-1.312256,-0.213623,5.279541
6.788261,-0.013173,-1.074166,10.351274,0.138138,-0.900180,0.270654,-4.516602,-2.075195,6.652832
6.798359,0.220342,-0.966390,10.302775,0.371652,-0.792404,0.222155,-4.028320,-1.800537,7.232666
6.808461,-0.322729,-0.773591,9.935739,-0.171418,-0.599605,-0.144882,-1.892090,-1.068115,8.789062
6.818554,-0.386796,-0.547861,10.157278,-0.235485,-0.373875,0.076657,-0.946045,-2.685547,9.735107
6.828645,-0.278421,-0.480201,9.804012,-0.127110,-0.306215,-0.276608,1.007080,-0.762939,10.070801
6.838734,-0.559237,-1.011896,10.036928,-0.407926,-0.837910,-0.043693,2.319336,0.885010,9.613037
6.848823,-0.454455,-0.806523,10.131531,-0.303144,-0.632537,0.050911,2.410889,1.190186,7.904053
6.858913,-0.386197,-1.348396,10.139914,-0.234886,-1.174410,0.059293,1.342773,2.685547,5.401611
6.869003,-0.525707,-1.247805,10.100995,-0.374396,-1.073819,0.020374,1.312256,2.349854,4.180908
6.879093,-0.277822,-0.956212,10.545271,-0.126512,-0.782225,0.464650,-1.770020,2.075195,4.486084
6.889186,-0.535287,-0.710722,10.015972,-0.383976,-0.536736,-0.064649,0.854492,1.190186,6.286621
6.899277,-0.519120,-0.306563,10.168654,-0.367810,-0.132576,0.088033,-2.166748,-0.152588,8.178711
6.909366,-0.381407,-0.301174,10.291399,-0.230096,-0.127188,0.210778,-1.525879,-0.946045,7.537842
6.919456,-0.387394,-0.123344,10.280023,-0.236084,0.050643,0.199402,0.366211,-0.427246,6.805420
6.929546,-0.366438,-0.201780,10.218351,-0.215127,-0.027794,0.137730,0.823975,0.732422,7.141113
6.939636,-0.216749,-0.115560,9.953102,-0.065439,0.058427,-0.127518,-0.823975,1.251221,8.972168
6.949726,-0.527503,-0.388592,10.203981,-0.376192,-0.214606,0.123360,-2.380371,0.427246,9.796143
6.959816,-0.053289,-0.069456,10.286609,0.098021,0.104531,0.205988,-2.777100,1.556396,9.704590
6.969905,-0.641266,-0.326920,10.398576,-0.489956,-0.152934,0.317955,-3.784180,1.678467,10.803223
6.979994,-0.584385,-0.210762,10.523716,-0.433074,-0.036776,0.443095,-4.638672,0.732422,11.718750
6.990086,-0.549657,-0.132924,10.327923,-0.398346,0.041063,0.247302,-4.119873,0.701904,13.366699
7.000175,0.102387,0.053289,10.653646,0.253698,0.227275,0.573025,-4.364014,1.464844,13.183594
7.010265,-0.005988,0.109572,9.433982,0.145323,0.283558,-0.646639,-3.570557,-0.305176,12.725830
7.020359,-0.666414,0.062271,11.176359,-0.515104,0.236257,1.095738,-2.655029,0.274658,11.413574
7.030456,0.052092,0.135917,10.463242,0.203402,0.309904,0.382621,-2.990723,-1.312256,13.519287
7.040553,-0.241897,-0.170046,9.977053,-0.090586,0.003940,-0.103568,-3.845215,-1.403809,12.298584
7.050648,-0.387394,0.025148,9.860295,-0.236084,0.199134,-0.220325,-3.509521,-1.586914,12.115479
7.060745,-0.749042,-0.107177,9.809401,-0.597732,0.066809,-0.271219,-5.035400,-2.685547,14.343262
7.070842,-0.084424,-0.368234,9.895023,0.066886,-0.194248,-0.185598,-4.669189,-2.044678,16.265869
7.080938,0.114362,-0.145497,9.587862,0.265673,0.028489,-0.492759,-4.943848,-1.312256,17.608643
7.091034,-0.115560,0.158670,9.921967,0.035751,0.332656,-0.158654,-2.960205,-1.068115,20.721436
7.101131,-0.328716,0.346080,10.533296,-0.177406,0.520067,0.452675,-1.861572,-1.159668,20.324707
7.111227,-0.412542,0.310155,10.691966,-0.261232,0.484141,0.611345,-2.075195,2.410889,18.096924
7.121320,-0.529898,0.241897,10.508747,-0.378587,0.415883,0.428126,0.305176,-0.885010,16.906738
7.131411,-0.338297,0.376617,10.135723,-0.186986,0.550603,0.055102,-1.312256,-1.800537,14.312744
7.141501,-0.224533,0.492177,9.899813,-0.073222,0.666163,-0.180808,-0.976562,-1.739502,13.244629
7.151591,-0.505948,0.425116,10.086026,-0.354637,0.599102,0.005405,-0.823975,-1.312256,12.237549
7.161680,-0.501757,0.825683,10.154284,-0.350446,0.999669,0.073663,0.549316,-0.091553,12.054443
7.171770,-0.311353,0.705932,10.130334,-0.160042,0.879918,0.049713,2.319336,-0.030518,12.817383
7.181860,-0.246088,0.733475,10.038724,-0.094778,0.907461,-0.041896,3.082275,-0.610352,14.801025
7.191949,-0.327519,0.768801,9.981843,-0.176208,0.942787,-0.098778,4.211426,0.244141,15.594482
7.202039,-0.435295,0.684377,10.166858,-0.283984,0.858363,0.086237,4.241943,0.885010,14.434814
7.212131,-0.176034,0.681982,10.015373,-0.024723,0.855968,-0.065248,3.479004,0.213623,12.786865
7.222223,-0.197589,0.827479,10.143506,-0.046279,1.001465,0.062886,2.807617,-0.274658,10.437012
7.232321,-0.061073,0.746049,10.005194,0.090238,0.920035,-0.075427,3.723145,-0.030518,9.826660
7.242416,-0.285606,0.837059,10.040521,-0.134295,1.011046,-0.040100,4.150391,-0.610352,9.002686
7.252513,-0.293989,0.846041,9.972263,-0.142678,1.020027,-0.108358,4.180908,0.732422,7.965088
7.262609,-0.314945,0.774190,10.097402,-0.163634,0.948176,0.016782,3.570557,0.976562,8.575439
7.272705,-0.174238,0.904719,10.023755,-0.022927,1.078705,-0.056865,3.234863,0.000000,9.490967
7.282802,-0.031734,0.865201,9.986034,0.119577,1.039187,-0.094587,2.838135,-1.037598,9.765625
7.292898,0.114961,0.743654,9.869277,0.266272,0.917640,-0.211344,1.922607,0.457764,9.765625
7.302995,-0.026944,1.067580,9.993818,0.124367,1.241566,-0.086803,1.953125,0.885010,9.735107
7.313092,-0.201780,0.768203,9.817185,-0.050470,0.942189,-0.263436,1.434326,-0.671387,9.368896
7.323180,-0.111368,1.023272,9.883647,0.039942,1.197258,-0.196974,-0.488281,-0.518799,8.697510
7.333270,0.158071,0.878972,9.943522,0.309382,1.052958,-0.137098,-0.366211,-1.647949,7.141113
7.343360,0.174238,1.104703,10.544672,0.325548,1.278689,0.464051,-1.678467,-1.403809,5.950928
7.353450,-0.092208,1.035247,10.235116,0.059102,1.209233,0.154495,-1.861572,-0.793457,5.187988
7.363540,0.019160,0.880170,9.965676,0.170471,1.054156,-0.114944,-3.784180,0.762939,3.723145
7.373631,0.067061,0.587379,10.005793,0.218371,0.761365,-0.074828,-3.479004,0.946045,2.807617
7.383719,0.150287,0.805325,10.075847,0.301598,0.979312,-0.004774,-2.471924,0.793457,1.953125
7.393809,-0.056882,0.946631,9.972263,0.094429,1.120618,-0.108358,-0.030518,1.251221,0.762939
7.403899,-0.100591,0.971180,10.137519,0.050720,1.145167,0.056898,0.305176,0.854492,0.427246
7.413987,-0.195793,0.998723,10.139315,-0.044482,1.172709,0.058694,0.610352,-1.678467,-0.671387
7.424078,0.133522,1.136437,9.918973,0.284833,1.310423,-0.161647,-0.152588,-2.349854,-1.434326
7.434175,0.133522,0.860411,10.070458,0.284833,1.034397,-0.010162,-0.305176,-1.861572,-2.990723
7.444270,0.077838,0.760419,10.080637,0.229149,0.934405,0.000016,0.000000,-1.251221,-3.601074
7.454366,0.152682,1.016087,10.315948,0.303993,1.190073,0.235327,1.190186,-0.244141,-3.143311
7.464462,0.141905,0.865800,10.034533,0.293216,1.039786,-0.046088,1.861572,0.152588,-1.892090
7.474558,0.255668,0.870590,10.067465,0.406979,1.044576,-0.013156,1.770020,-0.213623,-1.525879
7.484655,0.283810,0.958607,10.089619,0.435120,1.132593,0.008998,0.396729,0.335693,-3.173828
7.494750,0.413740,0.908311,10.017768,0.565050,1.082297,-0.062853,-1.098633,0.579834,-3.295898
7.504858,0.273631,0.812510,10.138118,0.424942,0.986497,0.057497,-0.946045,0.762939,-3.204346
7.514965,0.226329,0.786764,10.226733,0.377640,0.960750,0.146113,0.671387,0.274658,-3.295898
7.525055,0.049098,0.750839,10.238110,0.200408,0.924825,0.157489,0.701904,-0.091553,-2.777100
7.535144,0.365839,0.769400,10.087822,0.517150,0.943386,0.007202,0.091553,0.152588,-2.471924
7.545234,0.321531,0.734672,10.109377,0.472842,0.908658,0.028757,0.671387,0.549316,-2.075195
7.555323,0.377216,0.635279,10.132729,0.528526,0.809265,0.052108,1.983643,1.434326,1.312256
7.565413,0.459245,0.647853,10.047107,0.610556,0.821839,-0.033514,2.532959,1.586914,3.021240
7.575502,0.361648,0.406555,10.045909,0.512959,0.580541,-0.034711,1.892090,0.488281,5.187988
7.585591,0.482596,0.608934,9.692045,0.633907,0.782920,-0.388575,0.823975,0.213623,4.669189
7.595680,0.535287,0.682581,10.276430,0.686597,0.856567,0.195809,-0.518799,-1.647949,2.471924
7.605770,0.705333,0.577798,10.023157,0.856644,0.751785,-0.057464,-0.854492,-1.617432,1.281738
7.615860,0.531096,0.587977,9.971065,0.682406,0.761963,-0.109556,0.610352,-1.586914,0.671387
7.625955,0.480800,0.390987,9.974658,0.632111,0.564973,-0.105963,0.274658,-0.030518,-0.793457
7.636053,0.613125,0.464634,10.123748,0.764436,0.638620,0.043127,0.122070,-0.091553,-2.349854
7.646149,0.622705,0.686173,9.887239,0.774016,0.860159,-0.193381,-0.122070,0.885010,-3.448486
7.656246,0.404160,0.664618,10.109377,0.555470,0.838604,0.028757,0.335693,0.610352,-2.807617
7.666343,0.452060,0.441881,10.063872,0.603371,0.615867,-0.016749,0.488281,0.030518,-2.624512
7.676439,0.541873,0.652044,9.983040,0.693184,0.826030,-0.097581,-0.030518,-0.366211,-3.143311
7.686536,0.595162,0.726888,10.131531,0.746473,0.900875,0.050911,-0.976562,-0.457764,-3.570557
7.696631,0.638871,0.486788,9.891431,0.790182,0.660774,-0.189190,-3.662109,-1.220703,-5.279541
7.706728,0.417931,0.365839,10.138716,0.569242,0.539825,0.058096,-2.990723,-1.831055,-6.622314
7.716825,0.487386,0.369432,10.431508,0.638697,0.543418,0.350887,-1.068115,-1.495361,-5.462646
7.726916,0.469424,0.092208,10.166858,0.620734,0.266194,0.086237,0.244141,-1.068115,-3.723145
7.737006,0.454455,0.136516,10.015373,0.605766,0.310502,-0.065248,-0.030518,0.396729,-1.342773
7.747096,0.370031,0.139510,10.160870,0.521341,0.313496,0.080250,2.258301,1.098633,-0.122070
7.757185,0.530497,0.020956,10.023157,0.681807,0.194943,-0.057464,2.319336,1.037598,2.258301
7.767279,0.586181,-0.143701,9.918973,0.737492,0.030285,-0.161647,2.227783,0.671387,4.791260
7.777369,0.556842,-0.014370,10.008787,0.708153,0.159616,-0.071834,2.471924,0.366211,6.011963
7.787457,0.695154,0.047302,9.950707,0.846465,0.221288,-0.129913,0.915527,-0.274658,6.500244
7.797547,0.653840,-0.270637,10.218351,0.805151,-0.096651,0.137730,-0.518799,-0.518799,5.950928
7.807637,0.668210,0.028141,9.924362,0.819521,0.202128,-0.156259,0.579834,-0.213623,5.615234
7.817729,0.804727,0.067659,10.118359,0.956037,0.241645,0.037738,0.549316,0.000000,5.065918
7.827820,0.842448,0.170645,10.157278,0.993759,0.344631,0.076657,0.335693,0.366211,2.288818
7.837914,0.748444,0.086819,10.085427,0.899754,0.260806,0.004807,-1.129150,0.732422,0.640869
7.848002,0.899929,0.127535,10.381811,1.051239,0.301521,0.301190,-1.312256,1.251221,-1.007080
7.858094,1.051414,-0.425715,10.296189,1.202724,-0.251729,0.215568,-4.333496,1.403809,-5.126953
7.868184,0.874182,-0.247286,10.163864,1.025493,-0.073300,0.083243,-1.647949,0.549316,-6.683350
7.878275,1.196911,-0.007185,9.759705,1.348222,0.166801,-0.320916,-1.556396,0.854492,-6.103516
7.888365,1.099913,-0.078437,9.948312,1.251223,0.095549,-0.132308,-1.770020,1.434326,-7.629395
7.898454,0.903521,-0.088017,10.013577,1.054832,0.085969,-0.067044,-0.213623,0.091553,-9.613037
7.908544,0.992736,0.103585,9.910591,1.144046,0.277571,-0.170030,1.861572,0.366211,-8.728027
7.918634,0.625699,0.039518,10.674602,0.777009,0.213504,0.593981,4.425049,-0.091553,-7.415771
7.928721,0.823887,-0.331710,9.981244,0.975197,-0.157724,-0.099377,2.044678,-0.549316,-8.728027
7.938812,0.750839,-0.360450,10.035731,0.902149,-0.186464,-0.044890,-0.244141,0.274658,-10.620117
7.948902,0.914299,-0.518522,9.935140,1.065609,-0.344536,-0.145481,1.586914,-0.579834,-13.793945
7.958993,0.954415,-0.090412,9.857900,1.105726,0.083574,-0.222720,6.011963,0.122070,-11.505127
7.969084,1.029858,-0.123344,9.783056,1.181169,0.050643,-0.297565,2.838135,-0.122070,-13.092041
7.979173,0.913101,-0.013173,10.433304,1.064412,0.160814,0.352683,2.166748,0.518799,-16.967773
7.989264,0.658032,-0.201780,10.224338,0.809342,-0.027794,0.143718,2.349854,-0.915527,-19.622803
7.999354,1.014890,-0.178429,9.724378,1.166200,-0.004443,-0.356243,4.913330,-0.030518,-18.859863
8.009444,0.601749,-0.095202,10.367441,0.753059,0.078784,0.286820,5.859375,0.610352,-18.341064
8.019534,0.514330,-0.516127,10.490784,0.665641,-0.342141,0.410164,-0.854492,0.213623,-22.766113
8.029626,0.493973,-0.553848,10.350077,0.645283,-0.379862,0.269456,-1.007080,-0.518799,-24.902344
8.039726,0.761616,-0.065264,10.169253,0.912927,0.108722,0.088632,1.739502,0.305176,-21.301270
8.049825,1.017883,-0.026345,9.975256,1.169194,0.147641,-0.105364,3.234863,0.427246,-20.843506
8.059924,1.035247,-0.253273,9.688453,1.186558,-0.079287,-0.392168,3.601074,0.854492,-20.599365
8.070019,0.791554,-0.342488,9.798624,0.942865,-0.168502,-0.281997,2.349854,0.396729,-22.277832
8.080116,0.767604,-0.693358,10.521321,0.918914,-0.519372,0.440700,0.518799,-1.098633,-24.505615
8.090213,0.846041,-0.314346,10.459649,0.997351,-0.140360,0.379028,2.044678,0.274658,-23.956299
8.100309,0.865800,-0.372426,10.129735,1.017110,-0.198439,0.049114,1.373291,0.061035,-23.681641
8.110406,1.163381,-0.684976,10.130933,1.314691,-0.510989,0.050312,1.861572,-0.244141,-24.291992
8.120502,0.816702,-0.532293,9.988429,0.968012,-0.358307,-0.092192,1.281738,-0.183105,-24.353027
8.130593,0.804128,-0.706531,9.978250,0.955438,-0.532545,-0.102371,-0.366211,-0.854492,-25.299072
8.140681,0.785566,-0.622705,10.059681,0.936877,-0.448719,-0.020940,-1.098633,-1.159668,-26.885986
8.150771,0.877176,-0.486788,9.962084,1.028487,-0.312802,-0.118537,-1.586914,-1.129150,-28.259277
8.160861,0.813708,-0.479004,10.080637,0.965018,-0.305018,0.000016,0.732422,0.457764,-27.679443
8.170952,0.685574,-0.761616,10.256072,0.836885,-0.587630,0.175452,1.556396,0.183105,-26.977539
8.181042,0.561632,-0.589175,10.391391,0.712943,-0.415189,0.310770,3.540039,0.610352,-26.275635
8.191132,0.765807,-0.789758,10.068662,0.917118,-0.615771,-0.011959,2.929688,0.518799,-26.794434
8.201221,0.672402,-0.969384,10.134525,0.823712,-0.795398,0.053904,2.105713,-0.335693,-27.435303
8.211311,0.629291,-0.962199,10.104587,0.780602,-0.788213,0.023967,1.434326,-0.366211,-27.465820
8.221401,0.678988,-1.001717,10.020163,0.830299,-0.827731,-0.060458,0.823975,-0.061035,-27.465820
8.231496,0.703537,-0.937051,9.969269,0.854848,-0.763065,-0.111352,0.061035,0.000000,-26.824951
8.241597,0.627495,-0.849034,10.296189,0.778806,-0.675048,0.215568,-1.403809,0.122070,-26.641846
8.251697,0.382006,-0.986748,9.906998,0.533316,-0.812762,-0.173622,-1.312256,0.335693,-26.062012
8.261794,0.393382,-0.874182,10.119556,0.544693,-0.700196,0.038936,-1.373291,0.213623,-24.932861
8.271892,0.655038,-0.895737,10.159074,0.806348,-0.721751,0.078453,-1.892090,0.396729,-24.047852
8.281990,0.486788,-1.301693,10.184222,0.638098,-1.127707,0.103601,-1.098633,-0.122070,-22.888184
8.292087,0.576002,-1.324446,9.905801,0.727313,-1.150460,-0.174820,-1.068115,-0.274658,-21.484375
8.302184,0.505948,-1.501078,10.003398,0.657258,-1.327092,-0.077223,-1.037598,0.030518,-18.829346
8.312281,0.453856,-1.599274,10.029144,0.605167,-1.425288,-0.051476,-1.525879,0.305176,-18.402100
8.322375,0.291594,-1.698069,10.148895,0.442904,-1.524083,0.068275,-1.037598,-0.335693,-18.371582
8.332465,0.299976,-1.593287,9.906998,0.451287,-1.419301,-0.173622,0.366211,0.213623,-17.120361
8.342554,0.293390,-1.583108,10.162667,0.444700,-1.409122,0.082046,1.007080,0.549316,-15.502930
8.352644,0.041314,-1.742377,9.944720,0.192625,-1.568391,-0.135901,1.953125,0.488281,-14.160156
8.362735,0.011975,-1.833387,10.007589,0.163286,-1.659401,-0.073032,1.770020,0.488281,-12.664795
8.372823,0.002994,-1.614842,10.012978,0.154304,-1.440856,-0.067643,1.953125,0.610352,-10.589600
8.382914,0.012574,-1.677711,10.149494,0.163884,-1.503725,0.068873,0.305176,0.213623,-11.047363
8.393004,0.003593,-1.553769,10.085427,0.154903,-1.379783,0.004807,-0.396729,-0.122070,-9.826660
8.403095,0.056283,-1.548380,10.099199,0.207594,-1.374394,0.018578,-0.701904,-0.030518,-9.704590
8.413185,0.020358,-1.523232,10.240505,0.171668,-1.349246,0.159884,0.152588,0.427246,-8.514404
8.423275,-0.022753,-1.144221,10.043514,0.128558,-0.970234,-0.037106,-0.152588,0.732422,-7.629395
8.433369,0.020956,-1.282533,10.046508,0.172267,-1.108547,-0.034113,-1.953125,0.762939,-10.192871
8.443468,0.102986,-1.324446,9.956096,0.254296,-1.150460,-0.124525,-2.899170,0.915527,-10.925293
8.453567,-0.011975,-1.162183,10.155482,0.139336,-0.988197,0.074861,-2.197266,1.007080,-10.559082
8.463664,0.020358,-1.119073,10.148895,0.171668,-0.945087,0.068275,0.305176,1.037598,-7.598877
8.473761,0.052690,-1.140628,10.008188,0.204001,-0.966642,-0.072433,0.885010,0.793457,-6.622314
8.483858,-0.000599,-1.116079,10.141710,0.150712,-0.942093,0.061089,-0.549316,0.213623,-6.500244
8.493954,0.062271,-1.226250,9.961485,0.213581,-1.052264,-0.119136,0.457764,0.366211,-5.462646
8.504050,0.417931,-1.094524,9.912387,0.569242,-0.920538,-0.168234,-0.610352,-0.518799,-0.427246
8.514145,0.172441,-1.205294,9.951905,0.323752,-1.031307,-0.128716,0.335693,-0.579834,-1.190186
8.524244,0.123942,-1.076561,10.158475,0.275253,-0.902575,0.077855,-1.281738,-0.427246,-1.800537
8.534334,0.255070,-0.982557,10.080038,0.406380,-0.808571,-0.000582,-2.227783,-0.549316,-3.631592
8.544424,0.164059,-0.904120,10.148895,0.315369,-0.730134,0.068275,-2.136230,-0.244141,-4.608154
8.554514,0.259860,-0.994532,10.099199,0.411170,-0.820546,0.018578,-3.082275,0.396729,-6.561279
8.564604,0.267045,-0.934058,10.138118,0.418355,-0.760071,0.057497,-3.448486,0.152588,-7.751465
8.574694,0.366438,-1.063389,10.131531,0.517749,-0.889402,0.050911,-1.983643,-0.762939,-7.873535
8.584784,0.398771,-0.805924,9.892628,0.550081,-0.631938,-0.187993,-0.732422,-0.213623,-5.798340
8.594874,0.171244,-0.765209,10.278226,0.322554,-0.591223,0.197606,-0.183105,-0.946045,-4.943848
8.604989,0.259261,-0.701142,9.937535,0.410571,-0.527156,-0.143086,0.122070,-0.823975,-5.462646
8.615079,0.120350,-0.740660,10.047706,0.271660,-0.566674,-0.032915,-1.007080,-0.091553,-5.767822
8.625169,0.267045,-0.710123,9.809401,0.418355,-0.536137,-0.271219,-1.556396,0.762939,-5.981445
8.635263,0.074844,-0.631686,10.220746,0.226155,-0.457700,0.140125,-1.525879,0.366211,-4.943848
8.645362,0.140707,-0.540077,10.123149,0.292018,-0.366091,0.042528,-1.373291,0.549316,-4.150391
8.655460,-0.052690,-0.597557,10.086026,0.098620,-0.423571,0.005405,-2.471924,2.227783,-4.821777
8.665558,0.535287,-0.684976,10.196197,0.686597,-0.510989,0.115576,-3.143311,-0.396729,-6.652832
8.675655,0.248483,-0.473016,10.135723,0.399794,-0.299030,0.055102,-1.495361,0.335693,-7.171631
8.685752,0.275427,-0.448467,10.132130,0.426738,-0.274481,0.051509,-0.946045,0.122070,-6.622314
8.695849,0.498164,-0.486788,9.904005,0.649475,-0.312802,-0.176616,1.403809,0.274658,-6.866455
8.705946,0.156874,-0.493374,10.286609,0.308184,-0.319388,0.205988,0.915527,-0.244141,-7.598877
8.716042,0.353265,-0.472418,9.960287,0.504576,-0.298431,-0.120333,-0.122070,-0.396729,-11.016846
8.726139,0.183219,-0.435894,10.066267,0.334530,-0.261907,-0.014354,-1.220703,0.152588,-12.908936
8.736228,0.177231,-0.490979,10.118359,0.328542,-0.316993,0.037738,-3.356934,0.762939,-16.082764
8.746318,0.484393,-0.690963,9.928553,0.635703,-0.516977,-0.152067,-1.434326,1.068115,-15.533447
8.756409,0.574805,-0.702339,9.987830,0.726115,-0.528353,-0.092791,0.030518,0.976562,-12.359619
8.766499,0.358654,-0.878373,10.131531,0.509965,-0.704387,0.050911,-0.122070,-0.396729,-10.498047
8.776594,0.408351,-0.710123,10.046508,0.559661,-0.536137,-0.034113,0.030518,-0.030518,-12.023926
8.786684,-0.066462,-0.602347,10.103989,0.084849,-0.428361,0.023368,0.732422,-0.732422,-11.077881
8.796775,0.135917,-0.542472,10.192006,0.287228,-0.368486,0.111385,1.159668,0.305176,-10.894775
8.806867,-0.095801,-0.651445,10.277029,0.055510,-0.477459,0.196408,0.915527,2.624512,-10.711670
8.817009,-0.092208,-0.717907,9.869875,0.059102,-0.543921,-0.210745,1.403809,3.906250,-10.681152
8.827100,-0.189207,-0.647254,10.156679,-0.037896,-0.473268,0.076058,-0.701904,3.967285,-11.260986
8.837199,0.164059,-0.555645,9.647139,0.315369,-0.381658,-0.433482,-1.251221,3.936768,-12.359619
8.847298,0.071851,-0.669408,9.977053,0.223161,-0.495422,-0.103568,-1.098633,3.906250,-11.291504
8.857399,0.191003,-0.614921,9.894424,0.342313,-0.440935,-0.186196,-0.885010,0.091553,-8.605957
8.867498,0.191602,-0.558040,9.871073,0.342912,-0.384053,-0.209548,-1.647949,0.701904,-10.009766
8.877594,0.334105,-0.473016,9.734557,0.485416,-0.299030,-0.346064,-2.166748,0.579834,-11.291504
8.887687,-0.392783,-0.237706,10.417137,-0.241473,-0.063719,0.336517,-2.502441,0.305176,-12.664795
8.897784,-0.094005,-0.407752,9.989028,0.057306,-0.233766,-0.091593,-2.227783,-0.030518,-15.045166
8.907880,-0.171843,-0.266446,10.602751,-0.020532,-0.092460,0.522131,-0.457764,-1.037598,-15.655518
8.917978,-0.111368,-0.449066,10.134525,0.039942,-0.275080,0.053904,-0.183105,-0.915527,-17.150879
8.928075,-0.116158,-0.585582,9.941726,0.035152,-0.411596,-0.138895,0.976562,-2.227783,-17.456055
8.938170,-0.184417,-0.469424,9.967473,-0.033106,-0.295438,-0.113148,0.793457,-1.892090,-17.059326
8.948266,-0.057480,-0.911904,9.830358,0.093830,-0.737917,-0.250263,0.640869,-2.716064,-13.458252
8.958382,-0.027543,-0.707728,9.684261,0.123768,-0.533742,-0.396359,0.457764,-3.356934,-11.077881
8.968480,-0.083227,-0.695154,9.998009,0.068084,-0.521168,-0.082612,-0.152588,-1.892090,-7.293701
8.978577,-0.228724,-0.331111,10.002799,-0.077414,-0.157125,-0.077822,0.213623,-0.701904,-5.096436
8.988673,-0.205972,-0.295186,10.071057,-0.054661,-0.121200,-0.009564,-0.244141,0.061035,-2.563477
8.998769,-0.170046,0.079634,10.227931,-0.018736,0.253621,0.147310,1.220703,1.251221,-1.129150
9.008866,0.061672,-0.132924,9.746532,0.212982,0.041063,-0.334089,0.976562,-0.183105,-0.274658
9.018963,-0.211360,-0.662223,10.132729,-0.060050,-0.488237,0.052108,-2.532959,-0.793457,-3.509521
9.029060,-0.056283,-0.234712,10.021959,0.095028,-0.060726,-0.058662,-1.129150,-0.946045,-3.540039
9.039156,-0.084424,-0.063468,10.138716,0.066886,0.110518,0.058096,0.152588,0.183105,-3.753662
9.049253,0.016765,-0.028141,9.971065,0.168076,0.145845,-0.109556,-0.244141,0.335693,-4.333496
9.059349,-0.265248,0.137115,10.297386,-0.113938,0.311101,0.216766,0.000000,0.427246,-5.279541
9.069445,-0.136516,0.288001,10.191407,0.014794,0.461987,0.110786,-0.488281,0.823975,-8.789062
9.079542,-0.169448,0.194595,10.073452,-0.018137,0.368582,-0.007169,-0.976562,0.427246,-10.192871
9.089638,-0.248483,-0.029938,10.020762,-0.097173,0.144048,-0.059859,-1.281738,0.854492,-10.345459
9.099735,-0.183818,0.179626,9.947714,-0.032507,0.353613,-0.132907,-1.251221,0.915527,-10.894775
9.109831,-0.210163,0.013771,9.903406,-0.058852,0.187758,-0.177215,-1.739502,1.861572,-10.223389
9.119927,-0.616718,0.186213,10.323732,-0.465407,0.360199,0.243111,-2.807617,0.579834,-9.033203
9.130024,-0.587379,0.225132,10.197993,-0.436068,0.399118,0.117372,-2.197266,-0.213623,-8.636475
9.140121,-0.333506,0.307161,10.118359,-0.182196,0.481147,0.037738,-3.173828,-0.976562,-9.521484
9.150217,-0.367635,0.462239,10.065070,-0.216325,0.636225,-0.015551,-2.716064,-0.701904,-10.589600
9.160313,-0.327519,0.440085,10.246492,-0.176208,0.614071,0.165872,-1.190186,0.061035,-10.620117
9.170409,-0.313748,0.598156,10.112970,-0.162437,0.772142,0.032349,-0.061035,-0.610352,-10.467529
9.180506,-0.429906,0.662223,10.072853,-0.278595,0.836209,-0.007767,1.373291,0.427246,-11.077881
9.190602,-0.317340,0.647254,9.955497,-0.166029,0.821240,-0.125123,1.892090,1.037598,-12.237549
9.200698,-0.449665,0.869991,10.269245,-0.298354,1.043977,0.188624,1.586914,1.098633,-13.580322
9.210795,-0.497565,0.981359,10.154883,-0.346255,1.155345,0.074262,3.509521,0.793457,-15.045166
9.220891,-0.412542,0.933459,9.998009,-0.261232,1.107445,-0.082612,3.845215,0.701904,-16.265869
9.230988,-0.426313,0.881966,10.203382,-0.275003,1.055952,0.122761,4.089355,-0.518799,-18.188477
9.241085,-0.435894,0.828677,10.155482,-0.284583,1.002663,0.074861,5.157471,-0.366211,-18.005371
9.251181,-0.626896,1.360371,10.129735,-0.475586,1.534357,0.049114,2.380371,-0.305176,-18.066406
9.261297,-0.393981,1.065784,9.973460,-0.242670,1.239770,-0.107161,0.915527,-0.335693,-21.270752
9.271393,-0.350870,0.985551,10.014774,-0.199560,1.159537,-0.065847,-1.037598,-0.823975,-25.268555
9.281492,-0.522114,0.989143,10.066866,-0.370804,1.163129,-0.013755,-0.152588,0.000000,-23.864746
9.291590,-0.535886,1.110690,10.063872,-0.384575,1.284677,-0.016749,-0.274658,-0.701904,-24.200439
9.301687,-0.554447,0.774789,10.135124,-0.403136,0.948775,0.054503,0.610352,-1.129150,-23.254395
9.311785,-0.479603,0.683778,9.938134,-0.328292,0.857764,-0.142487,0.671387,-1.098633,-22.491455
9.321879,-0.640668,0.792751,10.269245,-0.489357,0.966738,0.188624,1.678467,-0.579834,-20.843506
9.331976,-0.623304,0.665217,10.115365,-0.471993,0.839203,0.034744,1.617432,-0.885010,-20.385742
9.342068,-0.547861,0.668210,10.114766,-0.396550,0.842197,0.034145,1.708984,-2.075195,-20.538330
9.352159,-0.602347,0.617316,10.064471,-0.451037,0.791302,-0.016150,1.586914,-2.288818,-21.087646
9.362251,-0.483794,0.522713,9.984836,-0.332483,0.696699,-0.095784,2.105713,-2.288818,-20.721436
9.372339,-0.734073,0.531096,10.112970,-0.582763,0.705082,0.032349,1.525879,-1.159668,-20.416260
9.382429,-0.508343,0.327519,9.775871,-0.357032,0.501505,-0.304750,1.678467,-1.251221,-20.690918
9.392520,-0.935854,0.368833,9.945917,-0.784543,0.542819,-0.134703,2.258301,0.579834,-17.944336
9.402610,-1.043031,0.320933,10.346484,-0.891720,0.494919,0.265864,1.312256,0.061035,-18.127441
9.412701,-0.790955,0.539478,10.023755,-0.639645,0.713464,-0.056865,-0.244141,-0.488281,-18.371582
9.422791,-0.947230,0.392783,10.150093,-0.795920,0.566769,0.069472,-0.793457,-0.244141,-18.341064
9.432881,-1.010099,0.217947,10.153685,-0.858789,0.391933,0.073065,-1.556396,-0.366211,-19.348145
9.442981,-0.880170,0.473615,10.080637,-0.728859,0.647601,0.000016,-1.434326,0.427246,-20.080566
9.453078,-0.939446,0.584385,10.059681,-0.788136,0.758371,-0.020940,-1.953125,0.946045,-21.545410
9.463172,-0.890349,0.337099,9.956695,-0.739038,0.511085,-0.123926,-3.936768,1.464844,-25.817871
9.473270,-0.966989,0.379012,10.103989,-0.815679,0.552998,0.023368,-4.577637,1.770020,-27.404785
9.483367,-0.935255,0.335303,10.144105,-0.783945,0.509289,0.063484,-4.486084,2.227783,-29.693604
9.493466,-1.111289,0.337099,10.108180,-0.959978,0.511085,0.027559,-3.387451,2.227783,-29.205322
9.503564,-1.112487,0.333506,10.092612,-0.961176,0.507493,0.011992,-0.915527,1.770020,-26.489258
9.513660,-0.966989,0.486189,10.074650,-0.815679,0.660175,-0.005971,0.701904,1.098633,-25.543213
9.523758,-1.024470,0.502954,9.909992,-0.873159,0.676940,-0.170629,1.586914,0.366211,-24.993896
9.533856,-1.060994,0.548459,9.969868,-0.909683,0.722446,-0.110753,3.387451,-0.244141,-23.986816
9.543952,-1.191522,0.504750,10.125544,-1.040212,0.678737,0.044923,4.943848,0.427246,-23.193359
9.554049,-1.476530,0.422721,10.181827,-1.325219,0.596707,0.101206,3.540039,0.213623,-22.247314
9.564146,-1.315464,0.214953,9.859697,-1.164154,0.388939,-0.220924,-0.274658,-0.427246,-23.925781
9.574243,-1.166375,-0.132325,9.815988,-1.015064,0.041661,-0.264633,-2.777100,-0.213623,-27.862549
9.584339,-1.638193,0.099992,10.148895,-1.486883,0.273978,0.068275,-4.058838,-0.305176,-27.801514
9.594437,-1.574725,0.108973,10.058483,-1.423415,0.282960,-0.022137,-4.638672,-0.152588,-26.824951
9.604533,-1.475931,0.532892,10.064471,-1.324620,0.706878,-0.016150,-2.258301,-0.671387,-25.634766
9.614636,-1.450184,0.472418,9.968071,-1.298874,0.646404,-0.112549,-2.288818,-0.335693,-27.252197
9.624734,-1.548979,0.537083,10.051897,-1.397668,0.711069,-0.028724,-3.601074,-0.335693,-31.250000
9.634831,-1.544189,0.338297,10.020762,-1.392878,0.512283,-0.059859,-5.126953,-0.396729,-32.135010
9.644929,-1.433419,0.369432,10.179432,-1.282109,0.543418,0.098811,-6.042480,0.579834,-35.827637
9.655025,-1.131647,0.704734,9.826765,-0.980336,0.878721,-0.253856,-4.730225,0.946045,-36.468506
9.665122,-0.872386,0.929268,9.762100,-0.721075,1.103254,-0.318521,-3.173828,1.342773,-34.545898
9.675215,-0.887953,0.549657,9.923763,-0.736643,0.723643,-0.156857,-0.366211,1.342773,-32.531738
9.685313,-0.971779,0.943039,10.190209,-0.820469,1.117025,0.109589,-0.457764,1.007080,-32.623291
9.695410,-0.998124,0.387993,10.454260,-0.846814,0.561979,0.373640,-0.579834,1.495361,-31.341553
9.705502,-0.656235,-0.011975,9.559122,-0.504925,0.162011,-0.521499,0.244141,1.342773,-31.005859
9.715598,-1.190923,0.201780,10.021959,-1.039613,0.375767,-0.058662,1.495361,1.556396,-29.266357
9.725696,-0.872985,0.025148,9.783655,-0.721674,0.199134,-0.296966,0.183105,0.793457,-27.343750
9.735792,-1.001717,-0.313149,10.438693,-0.850406,-0.139163,0.358072,-0.579834,1.251221,-25.512695
9.745889,-0.914299,-0.024549,10.430909,-0.762988,0.149437,0.350288,2.746582,1.037598,-22.308350
9.755986,-0.840053,0.248483,9.925560,-0.688743,0.422469,-0.155061,3.356934,1.800537,-18.951416
9.766084,-0.762814,-0.016765,9.653126,-0.611503,0.157221,-0.427495,3.265381,0.579834,-13.183594
9.776182,-0.925076,-0.125739,10.511142,-0.773766,0.048248,0.430521,3.662109,3.967285,-9.429932
9.786278,-1.046025,-0.248483,10.027947,-0.894714,-0.074497,-0.052674,0.579834,1.007080,-9.368896
9.796376,-0.479004,0.317340,9.821975,-0.327693,0.491326,-0.258646,-1.251221,1.556396,-12.329102
9.806472,-1.065185,0.249681,10.632689,-0.913874,0.423667,0.552068,0.030518,1.495361,-13.122559
9.816569,-0.864003,0.460443,10.005793,-0.712693,0.634429,-0.074828,1.831055,1.647949,-11.749268
9.826665,-0.888552,0.181423,9.853709,-0.737242,0.355409,-0.226912,1.678467,0.885010,-9.735107
9.836761,-1.055605,0.208367,10.468032,-0.904294,0.382353,0.387411,2.624512,0.946045,-8.972168
9.846858,-1.085543,-0.289199,10.330318,-0.934232,-0.115212,0.249697,3.204346,0.244141,-10.253906
9.856955,-0.783770,-0.295186,9.662108,-0.632460,-0.121200,-0.418513,2.319336,0.152588,-10.955811
9.867051,-1.004112,-0.443677,9.849518,-0.852801,-0.269691,-0.231103,-0.793457,0.518799,-11.291504
9.877144,-0.984353,-0.499960,10.016570,-0.833042,-0.325974,-0.064050,-0.152588,0.640869,-9.918213
9.887242,-1.220262,-0.752036,9.770482,-1.068952,-0.578050,-0.310139,1.159668,1.983643,-7.354736
9.897336,-0.822090,-0.762814,9.727971,-0.670780,-0.588828,-0.352650,1.892090,1.159668,-5.920410
9.907429,-0.744851,-0.790955,9.281898,-0.593540,-0.616969,-0.798723,-0.244141,2.227783,-1.129150
9.917532,-1.023871,-1.481918,10.157278,-0.872560,-1.307932,0.076657,-2.105713,4.241943,-0.823975
9.927629,-1.140628,-0.510139,10.512938,-0.989317,-0.336153,0.432317,-2.410889,2.716064,2.441406
9.937726,-1.193917,-0.511935,10.629695,-1.042607,-0.337949,0.549075,-1.007080,1.739502,2.990723
9.947823,-0.850232,-0.695753,10.730885,-0.698921,-0.521767,0.650264,0.549316,1.342773,6.561279
9.957921,-0.953817,-0.386197,10.690768,-0.802506,-0.212211,0.610148,0.885010,1.770020,7.141113
9.968018,-0.577798,-0.637674,10.042317,-0.426488,-0.463688,-0.038304,-0.579834,-0.701904,5.615234
9.978114,-0.615520,-0.426313,9.758507,-0.464209,-0.252327,-0.322114,0.823975,-0.427246,4.180908
9.988211,-0.753832,-0.496967,10.091415,-0.602522,-0.322980,0.010794,1.922607,0.305176,5.187988
9.998308,-0.862207,-0.605940,10.483599,-0.710896,-0.431954,0.402979,4.333496,-0.732422,7.873535
10.008404,-0.690963,-0.714315,9.823771,-0.539653,-0.540328,-0.256849,5.249023,-0.396729,8.789062
10.018501,-0.794548,-1.005908,10.068662,-0.643237,-0.831922,-0.011959,4.730225,0.213623,11.413574
10.028598,-0.699944,-1.154998,9.975256,-0.548634,-0.981012,-0.105364,3.356934,-1.739502,12.268066
10.038695,-0.704734,-1.297502,10.265652,-0.553424,-1.123516,0.185032,5.554199,0.305176,17.456055
10.048791,-0.704136,-1.304088,10.055490,-0.552825,-1.130102,-0.025131,5.828857,1.190186,20.751953
10.058887,-0.532892,-1.463956,9.766291,-0.381581,-1.289969,-0.314330,4.882812,-0.946045,23.071289
10.068984,-0.568218,-1.487307,9.715995,-0.416908,-1.313321,-0.364625,3.479004,0.732422,25.787354
10.079082,-0.507145,-1.746568,9.983040,-0.355835,-1.572582,-0.097581,-0.305176,-0.518799,25.970459
10.089179,-0.346080,-1.428629,9.589658,-0.194770,-1.254643,-0.490963,-1.525879,0.610352,27.069092
10.099271,-0.817899,-1.184936,10.391990,-0.666589,-1.010950,0.311369,-1.251221,5.371094,28.381348
10.109368,-0.512534,-0.796344,10.432705,-0.361224,-0.622358,0.352084,-3.051758,4.089355,29.541016
10.119465,-0.444875,-1.374741,9.807006,-0.293564,-1.200755,-0.273615,-3.692627,0.457764,30.914307
10.129562,-0.328118,-1.451981,10.284214,-0.176807,-1.277994,0.203593,-3.173828,1.281738,32.012939
10.139659,-0.551453,-1.597478,9.980645,-0.400143,-1.423492,-0.099976,-2.716064,-1.403809,35.278320
10.149756,-0.131127,-1.418450,10.510543,0.020183,-1.244464,0.429922,-1.281738,-0.640869,37.384033
10.159853,-0.769999,-1.857338,10.016570,-0.618688,-1.683351,-0.064050,-3.326416,-1.617432,38.574219
10.169949,-0.563428,-1.791475,9.396260,-0.412118,-1.617488,-0.684360,-1.464844,-1.678467,39.520264
10.180046,-0.304167,-2.069896,9.605825,-0.152857,-1.895909,-0.474796,-0.823975,-0.823975,40.710449
10.190142,-0.062869,-1.474733,10.012978,0.088441,-1.300747,-0.067643,-0.061035,-0.183105,40.435791
10.200434,-0.228724,-1.208287,9.966275,-0.077414,-1.034301,-0.114346,0.183105,-1.037598,39.154053
10.210717,-0.118553,-1.265768,10.227931,0.032757,-1.091782,0.147310,2.502441,-1.403809,36.529541
10.220819,0.200583,-1.264570,9.921368,0.351893,-1.090584,-0.159252,2.105713,-0.366211,35.644531
10.230914,0.102387,-1.659749,9.881851,0.253698,-1.485762,-0.198770,1.708984,4.241943,33.874512
10.241013,-0.115560,-1.508264,10.059082,0.035751,-1.334277,-0.021539,1.708984,4.302979,31.158447
10.251103,-0.220342,-1.358575,10.413545,-0.069031,-1.184589,0.332924,1.098633,7.476807,31.311035
10.261195,-0.343087,-1.766327,10.218950,-0.191776,-1.592341,0.138329,2.227783,8.087158,32.562256
10.271286,-0.141306,-1.582509,10.120754,0.010004,-1.408523,0.040133,2.380371,5.249023,35.888672
10.281376,-0.249681,-2.014211,9.971065,-0.098370,-1.840225,-0.109556,1.586914,3.967285,37.353516
10.291467,-0.255070,-1.993255,9.851314,-0.103759,-1.819269,-0.229307,1.129150,2.777100,38.604736
10.301557,-0.257465,-1.923201,9.874666,-0.106154,-1.749214,-0.205955,-0.030518,1.159668,39.337158
10.311648,-0.323926,-1.911824,9.909393,-0.172616,-1.737838,-0.171227,-0.610352,-0.152588,39.581299
10.321737,-0.238903,-1.932182,9.902807,-0.087593,-1.758196,-0.177814,1.403809,-6.774902,38.848877
10.331828,-0.261057,-1.733395,10.053094,-0.109747,-1.559409,-0.027526,3.356934,-5.096436,39.093018
10.341921,-0.470621,-1.475931,9.844728,-0.319311,-1.301945,-0.235893,3.723145,-4.028320,40.100098
10.352013,-0.413141,-1.626218,9.957294,-0.261830,-1.452232,-0.123327,2.746582,-3.143311,38.757324
10.362110,-0.355660,-1.644780,10.139914,-0.204350,-1.470793,0.059293,1.312256,-1.159668,36.926270
10.372219,-0.386796,-0.872985,10.062076,-0.235485,-0.698998,-0.018545,2.655029,-11.566162,34.484863
10.382318,0.295186,-1.169368,9.863888,0.446497,-0.995382,-0.216733,1.220703,-10.650635,36.621094
10.392411,-0.295785,-1.386118,10.198592,-0.144474,-1.212131,0.117971,-0.915527,7.751465,32.653809
10.402508,-0.517324,-1.374142,10.263856,-0.366014,-1.200156,0.183235,-4.028320,5.676270,30.548096
10.412605,-0.106578,-1.365760,10.109976,0.044732,-1.191774,0.029355,-7.812500,3.967285,26.580811
10.422701,0.044308,-1.270558,9.967473,0.195618,-1.096572,-0.113148,-8.117676,6.042480,25.787354
10.432798,-0.071851,-1.189726,10.019564,0.079460,-1.015740,-0.061057,-7.873535,5.889893,25.848389
10.442891,-0.101190,-1.154998,9.954899,0.050121,-0.981012,-0.125722,-6.317139,2.197266,26.855469
10.452989,-0.108375,-1.160986,9.911788,0.042936,-0.987000,-0.168832,-5.004883,1.770020,27.709961
10.463086,-0.148491,-1.153202,9.864487,0.002819,-0.979216,-0.216134,-3.021240,1.495361,28.228760
10.473183,-0.197589,-1.200504,9.959689,-0.046279,-1.026517,-0.120932,-2.746582,0.762939,27.557373
10.483280,-0.236508,-1.055006,9.909992,-0.085198,-0.881020,-0.170629,-1.800537,-4.882812,26.550293
10.493377,-0.161065,-1.020877,9.918973,-0.009754,-0.846891,-0.161647,-0.946045,-7.324219,26.367188
10.503474,-0.089214,-1.072969,9.984836,0.062096,-0.898983,-0.095784,-0.427246,-9.582520,26.458740
10.513570,-0.383203,-0.795146,10.221345,-0.231893,-0.621160,0.140724,0.823975,-9.735107,26.580811
10.523668,-0.253273,-0.686772,10.452464,-0.101963,-0.512786,0.371843,0.427246,-7.171631,26.977539
10.533765,-0.173040,-0.954415,10.163265,-0.021730,-0.780429,0.082645,-0.640869,0.610352,22.979736
10.543861,-0.333506,-0.965792,10.359657,-0.182196,-0.791805,0.279036,-2.410889,1.037598,22.003174
10.553959,-0.230521,-0.732876,10.143506,-0.079210,-0.558890,0.062886,-3.570557,1.342773,20.812988
10.564056,-0.468226,-0.696951,10.409354,-0.316916,-0.522964,0.328733,-1.068115,0.213623,21.057129
10.574153,-0.234712,-0.506547,9.970466,-0.083401,-0.332560,-0.110154,0.183105,-1.037598,22.613525
10.584249,-0.331710,-0.570613,10.077045,-0.180400,-0.396627,-0.003576,1.373291,-0.640869,22.552490
10.594346,-0.223336,-0.429307,9.855505,-0.072025,-0.255321,-0.225115,1.129150,-1.007080,22.308350
10.604443,-0.234113,-0.543669,10.006392,-0.082803,-0.369683,-0.074229,0.152588,-0.610352,21.148682
10.614541,-0.367037,-0.418530,10.083631,-0.215726,-0.244543,0.003010,-0.335693,-1.464844,20.843506
10.624638,-0.352667,-0.637075,10.178234,-0.201356,-0.463089,0.097614,-2.105713,-2.502441,21.148682
10.634735,-0.222138,-0.414937,9.882449,-0.070827,-0.240951,-0.198171,-3.356934,-2.410889,21.362305
10.644832,-0.461640,-0.646655,10.181228,-0.310329,-0.472669,0.100607,-5.340576,-1.434326,21.331787
10.654929,-0.580792,-0.732876,10.310559,-0.429482,-0.558890,0.229938,-6.072998,-2.014160,21.392822
10.665025,-0.151485,-0.638273,9.831555,-0.000174,-0.464287,-0.249066,-6.317139,-2.044678,21.728516
10.675122,-0.382006,-0.720302,10.171049,-0.230695,-0.546316,0.090428,-6.469727,0.427246,21.881104
10.685219,-0.362247,-0.449665,9.993818,-0.210936,-0.275679,-0.086803,-4.669189,1.220703,21.514893
10.695316,-0.696352,-0.839454,10.457254,-0.545041,-0.665468,0.376633,-5.126953,0.549316,19.805908
10.705413,-0.332309,-0.957409,9.953102,-0.180998,-0.783423,-0.127518,-5.889893,-2.502441,19.775391
10.715510,-0.338297,-0.872386,10.012978,-0.186986,-0.698400,-0.067643,-4.821777,-5.249023,21.545410
10.725606,-0.380209,-0.866997,9.996213,-0.228899,-0.693011,-0.084408,-3.997803,-3.692627,23.162842
10.735704,-0.360450,-0.901725,9.870474,-0.209140,-0.727739,-0.210146,-4.760742,-3.356934,24.566650
10.745803,-0.736469,-0.932860,10.105186,-0.585158,-0.758874,0.024565,-6.256104,-2.441406,27.954102
10.755901,-0.491578,-1.108295,10.027947,-0.340267,-0.934309,-0.052674,-7.720947,-2.502441,29.052734
10.765997,-0.453257,-0.855621,9.871672,-0.301947,-0.681635,-0.208949,-9.307861,-3.448486,30.029297
10.776098,-0.630489,-1.014890,10.296189,-0.479178,-0.840903,0.215568,-10.498047,-1.708984,30.578613
10.786193,-0.673000,-0.711920,10.163864,-0.521690,-0.537933,0.083243,-10.681152,-1.251221,30.548096
10.796290,-0.370031,-0.821492,9.845925,-0.218720,-0.647506,-0.234695,-9.796143,-0.549316,30.151367
10.806387,-0.579595,-0.686772,10.054891,-0.428284,-0.512786,-0.025730,-6.103516,-0.518799,30.883789
10.816486,-0.507744,-0.928070,10.263856,-0.356434,-0.754084,0.183235,-5.096436,-0.366211,31.250000
10.826584,-0.344284,-0.547262,10.044712,-0.192973,-0.373276,-0.035909,-1.617432,-0.610352,32.043457
10.836677,-0.574805,-0.586780,10.235715,-0.423494,-0.412794,0.155094,-0.488281,-0.854492,31.677246
10.846774,-0.014370,-0.755629,10.097402,0.136940,-0.581642,0.016782,-0.640869,-1.159668,31.402588
10.856872,-0.322729,-0.737666,9.931547,-0.171418,-0.563680,-0.149074,-0.701904,0.610352,30.364990
10.866968,-0.621508,-0.569416,10.189012,-0.470197,-0.395430,0.108391,0.061035,0.091553,30.303955
10.877064,-0.222138,-0.580193,9.630374,-0.070827,-0.406207,-0.450247,-0.305176,3.540039,29.571533
10.887170,-0.467029,0.014370,9.874666,-0.315718,0.188356,-0.205955,2.044678,2.075195,28.045654
10.897268,-0.466430,-0.089214,10.787767,-0.315119,0.084772,0.707146,2.319336,0.274658,27.954102
10.907365,-0.470621,-0.140109,10.602153,-0.319311,0.033878,0.521532,2.990723,0.549316,27.038574
10.917462,-0.286804,-0.036524,10.066866,-0.135493,0.137462,-0.013755,3.723145,1.464844,26.062012
10.927560,-0.113763,-0.045505,9.893826,0.037547,0.128481,-0.186795,4.669189,1.983643,25.146484
10.937657,-0.822689,0.069456,10.341694,-0.671379,0.243442,0.261074,3.601074,0.457764,24.902344
10.947754,-0.422122,-0.157473,9.874067,-0.270812,0.016514,-0.206554,2.685547,2.105713,27.587891
10.957847,-0.546663,-0.179626,10.023157,-0.395353,-0.005640,-0.057464,2.532959,-3.082275,29.296875
10.967938,-0.793949,0.147294,10.198592,-0.642638,0.321280,0.117971,5.157471,-6.530762,30.426025
10.978028,-0.373024,0.409548,9.906400,-0.221714,0.583535,-0.174221,5.401611,-5.401611,34.179688
10.988119,-0.265248,0.224533,10.017169,-0.113938,0.398519,-0.063452,3.540039,-5.523682,34.088135
10.998207,-0.525108,0.401166,10.408755,-0.373797,0.575152,0.328134,3.112793,-2.288818,32.379150
11.008298,-0.065264,0.580792,9.787247,0.086046,0.754778,-0.293373,4.364014,-2.990723,32.287598
11.018389,-0.214953,0.678389,10.238708,-0.063642,0.852375,0.158088,6.042480,-1.434326,32.287598
11.028479,0.050894,0.537682,10.171648,0.202205,0.711668,0.091027,4.791260,-2.532959,31.555176
11.038569,0.240101,0.761616,9.797426,0.391411,0.935602,-0.283195,5.004883,-1.373291,30.487061
11.048660,0.510738,0.519719,10.217153,0.662049,0.693705,0.136533,2.380371,-2.380371,28.778076
11.058756,0.181423,0.619711,10.347682,0.332733,0.793697,0.267061,2.105713,-2.197266,27.587891
11.068853,0.340692,1.025068,10.211166,0.492002,1.199055,0.130545,0.671387,-1.129150,23.986816
11.078950,0.492177,0.822689,10.121951,0.643487,0.996675,0.041331,-0.610352,-0.457764,21.545410
11.089048,0.687371,1.060994,9.996812,0.838681,1.234980,-0.083809,-0.122070,-0.457764,16.815186
11.099145,0.802930,0.990341,9.893826,0.954241,1.164327,-0.186795,-0.427246,-0.152588,15.350342
11.109242,0.441282,1.012495,10.193203,0.592593,1.186481,0.112582,0.946045,-0.915527,13.702393
11.119340,0.606539,0.784369,10.053094,0.757849,0.958355,-0.027526,-0.549316,-1.556396,13.366699
11.129437,0.504152,0.769999,10.072853,0.655462,0.943985,-0.007767,-0.396729,-0.274658,13.183594
11.139534,0.619113,0.685574,9.948911,0.770423,0.859561,-0.131710,-1.770020,-1.770020,13.580322
11.149631,0.745450,0.636476,10.056088,0.896760,0.810463,-0.024532,-2.655029,-0.579834,13.153076
11.159728,0.814905,0.849633,10.095007,0.966216,1.023619,0.014387,-4.364014,-0.671387,10.620117
11.169825,0.982557,0.919687,9.898017,1.133867,1.093674,-0.182604,-4.028320,-0.091553,9.826660
11.179923,0.914897,0.923879,9.979448,1.066208,1.097865,-0.101173,-3.021240,0.885010,8.666992
11.190023,0.999322,1.034648,9.852512,1.150632,1.208635,-0.228109,-1.556396,0.823975,8.422852
11.200121,0.832868,0.859213,10.001003,0.984179,1.033199,-0.079618,-0.671387,0.549316,8.728027
11.210219,0.775986,0.979563,10.174642,0.927297,1.153549,0.094021,0.335693,-0.244141,7.690430
11.220316,0.931663,1.007106,10.046508,1.082973,1.181092,-0.034113,0.305176,-0.305176,7.080078
11.230413,0.984353,1.026266,9.998009,1.135664,1.200252,-0.082612,1.464844,-0.335693,6.072998
11.240508,0.823887,1.033451,10.070458,0.975197,1.207437,-0.010162,1.220703,-0.946045,4.302979
11.250602,0.792153,1.006507,10.253677,0.943463,1.180493,0.173057,0.732422,0.000000,2.807617
11.260699,0.759820,0.704734,10.137519,0.911131,0.878721,0.056898,0.091553,-0.488281,3.021240
11.270796,0.833467,0.805924,10.117161,0.984777,0.979910,0.036541,0.671387,-1.220703,2.899170
11.280894,0.698148,0.811313,10.156679,0.849459,0.985299,0.076058,1.953125,-1.220703,3.784180
11.290990,0.907712,0.791554,9.996213,1.059023,0.965540,-0.084408,2.624512,-1.342773,4.211426
11.301087,0.893941,0.831072,10.081236,1.045252,1.005058,0.000615,4.943848,-0.885010,3.906250
11.311184,0.789758,0.898731,10.133926,0.941068,1.072717,0.053306,5.706787,-1.251221,3.143311
11.321280,0.767604,0.902324,9.772877,0.918914,1.076310,-0.307744,5.432129,-0.671387,2.197266
11.331377,0.668210,0.596959,10.103390,0.819521,0.770945,0.022769,4.669189,-0.762939,1.281738
11.341479,0.564626,0.582589,10.161469,0.715936,0.756575,0.080848,4.241943,-0.396729,0.335693
11.351575,0.519120,0.422721,10.259665,0.670431,0.596707,0.179044,3.601074,0.244141,-0.152588
11.361672,0.480201,0.449066,9.993219,0.631512,0.623052,-0.087402,3.845215,0.396729,-0.183105
11.371779,0.408351,0.336500,10.135124,0.559661,0.510486,0.054503,2.990723,1.098633,1.678467
11.381876,0.495769,0.335901,10.062675,0.647080,0.509888,-0.017946,3.051758,0.976562,2.258301
11.391972,0.589175,0.402962,10.089020,0.740485,0.576948,0.008399,2.380371,-0.183105,2.532959
11.402068,0.668210,0.444875,10.023157,0.819521,0.618861,-0.057464,1.831055,-0.396729,1.464844
11.412276,0.749042,0.469424,10.080038,0.900353,0.643410,-0.000582,1.037598,-0.762939,-0.976562
11.422375,0.931663,0.468226,10.173444,1.082973,0.642213,0.092823,1.251221,-0.274658,-1.678467
11.432472,0.987347,0.140109,10.634485,1.138657,0.314095,0.553865,2.838135,0.671387,-1.495361
11.442570,0.886157,0.692161,9.965078,1.037468,0.866147,-0.115543,6.072998,1.708984,0.732422
11.452667,0.677791,0.289199,10.375225,0.829101,0.463185,0.294604,2.410889,1.861572,-0.610352
11.462764,0.883163,0.333506,9.724977,1.034474,0.507493,-0.355644,0.396729,1.800537,-7.690430
11.472861,1.063389,0.552052,9.741143,1.214699,0.726038,-0.339478,0.885010,1.098633,-9.155273
11.482959,0.892744,0.487985,10.087822,1.044054,0.661971,0.007202,-1.373291,1.434326,-11.718750
11.493055,1.258583,0.349673,9.848320,1.409893,0.523659,-0.232300,0.549316,0.335693,-13.824463
11.503153,1.159189,0.436492,10.300979,1.310500,0.610479,0.220358,1.525879,-0.396729,-14.068604
11.513243,1.073568,0.308958,10.096804,1.224878,0.482944,0.016183,0.518799,0.000000,-15.686035
11.523334,1.482517,0.301772,9.928553,1.633828,0.475759,-0.152067,1.708984,-0.152588,-16.601562
11.533431,1.329236,0.090412,10.429711,1.480546,0.264398,0.349091,1.251221,1.098633,-15.563965
11.543527,1.069975,0.003593,10.256072,1.221286,0.177579,0.175452,1.861572,0.854492,-16.174316
11.553624,1.528022,-0.094603,9.701027,1.679333,0.079383,-0.379594,0.854492,0.061035,-16.357422
11.563721,1.358575,0.069456,9.846524,1.509885,0.243442,-0.234097,2.655029,0.518799,-14.617920
11.573818,1.467548,0.048499,9.917177,1.618859,0.222485,-0.163444,2.410889,-0.030518,-12.817383
11.583914,1.314267,-0.302970,10.174043,1.465578,-0.128984,0.093422,2.960205,0.396729,-13.702393
11.594011,1.184337,-0.057480,10.154883,1.335648,0.116506,0.074262,5.737305,1.251221,-13.427734
11.604107,1.360371,-0.043709,10.184821,1.511682,0.130277,0.104200,5.645752,0.457764,-14.831543
11.614202,1.402883,-0.264650,9.809401,1.554193,-0.090663,-0.271219,5.371094,0.091553,-16.326904
11.624298,1.499282,-0.627495,9.683064,1.650593,-0.453509,-0.397557,0.122070,-0.915527,-21.392822
11.634394,0.623903,-0.461041,10.848840,0.775213,-0.287055,0.768219,2.105713,-0.396729,-22.766113
11.644491,1.058599,-0.054487,10.399175,1.209909,0.119499,0.318554,2.868652,-0.091553,-23.864746
11.654587,1.149609,-0.337099,10.183623,1.300920,-0.163113,0.103002,3.997803,-0.030518,-23.406982
11.664683,0.914897,-0.250878,10.282418,1.066208,-0.076892,0.201797,4.364014,-0.091553,-21.697998
11.674781,0.723895,-0.530497,10.468032,0.875205,-0.356511,0.387411,2.075195,0.244141,-21.423340
11.684878,1.038241,-0.752036,10.033336,1.189552,-0.578050,-0.047285,-0.274658,-0.091553,-22.308350
11.694974,0.917891,-0.650847,10.070458,1.069202,-0.476860,-0.010162,-1.464844,-0.946045,-22.460938
11.705072,0.889151,-0.808918,9.928553,1.040462,-0.634932,-0.152067,-2.624512,-1.373291,-22.796631
11.715168,1.113684,-0.568218,9.756112,1.264995,-0.394232,-0.324509,-2.899170,-0.946045,-21.789551
11.725265,0.816702,-0.722098,10.184222,0.968012,-0.548112,0.103601,-2.014160,-0.518799,-19.439697
11.735361,0.939446,-0.847238,10.086625,1.090757,-0.673252,0.006004,-2.716064,0.793457,-18.157959
11.745462,0.556243,-0.898731,10.184222,0.707554,-0.724745,0.103601,-5.249023,1.098633,-18.829346
11.755560,1.185535,-0.682581,9.995015,1.336845,-0.508594,-0.085605,-6.134033,-1.251221,-19.531250
11.765655,1.011896,-0.696352,9.972861,1.163206,-0.522366,-0.107759,-3.326416,-0.946045,-18.524170
11.775756,1.078358,-0.598755,10.010583,1.229668,-0.424769,-0.070038,-1.251221,-0.671387,-15.960693
11.785850,1.121468,-0.576601,10.063273,1.272778,-0.402615,-0.017347,2.380371,-0.335693,-14.373779
11.795947,1.066382,-0.646057,10.080038,1.217693,-0.472070,-0.000582,2.899170,-0.488281,-14.617920
11.806044,1.043031,-0.547861,9.770482,1.194342,-0.373875,-0.310139,3.509521,0.518799,-16.448975
11.816141,0.804128,-0.956810,9.953102,0.955438,-0.782824,-0.127518,3.417969,0.579834,-16.815186
11.826238,0.807720,-0.978365,10.120754,0.959031,-0.804379,0.040133,2.624512,0.762939,-17.181396
11.836334,0.595761,-1.302292,10.241104,0.747072,-1.128306,0.160483,0.000000,1.037598,-16.815186
11.846430,0.615520,-1.603466,10.197993,0.766831,-1.429479,0.117372,-1.251221,1.159668,-15.563965
11.856526,0.737666,-1.469943,10.095606,0.888977,-1.295957,0.014985,-2.685547,0.915527,-12.756348
11.866623,0.792751,-1.476530,10.117760,0.944062,-1.302543,0.037139,-3.112793,1.037598,-11.535645
11.876720,0.574805,-1.499881,10.301578,0.726115,-1.325895,0.220957,-2.532959,0.122070,-9.735107
11.886816,0.541873,-1.353186,10.247091,0.693184,-1.179200,0.166470,-2.075195,-0.457764,-9.521484
11.896912,0.690963,-1.360970,9.959090,0.842274,-1.186984,-0.121531,-0.915527,-0.396729,-9.338379
11.907008,0.759221,-1.138233,9.951905,0.910532,-0.964247,-0.128716,3.051758,0.610352,-6.134033
11.917105,0.314346,-1.331032,10.265054,0.465657,-1.157046,0.184433,3.997803,1.739502,-4.821777
11.927199,0.140707,-1.472937,10.095007,0.292018,-1.298951,0.014387,3.417969,1.312256,-4.669189
11.937295,0.122146,-1.593287,10.152488,0.273457,-1.419301,0.071867,1.983643,1.281738,-5.249023
11.947392,0.091011,-1.719025,10.086625,0.242321,-1.545039,0.006004,-1.220703,1.220703,-5.584717
11.957489,-0.006586,-1.931583,9.964479,0.144724,-1.757597,-0.116142,-2.349854,0.671387,-4.058838
11.967587,-0.073647,-1.896855,10.036928,0.077664,-1.722869,-0.043693,-2.899170,0.579834,-2.258301
11.977684,0.032333,-1.855541,10.081835,0.183643,-1.681555,0.001214,-1.525879,0.122070,3.356934
11.987781,-0.002994,-1.738784,9.740544,0.148317,-1.564798,-0.340076,-1.403809,0.671387,6.439209
11.997877,-0.059277,-1.445993,10.089619,0.092034,-1.272007,0.008998,-0.885010,-0.335693,5.706787
12.007973,0.130529,-1.253793,9.826765,0.281839,-1.079807,-0.253856,-0.183105,0.549316,3.234863
12.018072,-0.005988,-1.232238,10.119556,0.145323,-1.058251,0.038936,-0.457764,0.488281,-3.204346
12.028168,-0.074246,-1.320255,10.013577,0.077065,-1.146268,-0.067044,0.579834,0.701904,-5.310059
12.038265,-0.228724,-1.319057,10.257869,-0.077414,-1.145071,0.177248,1.495361,0.488281,-6.072998
12.048361,-0.319136,-1.580713,10.068662,-0.167826,-1.406727,-0.011959,2.319336,0.335693,-7.751465
12.058457,-0.517324,-1.684297,10.266850,-0.366014,-1.510311,0.186229,2.136230,0.335693,-8.911133
12.068546,-0.628693,-1.754951,10.086625,-0.477382,-1.580964,0.006004,0.457764,0.701904,-9.735107
12.078637,-0.962798,-1.731000,10.268646,-0.811487,-1.557014,0.188025,0.213623,0.091553,-8.758545
12.088726,-0.904719,-1.663341,9.972263,-0.753408,-1.489355,-0.108358,0.457764,1.251221,-2.136230
12.098816,-1.035247,-1.643582,10.094409,-0.883937,-1.469596,0.013788,-0.793457,0.732422,1.556396
12.108906,-0.928070,-1.500480,10.026749,-0.776759,-1.326494,-0.053871,-0.854492,0.915527,8.575439
12.118996,-0.469424,-1.107697,9.790840,-0.318113,-0.933710,-0.289781,0.305176,1.403809,11.596680
12.129086,-0.446671,-1.075963,9.977053,-0.295361,-0.901976,-0.103568,0.793457,1.312256,14.923096
12.139178,-0.176633,-0.365839,10.017768,-0.025322,-0.191853,-0.062853,1.220703,2.655029,18.402100
12.149266,-0.702339,-0.127535,10.387200,-0.551029,0.046451,0.306579,0.946045,2.044678,16.082764
12.159356,-0.457449,0.186213,10.199191,-0.306138,0.360199,0.118570,0.457764,1.251221,10.772705
12.169452,-0.549058,0.225132,10.421329,-0.397748,0.399118,0.340708,0.518799,0.671387,8.026123
12.179549,-0.434696,0.123344,10.235715,-0.283385,0.297330,0.155094,3.051758,0.488281,2.044678
12.189645,-0.504750,0.047302,10.135124,-0.353440,0.221288,0.054503,3.845215,0.030518,-0.030518
12.199742,-0.570015,-0.113165,9.871073,-0.418704,0.060822,-0.209548,4.730225,0.701904,-1.251221
12.209838,-0.992137,-0.004790,10.399774,-0.840826,0.169196,0.319153,3.662109,1.251221,-5.340576
12.219934,-1.044827,-0.159269,10.169253,-0.893517,0.014717,0.088632,2.258301,0.335693,-6.469727
12.230030,-1.055006,-0.393382,10.075847,-0.903696,-0.219396,-0.004774,-1.647949,-1.525879,-9.307861
12.240126,-1.113684,-0.439486,10.006990,-0.962373,-0.265500,-0.073630,-2.227783,-0.915527,-11.749268
12.250222,-0.840053,-0.360450,9.838740,-0.688743,-0.186464,-0.241881,-1.800537,-0.274658,-10.864258
12.260319,-1.291514,-0.398172,10.163864,-1.140204,-0.224186,0.083243,-1.342773,-0.732422,-5.859375
12.270414,-0.826880,-0.062271,10.056088,-0.675570,0.111716,-0.024532,-0.335693,-1.953125,-3.723145
12.280510,-0.947230,-0.335303,9.958491,-0.795920,-0.161317,-0.122130,-1.068115,-1.068115,-7.690430
12.290605,-0.814307,0.088616,9.986034,-0.662996,0.262602,-0.094587,0.976562,-0.671387,-6.591797
12.300702,-1.198109,0.114961,9.986034,-1.046798,0.288947,-0.094587,0.457764,0.366211,-5.950928
12.310798,-0.914299,0.253872,10.133328,-0.762988,0.427858,0.052707,-0.732422,0.610352,-6.591797
12.320894,-0.947829,0.084424,10.141710,-0.796518,0.258411,0.061089,-1.190186,1.098633,-7.537842
12.330993,-0.704734,0.265847,9.958491,-0.553424,0.439833,-0.122130,-1.434326,1.800537,-7.568359
12.341092,-0.784968,-0.280816,10.071656,-0.633657,-0.106830,-0.008965,-1.434326,1.312256,-7.934570
12.351191,-0.774789,0.698148,10.411150,-0.623478,0.872134,0.330529,-0.915527,0.396729,-7.476807
12.361287,-0.645458,0.157473,10.123149,-0.494147,0.331459,0.042528,-2.166748,-0.061035,-7.934570
12.371396,-0.764011,0.294587,10.044712,-0.612701,0.468574,-0.035909,-1.068115,-0.701904,-7.202148
12.381495,-0.662822,0.240699,9.895023,-0.511511,0.414686,-0.185598,-0.427246,-0.610352,-7.629395
12.391592,-0.950823,1.044229,10.566826,-0.799512,1.218215,0.486205,0.366211,-1.068115,-3.356934
12.401687,-0.499960,-0.108973,9.955497,-0.348650,0.065013,-0.125123,1.586914,-1.403809,-2.105713
12.411783,-0.631088,0.012574,9.965078,-0.479777,0.186560,-0.115543,0.152588,-2.044678,-1.342773
12.421878,-0.783171,0.172441,10.130334,-0.631861,0.346428,0.049713,0.457764,-2.166748,-1.159668
12.431974,-0.854423,0.086819,10.095606,-0.703113,0.260806,0.014985,0.701904,-2.075195,0.793457
12.442071,-0.887355,0.015568,10.035731,-0.736044,0.189554,-0.044890,-1.800537,-1.159668,2.075195
12.452168,-0.725092,-0.188009,10.142309,-0.573782,-0.014023,0.061688,-2.258301,-1.098633,1.861572
12.462330,-0.597557,0.123344,10.078841,-0.446247,0.297330,-0.001780,-0.274658,-1.190186,8.483887
12.472438,-0.580193,-0.001198,10.139914,-0.428883,0.172789,0.059293,-0.854492,-1.159668,10.162354
12.482550,-0.410746,0.280816,10.203382,-0.259435,0.454802,0.122761,-0.030518,0.000000,11.169434
12.492658,-0.422721,0.462838,9.975256,-0.271410,0.636824,-0.105364,-1.068115,-0.915527,10.925293
12.502791,-0.358654,0.235311,10.090217,-0.207344,0.409297,0.009597,-2.105713,-0.732422,9.582520
