time,ax_raw,ay_raw,az_raw,ax,ay,az,gx,gy,gz
0.003631,-0.074844,-0.699346,10.086026,0.010558,0.012246,0.000769,0.122070,0.030518,0.000000
0.013724,-0.084424,-0.707130,10.086625,0.000977,0.004462,0.001367,0.122070,0.061035,0.000000
0.023809,-0.084424,-0.705932,10.087822,0.000977,0.005660,0.002565,0.091553,0.061035,0.000000
0.033892,-0.089813,-0.712518,10.087822,-0.004411,-0.000927,0.002565,0.061035,0.030518,0.000000
0.043981,-0.088616,-0.712518,10.087224,-0.003214,-0.000927,0.001966,0.091553,0.030518,-0.030518
0.054064,-0.091011,-0.714315,10.090217,-0.005609,-0.002723,0.004960,0.091553,0.061035,-0.030518
0.064149,-0.091609,-0.718506,10.081236,-0.006208,-0.006914,-0.004021,0.061035,0.061035,0.000000
0.074233,-0.084424,-0.717308,10.085427,0.000977,-0.005717,0.000170,0.091553,0.061035,0.061035
0.084345,-0.078437,-0.719105,10.080038,0.006965,-0.007513,-0.005219,0.091553,0.061035,0.030518
0.094429,-0.083826,-0.717308,10.082433,0.001576,-0.005717,-0.002824,0.091553,0.030518,0.030518
0.104514,-0.089214,-0.713117,10.078242,-0.003813,-0.001525,-0.007015,0.061035,0.061035,0.030518
0.114695,-0.083826,-0.710722,10.080637,0.001576,0.000870,-0.004620,0.061035,0.030518,0.000000
0.124782,-0.095202,-0.714315,10.086026,-0.009800,-0.002723,0.000769,0.061035,0.030518,0.030518
0.134875,-0.092208,-0.716710,10.081835,-0.006806,-0.005118,-0.003423,0.061035,0.030518,0.000000
0.144964,-0.088017,-0.714315,10.080637,-0.002615,-0.002723,-0.004620,0.061035,0.061035,0.030518
0.155051,-0.080233,-0.717308,10.076446,0.005169,-0.005717,-0.008811,0.061035,0.030518,0.000000
0.165140,-0.079036,-0.713716,10.077643,0.006366,-0.002124,-0.007614,0.061035,0.061035,0.000000
0.175226,-0.074844,-0.714315,10.078841,0.010558,-0.002723,-0.006416,0.061035,0.061035,0.000000
0.185316,-0.080832,-0.720302,10.077045,0.004570,-0.008710,-0.008213,0.091553,0.030518,0.000000
0.195405,-0.083826,-0.716710,10.074650,0.001576,-0.005118,-0.010608,0.061035,0.061035,0.030518
0.205525,-0.084424,-0.714315,10.077045,0.000977,-0.002723,-0.008213,0.061035,0.091553,0.000000
0.215650,-0.083826,-0.710722,10.081835,0.001576,0.000870,-0.003423,0.061035,0.091553,0.000000
0.225763,-0.074844,-0.714913,10.083631,0.010558,-0.003322,-0.001626,0.091553,0.061035,-0.030518
0.235910,-0.079036,-0.714315,10.084230,0.006366,-0.002723,-0.001028,0.091553,0.061035,0.000000
0.246003,-0.085023,-0.719105,10.089020,0.000379,-0.007513,0.003762,0.091553,0.061035,0.000000
0.256106,-0.080832,-0.713716,10.085427,0.004570,-0.002124,0.000170,0.091553,0.091553,0.030518
0.266197,-0.085622,-0.709525,10.099199,-0.000220,0.002067,0.013941,0.061035,0.061035,0.030518
0.276286,-0.086221,-0.712518,10.095606,-0.000819,-0.000927,0.010349,0.091553,0.061035,0.030518
0.286392,-0.088017,-0.706531,10.096804,-0.002615,0.005061,0.011546,0.091553,0.000000,0.030518
0.296489,-0.089214,-0.720901,10.087224,-0.003813,-0.009309,0.001966,0.091553,0.000000,0.030518
0.306576,-0.084424,-0.723895,10.083032,0.000977,-0.012303,-0.002225,0.091553,0.000000,0.030518
0.316665,-0.079036,-0.715512,10.077643,0.006366,-0.003920,-0.007614,0.091553,0.030518,0.061035
0.326752,-0.079036,-0.716111,10.080637,0.006366,-0.004519,-0.004620,0.091553,0.030518,0.061035
0.336840,-0.088017,-0.716111,10.078242,-0.002615,-0.004519,-0.007015,0.091553,0.061035,0.000000
0.346932,-0.087418,-0.712518,10.073452,-0.002016,-0.000927,-0.011805,0.061035,0.061035,0.000000
0.357025,-0.092807,-0.713716,10.076446,-0.007405,-0.002124,-0.008811,0.091553,0.061035,0.000000
0.367115,-0.089214,-0.705932,10.083631,-0.003813,0.005660,-0.001626,0.061035,0.061035,-0.030518
0.377208,-0.086819,-0.711920,10.080038,-0.001418,-0.000328,-0.005219,0.091553,0.061035,0.000000
0.387298,-0.087418,-0.707130,10.080637,-0.002016,0.004462,-0.004620,0.061035,0.030518,0.000000
0.397388,-0.094603,-0.711920,10.072853,-0.009201,-0.000328,-0.012404,0.091553,0.061035,0.000000
0.407480,-0.097597,-0.709525,10.069261,-0.012195,0.002067,-0.015996,0.061035,0.030518,0.000000
0.417659,-0.098196,-0.708327,10.080637,-0.012794,0.003265,-0.004620,0.030518,0.030518,0.000000
0.427758,-0.092208,-0.706531,10.083631,-0.006806,0.005061,-0.001626,0.061035,0.000000,0.061035
0.437856,-0.094603,-0.708327,10.078841,-0.009201,0.003265,-0.006416,0.061035,0.030518,0.061035
0.447955,-0.095202,-0.712518,10.075847,-0.009800,-0.000927,-0.009410,0.061035,0.030518,0.061035
0.458053,-0.095202,-0.702938,10.068063,-0.009800,0.008654,-0.017194,0.061035,0.030518,0.030518
0.468151,-0.095202,-0.706531,10.074650,-0.009800,0.005061,-0.010608,0.061035,0.030518,0.061035
0.478249,-0.098795,-0.705333,10.085427,-0.013393,0.006258,0.000170,0.061035,0.030518,0.061035
0.488382,-0.096400,-0.708327,10.083032,-0.010998,0.003265,-0.002225,0.030518,0.061035,0.030518
0.498531,-0.094005,-0.713117,10.080637,-0.008603,-0.001525,-0.004620,0.061035,0.061035,0.000000
0.508636,-0.086819,-0.713716,10.081236,-0.001418,-0.002124,-0.004021,0.061035,0.061035,0.000000
0.518846,-0.088616,-0.717907,10.084230,-0.003214,-0.006315,-0.001028,0.061035,0.061035,0.000000
0.528933,-0.082029,-0.719105,10.086625,0.003372,-0.007513,0.001367,0.061035,0.030518,0.000000
0.539021,-0.079634,-0.722697,10.089619,0.005768,-0.011105,0.004361,0.091553,0.000000,0.000000
0.549107,-0.074844,-0.719105,10.081835,0.010558,-0.007513,-0.003423,0.091553,0.030518,0.000000
0.559194,-0.073647,-0.721500,10.077643,0.011755,-0.009908,-0.007614,0.091553,0.030518,0.000000
0.569283,-0.080832,-0.719105,10.085427,0.004570,-0.007513,0.000170,0.030518,0.000000,-0.030518
0.579370,-0.085622,-0.717907,10.084828,-0.000220,-0.006315,-0.000429,0.030518,0.000000,-0.030518
0.589456,-0.089214,-0.716710,10.083032,-0.003813,-0.005118,-0.002225,0.030518,0.000000,-0.030518
0.599542,-0.089813,-0.719703,10.080038,-0.004411,-0.008112,-0.005219,0.000000,0.030518,-0.030518
0.609629,-0.094005,-0.716111,10.077643,-0.008603,-0.004519,-0.007614,0.000000,0.030518,0.000000
0.619787,-0.083826,-0.708327,10.087224,0.001576,0.003265,0.001966,0.000000,0.000000,0.000000
0.629878,-0.083826,-0.708926,10.084230,0.001576,0.002666,-0.001028,0.000000,0.000000,0.030518
0.639971,-0.083227,-0.706531,10.078841,0.002175,0.005061,-0.006416,-0.030518,0.000000,0.030518
0.650063,-0.085622,-0.710722,10.079440,-0.000220,0.000870,-0.005818,0.000000,0.030518,0.030518
0.660155,-0.083826,-0.710722,10.077643,0.001576,0.000870,-0.007614,0.000000,0.061035,0.061035
0.670248,-0.086221,-0.708926,10.084230,-0.000819,0.002666,-0.001028,0.000000,0.061035,0.030518
0.680339,-0.087418,-0.706531,10.082433,-0.002016,0.005061,-0.002824,0.030518,0.030518,0.030518
0.690427,-0.089214,-0.710722,10.083032,-0.003813,0.000870,-0.002225,0.030518,0.061035,0.000000
0.700528,-0.094005,-0.709525,10.087822,-0.008603,0.002067,0.002565,0.030518,0.000000,0.030518
0.710614,-0.088616,-0.710722,10.083032,-0.003214,0.000870,-0.002225,0.000000,0.000000,0.030518
0.720738,-0.089214,-0.710722,10.086026,-0.003813,0.000870,0.000769,0.000000,0.030518,0.000000
0.730831,-0.086221,-0.705932,10.081835,-0.000819,0.005660,-0.003423,0.030518,0.000000,0.061035
0.740923,-0.080832,-0.713716,10.081835,0.004570,-0.002124,-0.003423,0.030518,0.030518,0.030518
0.751014,-0.078437,-0.713117,10.074650,0.006965,-0.001525,-0.010608,0.030518,0.000000,0.030518
0.761106,-0.093406,-0.716710,10.075847,-0.008004,-0.005118,-0.009410,0.030518,0.000000,0.030518
0.771196,-0.096400,-0.719105,10.078841,-0.010998,-0.007513,-0.006416,0.030518,0.000000,0.061035
0.781288,-0.092807,-0.725092,10.075248,-0.007405,-0.013500,-0.010009,0.061035,0.000000,0.030518
0.791379,-0.090412,-0.723296,10.071057,-0.005010,-0.011704,-0.014200,0.030518,0.000000,0.000000
0.801471,-0.094603,-0.720901,10.066267,-0.009201,-0.009309,-0.018990,0.061035,0.030518,-0.030518
0.811562,-0.089813,-0.719703,10.070458,-0.004411,-0.008112,-0.014799,0.030518,0.030518,-0.030518
0.821680,-0.092208,-0.710722,10.075248,-0.006806,0.000870,-0.010009,0.061035,0.000000,-0.030518
0.831772,-0.085622,-0.708327,10.074650,-0.000220,0.003265,-0.010608,0.061035,0.000000,0.000000
0.841863,-0.088616,-0.705932,10.074051,-0.003214,0.005660,-0.011206,0.061035,0.000000,0.000000
0.851955,-0.094005,-0.704734,10.075847,-0.008603,0.006857,-0.009410,0.061035,0.030518,0.000000
0.862076,-0.097597,-0.702938,10.079440,-0.012195,0.008654,-0.005818,0.091553,0.030518,0.000000
0.872170,-0.092208,-0.701142,10.092014,-0.006806,0.010450,0.006756,0.061035,0.000000,0.000000
0.882263,-0.094005,-0.706531,10.086026,-0.008603,0.005061,0.000769,0.091553,0.030518,0.030518
0.892352,-0.089214,-0.707728,10.074650,-0.003813,0.003863,-0.010608,0.091553,0.000000,0.030518
0.902458,-0.091011,-0.701741,10.071656,-0.005609,0.009851,-0.013601,0.122070,0.030518,0.030518
0.912802,-0.094603,-0.702938,10.071656,-0.009201,0.008654,-0.013601,0.122070,0.000000,0.030518
0.922891,-0.090412,-0.696352,10.078242,-0.005010,0.015240,-0.007015,0.091553,0.000000,0.000000
0.932993,-0.086221,-0.700543,10.073452,-0.000819,0.011049,-0.011805,0.091553,0.030518,-0.030518
0.943100,-0.085023,-0.699944,10.068063,0.000379,0.011647,-0.017194,0.091553,0.030518,-0.030518
0.953200,-0.085023,-0.708926,10.062076,0.000379,0.002666,-0.023182,0.061035,0.030518,-0.061035
0.963345,-0.080832,-0.713716,10.080637,0.004570,-0.002124,-0.004620,0.030518,0.000000,0.000000
0.973437,-0.083826,-0.715512,10.080637,0.001576,-0.003920,-0.004620,0.030518,0.000000,0.030518
0.983560,-0.085023,-0.715512,10.080637,0.000379,-0.003920,-0.004620,0.030518,0.030518,0.091553
0.993652,-0.088616,-0.712518,10.082433,-0.003214,-0.000927,-0.002824,0.030518,0.030518,0.061035
1.003744,-0.089813,-0.710123,10.081236,-0.004411,0.001468,-0.004021,0.030518,0.061035,0.061035
1.013833,-0.096400,-0.714315,10.087822,-0.010998,-0.002723,0.002565,0.030518,0.030518,0.061035
1.023925,-0.090412,-0.719105,10.083631,-0.005010,-0.007513,-0.001626,0.000000,0.030518,0.030518
1.034009,-0.089214,-0.725691,10.080637,-0.003813,-0.014099,-0.004620,0.030518,0.000000,0.030518
1.044094,-0.089813,-0.726290,10.083631,-0.004411,-0.014698,-0.001626,0.000000,0.030518,0.000000
1.054176,-0.092807,-0.720901,10.083032,-0.007405,-0.009309,-0.002225,0.030518,0.000000,0.000000
1.064261,-0.088616,-0.722697,10.084230,-0.003214,-0.011105,-0.001028,0.030518,0.000000,0.000000
1.074344,-0.088017,-0.720302,10.088421,-0.002615,-0.008710,0.003164,0.030518,0.030518,0.061035
1.084429,-0.089214,-0.714913,10.081236,-0.003813,-0.003322,-0.004021,0.030518,0.061035,0.030518
1.094513,-0.091011,-0.713716,10.083631,-0.005609,-0.002124,-0.001626,0.030518,0.091553,0.000000
1.104598,-0.088616,-0.714913,10.073452,-0.003214,-0.003322,-0.011805,0.030518,0.091553,0.030518
1.114682,-0.086819,-0.714913,10.083631,-0.001418,-0.003322,-0.001626,0.061035,0.091553,0.061035
1.124857,-0.082628,-0.710722,10.087224,0.002774,0.000870,0.001966,0.061035,0.061035,0.030518
1.134951,-0.084424,-0.709525,10.089020,0.000977,0.002067,0.003762,0.061035,0.061035,0.030518
1.145049,-0.084424,-0.707728,10.085427,0.000977,0.003863,0.000170,0.030518,0.061035,0.030518
1.155143,-0.082029,-0.707130,10.079440,0.003372,0.004462,-0.005818,0.000000,0.061035,0.030518
1.165240,-0.075443,-0.702339,10.087224,0.009959,0.009252,0.001966,0.030518,0.061035,0.061035
1.175333,-0.078437,-0.704136,10.090217,0.006965,0.007456,0.004960,0.000000,0.061035,0.030518
1.185428,-0.083227,-0.702339,10.087224,0.002175,0.009252,0.001966,0.000000,0.061035,0.000000
1.195530,-0.085023,-0.710722,10.087822,0.000379,0.000870,0.002565,0.000000,0.061035,0.030518
1.205628,-0.085622,-0.707728,10.084828,-0.000220,0.003863,-0.000429,0.000000,0.061035,0.091553
1.215937,-0.085622,-0.706531,10.090217,-0.000220,0.005061,0.004960,0.061035,0.061035,0.030518
1.226079,-0.083826,-0.707130,10.093211,0.001576,0.004462,0.007954,0.091553,0.061035,0.000000
1.236173,-0.084424,-0.707130,10.086026,0.000977,0.004462,0.000769,0.091553,0.000000,0.030518
1.246299,-0.086819,-0.711321,10.083032,-0.001418,0.000271,-0.002225,0.091553,0.030518,0.000000
1.256390,-0.087418,-0.711920,10.078841,-0.002016,-0.000328,-0.006416,0.061035,0.030518,0.000000
1.266483,-0.083227,-0.709525,10.080038,0.002175,0.002067,-0.005219,0.061035,0.061035,0.000000
1.276639,-0.082628,-0.719105,10.081835,0.002774,-0.007513,-0.003423,0.091553,0.030518,0.030518
1.286734,-0.082628,-0.719703,10.079440,0.002774,-0.008112,-0.005818,0.091553,0.030518,0.061035
1.296823,-0.086221,-0.718506,10.079440,-0.000819,-0.006914,-0.005818,0.061035,0.030518,0.061035
1.306914,-0.092208,-0.716710,10.076446,-0.006806,-0.005118,-0.008811,0.061035,0.061035,0.061035
1.317003,-0.090412,-0.710123,10.083631,-0.005010,0.001468,-0.001626,0.030518,0.061035,0.091553
1.327192,-0.088616,-0.706531,10.083032,-0.003214,0.005061,-0.002225,0.030518,0.030518,0.061035
1.337280,-0.082628,-0.700543,10.081835,0.002774,0.011049,-0.003423,0.030518,0.061035,0.061035
1.347367,-0.087418,-0.702938,10.085427,-0.002016,0.008654,0.000170,0.000000,0.061035,0.030518
1.357453,-0.083227,-0.705333,10.087822,0.002175,0.006258,0.002565,-0.030518,0.030518,0.061035
1.367539,-0.083227,-0.705932,10.083631,0.002175,0.005660,-0.001626,0.000000,0.061035,0.030518
1.377624,-0.083826,-0.708327,10.084230,0.001576,0.003265,-0.001028,0.000000,0.030518,0.061035
1.387712,-0.089813,-0.708926,10.083032,-0.004411,0.002666,-0.002225,0.000000,0.030518,0.030518
1.397798,-0.088616,-0.714315,10.083032,-0.003214,-0.002723,-0.002225,0.000000,0.030518,0.061035
1.407884,-0.086819,-0.717308,10.076446,-0.001418,-0.005717,-0.008811,0.000000,0.030518,0.061035
1.417970,-0.089214,-0.716111,10.075847,-0.003813,-0.004519,-0.009410,0.030518,0.000000,0.061035
1.428131,-0.090412,-0.715512,10.072853,-0.005010,-0.003920,-0.012404,0.061035,0.000000,0.000000
1.438230,-0.087418,-0.717308,10.072853,-0.002016,-0.005717,-0.012404,0.030518,0.030518,0.030518
1.448328,-0.086819,-0.710722,10.074650,-0.001418,0.000870,-0.010608,0.061035,0.030518,0.030518
1.458436,-0.087418,-0.714913,10.077643,-0.002016,-0.003322,-0.007614,0.061035,0.000000,0.000000
1.468537,-0.088616,-0.710722,10.078242,-0.003214,0.000870,-0.007015,0.000000,0.000000,0.061035
1.478636,-0.083826,-0.711321,10.078841,0.001576,0.000271,-0.006416,0.000000,0.000000,0.030518
1.488733,-0.085023,-0.710123,10.080637,0.000379,0.001468,-0.004620,0.030518,0.000000,0.030518
1.498832,-0.083227,-0.712518,10.070458,0.002175,-0.000927,-0.014799,0.030518,0.030518,0.000000
1.508927,-0.082628,-0.713716,10.075248,0.002774,-0.002124,-0.010009,0.061035,0.000000,0.000000
1.519026,-0.080233,-0.711920,10.076446,0.005169,-0.000328,-0.008811,0.061035,0.061035,-0.030518
1.529225,-0.085622,-0.711920,10.077045,-0.000220,-0.000328,-0.008213,0.061035,0.061035,0.000000
1.539315,-0.083826,-0.716710,10.071656,0.001576,-0.005118,-0.013601,0.091553,0.091553,0.000000
1.549407,-0.083826,-0.722098,10.068063,0.001576,-0.010507,-0.017194,0.091553,0.091553,0.000000
1.559500,-0.087418,-0.718506,10.075248,-0.002016,-0.006914,-0.010009,0.061035,0.030518,-0.030518
1.569592,-0.082029,-0.712518,10.088421,0.003372,-0.000927,0.003164,0.091553,0.061035,0.000000
1.579683,-0.086819,-0.708926,10.084230,-0.001418,0.002666,-0.001028,0.091553,0.030518,-0.030518
1.589774,-0.095202,-0.708327,10.077643,-0.009800,0.003265,-0.007614,0.030518,0.030518,0.000000
1.599867,-0.098196,-0.707728,10.077643,-0.012794,0.003863,-0.007614,0.000000,0.030518,0.000000
1.609958,-0.099393,-0.708327,10.078841,-0.013991,0.003265,-0.006416,0.061035,0.030518,0.030518
1.620049,-0.100591,-0.701741,10.079440,-0.015189,0.009851,-0.005818,0.061035,0.061035,0.000000
1.630215,-0.096998,-0.708926,10.076446,-0.011596,0.002666,-0.008811,0.061035,0.030518,0.000000
1.640312,-0.093406,-0.714913,10.075847,-0.008004,-0.003322,-0.009410,0.030518,0.061035,0.030518
1.650411,-0.091609,-0.717308,10.077643,-0.006208,-0.005717,-0.007614,0.030518,0.091553,0.030518
1.660510,-0.083227,-0.716111,10.085427,0.002175,-0.004519,0.000170,0.000000,0.091553,0.061035
1.670608,-0.082029,-0.717907,10.089619,0.003372,-0.006315,0.004361,0.000000,0.061035,0.061035
1.680706,-0.089214,-0.712518,10.085427,-0.003813,-0.000927,0.000170,-0.030518,0.061035,0.061035
1.690803,-0.092208,-0.705932,10.081835,-0.006806,0.005660,-0.003423,-0.030518,0.030518,0.030518
1.700900,-0.091609,-0.705932,10.081835,-0.006208,0.005660,-0.003423,0.000000,0.030518,0.091553
1.710996,-0.088616,-0.700543,10.080637,-0.003214,0.011049,-0.004620,0.030518,0.030518,0.091553
1.721089,-0.090412,-0.709525,10.079440,-0.005010,0.002067,-0.005818,0.061035,0.030518,0.091553
1.731296,-0.096400,-0.702938,10.084230,-0.010998,0.008654,-0.001028,0.030518,0.030518,0.091553
1.741389,-0.095801,-0.705932,10.074051,-0.010399,0.005660,-0.011206,0.030518,0.000000,0.091553
1.751481,-0.086221,-0.706531,10.068063,-0.000819,0.005061,-0.017194,0.061035,0.030518,0.030518
1.761573,-0.092208,-0.717907,10.072255,-0.006806,-0.006315,-0.013003,0.030518,0.061035,0.030518
1.771664,-0.086819,-0.713716,10.072255,-0.001418,-0.002124,-0.013003,0.061035,0.091553,0.061035
1.781812,-0.085023,-0.710123,10.082433,0.000379,0.001468,-0.002824,0.061035,0.091553,0.091553
1.791943,-0.079036,-0.705932,10.077643,0.006366,0.005660,-0.007614,0.030518,0.061035,0.061035
1.802160,-0.082628,-0.702938,10.074051,0.002774,0.008654,-0.011206,0.030518,0.061035,0.061035
1.812314,-0.082029,-0.707130,10.077045,0.003372,0.004462,-0.008213,-0.030518,0.030518,0.030518
1.822468,-0.085023,-0.709525,10.078841,0.000379,0.002067,-0.006416,0.061035,0.030518,0.061035
1.832675,-0.081431,-0.706531,10.080038,0.003971,0.005061,-0.005219,0.030518,0.030518,0.030518
1.842918,-0.083826,-0.707728,10.077045,0.001576,0.003863,-0.008213,0.030518,0.000000,0.030518
1.852994,-0.085622,-0.711321,10.072255,-0.000220,0.000271,-0.013003,0.061035,0.030518,0.000000
1.863099,-0.083826,-0.714315,10.079440,0.001576,-0.002723,-0.005818,0.000000,0.030518,0.030518
1.873187,-0.088017,-0.707728,10.081835,-0.002615,0.003863,-0.003423,0.000000,0.000000,0.030518
1.883265,-0.087418,-0.711920,10.084828,-0.002016,-0.000328,-0.000429,0.030518,0.030518,0.061035
1.893353,-0.091011,-0.709525,10.083631,-0.005609,0.002067,-0.001626,0.030518,0.030518,0.061035
1.903450,-0.088616,-0.708926,10.083631,-0.003214,0.002666,-0.001626,0.030518,0.030518,0.030518
1.913526,-0.091011,-0.706531,10.083032,-0.005609,0.005061,-0.002225,0.000000,0.030518,0.030518
1.923614,-0.086819,-0.702938,10.084230,-0.001418,0.008654,-0.001028,0.000000,0.030518,0.030518
1.933702,-0.082628,-0.706531,10.085427,0.002774,0.005061,0.000170,0.030518,0.030518,0.000000
1.943793,-0.085023,-0.714913,10.077045,0.000379,-0.003322,-0.008213,0.061035,0.030518,0.000000
1.953923,-0.084424,-0.714913,10.077643,0.000977,-0.003322,-0.007614,0.061035,0.030518,0.000000
1.964028,-0.084424,-0.702938,10.078841,0.000977,0.008654,-0.006416,0.091553,0.030518,0.000000
1.974118,-0.085622,-0.708926,10.077643,-0.000220,0.002666,-0.007614,0.091553,0.030518,0.000000
1.984224,-0.083227,-0.701142,10.078841,0.002175,0.010450,-0.006416,0.061035,0.030518,0.000000
1.994328,-0.082628,-0.702339,10.079440,0.002774,0.009252,-0.005818,0.030518,0.000000,0.000000
2.004419,-0.082628,-0.704734,10.078242,0.002774,0.006857,-0.007015,0.030518,0.000000,-0.030518
2.014522,-0.090412,-0.703537,10.093211,-0.005010,0.008055,0.007954,0.000000,0.030518,0.030518
2.024626,-0.089214,-0.706531,10.099797,-0.003813,0.005061,0.014540,0.030518,0.030518,0.000000
2.034748,-0.083826,-0.701741,10.099797,0.001576,0.009851,0.014540,0.030518,0.030518,-0.030518
2.044850,-0.085023,-0.702339,10.092612,0.000379,0.009252,0.007355,0.030518,0.030518,0.000000
2.054951,-0.089214,-0.705932,10.083631,-0.003813,0.005660,-0.001626,0.030518,0.061035,0.000000
2.065045,-0.090412,-0.708327,10.087822,-0.005010,0.003265,0.002565,0.000000,0.030518,0.000000
2.075221,-0.085023,-0.713117,10.091415,0.000379,-0.001525,0.006157,0.061035,0.061035,0.030518
2.085331,-0.082029,-0.711321,10.091415,0.003372,0.000271,0.006157,0.061035,0.030518,0.030518
2.095421,-0.080233,-0.709525,10.088421,0.005169,0.002067,0.003164,0.091553,0.030518,0.061035
2.105526,-0.075443,-0.713117,10.092014,0.009959,-0.001525,0.006756,0.030518,0.061035,0.061035
2.115629,-0.073048,-0.717308,10.097402,0.012354,-0.005717,0.012145,0.061035,0.030518,0.091553
2.125721,-0.074844,-0.708926,10.093810,0.010558,0.002666,0.008552,0.061035,0.061035,0.000000
2.135924,-0.076641,-0.708327,10.086026,0.008761,0.003265,0.000769,0.061035,0.030518,0.030518
2.146022,-0.082628,-0.710722,10.090816,0.002774,0.000870,0.005559,0.030518,0.061035,0.000000
2.156110,-0.083826,-0.711920,10.088421,0.001576,-0.000328,0.003164,0.030518,0.030518,0.000000
2.166208,-0.080832,-0.711920,10.090816,0.004570,-0.000328,0.005559,0.061035,0.061035,0.030518
2.176306,-0.084424,-0.706531,10.087224,0.000977,0.005061,0.001966,0.030518,0.061035,0.000000
2.186395,-0.083227,-0.713117,10.082433,0.002175,-0.001525,-0.002824,0.061035,0.030518,0.000000
2.196490,-0.078437,-0.714315,10.084230,0.006965,-0.002723,-0.001028,0.061035,0.030518,0.000000
2.206585,-0.081431,-0.715512,10.084230,0.003971,-0.003920,-0.001028,0.061035,0.061035,-0.030518
2.216671,-0.082029,-0.704734,10.085427,0.003372,0.006857,0.000170,0.061035,0.061035,0.030518
2.226770,-0.080832,-0.705932,10.085427,0.004570,0.005660,0.000170,0.061035,0.030518,0.030518
2.236966,-0.080233,-0.712518,10.086026,0.005169,-0.000927,0.000769,0.061035,0.061035,0.000000
2.247059,-0.082628,-0.711321,10.084828,0.002774,0.000271,-0.000429,0.061035,0.061035,0.030518
2.257165,-0.082029,-0.711321,10.081835,0.003372,0.000271,-0.003423,0.061035,0.000000,0.030518
2.267271,-0.088017,-0.706531,10.087224,-0.002615,0.005061,0.001966,0.030518,0.000000,0.030518
2.277364,-0.086221,-0.708327,10.085427,-0.000819,0.003265,0.000170,0.061035,0.000000,0.061035
2.287461,-0.079634,-0.710722,10.084828,0.005768,0.000870,-0.000429,0.030518,0.000000,0.030518
2.297566,-0.089813,-0.718506,10.083032,-0.004411,-0.006914,-0.002225,0.030518,0.030518,0.030518
2.307652,-0.090412,-0.715512,10.087224,-0.005010,-0.003920,0.001966,0.000000,0.061035,0.030518
2.317738,-0.086221,-0.717907,10.091415,-0.000819,-0.006315,0.006157,0.000000,0.030518,0.030518
2.327843,-0.088017,-0.711321,10.095606,-0.002615,0.000271,0.010349,0.030518,0.000000,0.000000
2.337969,-0.088017,-0.714315,10.085427,-0.002615,-0.002723,0.000170,0.030518,0.000000,0.000000
2.348063,-0.087418,-0.719703,10.083631,-0.002016,-0.008112,-0.001626,0.030518,0.030518,0.000000
2.358158,-0.087418,-0.716710,10.095606,-0.002016,-0.005118,0.010349,0.000000,0.061035,0.030518
2.368250,-0.094603,-0.722697,10.094409,-0.009201,-0.011105,0.009151,0.000000,0.030518,0.000000
2.378342,-0.089214,-0.723296,10.095606,-0.003813,-0.011704,0.010349,0.030518,0.030518,0.000000
2.388434,-0.090412,-0.722697,10.096205,-0.005010,-0.011105,0.010947,0.030518,0.030518,0.000000
2.398525,-0.087418,-0.710123,10.093810,-0.002016,0.001468,0.008552,0.030518,0.030518,0.030518
2.408616,-0.085023,-0.715512,10.096205,0.000379,-0.003920,0.010947,0.030518,0.000000,0.061035
2.418660,-0.081431,-0.717907,10.095606,0.003971,-0.006315,0.010349,0.000000,-0.030518,0.030518
2.428751,-0.089214,-0.705333,10.085427,-0.003813,0.006258,0.000170,0.000000,0.000000,0.030518
2.438867,-0.094005,-0.710123,10.084828,-0.008603,0.001468,-0.000429,0.000000,0.061035,0.061035
2.448962,-0.091609,-0.705333,10.086026,-0.006208,0.006258,0.000769,-0.030518,0.061035,0.030518
2.459053,-0.091609,-0.697549,10.087822,-0.006208,0.014042,0.002565,-0.030518,0.091553,0.030518
2.469146,-0.091609,-0.700543,10.086625,-0.006208,0.011049,0.001367,0.030518,0.061035,0.061035
2.479238,-0.089813,-0.707728,10.086625,-0.004411,0.003863,0.001367,0.000000,0.030518,0.061035
2.489329,-0.088017,-0.712518,10.083032,-0.002615,-0.000927,-0.002225,0.000000,0.030518,0.061035
2.499434,-0.097597,-0.710722,10.076446,-0.012195,0.000870,-0.008811,0.000000,0.030518,0.030518
2.509521,-0.095801,-0.711321,10.081236,-0.010399,0.000271,-0.004021,0.000000,0.030518,0.000000
2.519606,-0.094603,-0.710722,10.087822,-0.009201,0.000870,0.002565,0.000000,0.061035,0.000000
2.529697,-0.096400,-0.705932,10.092014,-0.010998,0.005660,0.006756,0.030518,0.030518,0.000000
2.539819,-0.094603,-0.704136,10.093211,-0.009201,0.007456,0.007954,0.061035,0.030518,0.030518
2.549910,-0.094005,-0.707728,10.084230,-0.008603,0.003863,-0.001028,0.030518,0.000000,0.000000
2.560002,-0.091609,-0.709525,10.089619,-0.006208,0.002067,0.004361,0.061035,0.030518,0.030518
2.570093,-0.086819,-0.713117,10.087822,-0.001418,-0.001525,0.002565,0.061035,0.030518,0.061035
2.580183,-0.086819,-0.705333,10.090217,-0.001418,0.006258,0.004960,0.030518,0.030518,0.030518
2.590275,-0.089214,-0.713716,10.085427,-0.003813,-0.002124,0.000170,0.091553,0.061035,0.030518
2.600393,-0.080832,-0.711920,10.085427,0.004570,-0.000328,0.000170,0.061035,0.061035,0.061035
2.610483,-0.088017,-0.707130,10.093810,-0.002615,0.004462,0.008552,0.061035,0.061035,0.061035
2.620576,-0.091609,-0.710722,10.092612,-0.006208,0.000870,0.007355,0.061035,0.091553,0.061035
2.630670,-0.089214,-0.704734,10.081236,-0.003813,0.006857,-0.004021,0.061035,0.061035,0.000000
2.640796,-0.086221,-0.707728,10.082433,-0.000819,0.003863,-0.002824,0.061035,0.030518,0.000000
2.650888,-0.086819,-0.705333,10.089619,-0.001418,0.006258,0.004361,0.061035,0.061035,0.030518
2.660980,-0.083227,-0.705333,10.097402,0.002175,0.006258,0.012145,0.030518,0.030518,0.030518
2.671881,-0.081431,-0.705333,10.098001,0.003971,0.006258,0.012744,0.061035,0.061035,0.061035
2.681982,-0.085622,-0.710722,10.096804,-0.000220,0.000870,0.011546,0.030518,0.061035,0.030518
2.692096,-0.089214,-0.708926,10.090816,-0.003813,0.002666,0.005559,0.061035,0.091553,0.030518
2.702193,-0.082628,-0.703537,10.096205,0.002774,0.008055,0.010947,0.030518,0.061035,0.000000
2.712659,-0.084424,-0.705333,10.095606,0.000977,0.006258,0.010349,0.030518,0.061035,0.000000
2.722752,-0.088616,-0.701741,10.096205,-0.003214,0.009851,0.010947,0.000000,0.030518,-0.030518
2.732842,-0.088017,-0.711920,10.085427,-0.002615,-0.000328,0.000170,0.000000,0.061035,0.000000
2.742931,-0.090412,-0.708926,10.090217,-0.005010,0.002666,0.004960,-0.030518,0.061035,0.030518
2.753020,-0.089214,-0.705932,10.085427,-0.003813,0.005660,0.000170,0.000000,0.061035,0.030518
2.763109,-0.087418,-0.705932,10.090217,-0.002016,0.005660,0.004960,0.030518,0.061035,0.000000
2.773197,-0.092208,-0.708926,10.089619,-0.006806,0.002666,0.004361,0.030518,0.030518,0.000000
2.783285,-0.089813,-0.704734,10.091415,-0.004411,0.006857,0.006157,0.030518,0.061035,0.000000
2.793372,-0.093406,-0.703537,10.095007,-0.008004,0.008055,0.009750,0.030518,0.030518,0.030518
2.803460,-0.095801,-0.706531,10.090217,-0.010399,0.005061,0.004960,0.030518,0.030518,0.030518
2.813547,-0.093406,-0.701741,10.092014,-0.008004,0.009851,0.006756,0.000000,0.030518,0.000000
2.823636,-0.095202,-0.704734,10.095007,-0.009800,0.006857,0.009750,0.000000,0.061035,0.000000
2.833726,-0.089214,-0.707728,10.095606,-0.003813,0.003863,0.010349,0.030518,0.030518,0.030518
2.843906,-0.088616,-0.719703,10.088421,-0.003214,-0.008112,0.003164,0.091553,0.000000,0.000000
2.854000,-0.089214,-0.714913,10.093211,-0.003813,-0.003322,0.007954,0.091553,0.000000,0.000000
2.864098,-0.086221,-0.716111,10.095606,-0.000819,-0.004519,0.010349,0.091553,0.000000,0.030518
2.874192,-0.089214,-0.716710,10.093810,-0.003813,-0.005118,0.008552,0.122070,0.030518,0.030518
2.884289,-0.089813,-0.716111,10.089619,-0.004411,-0.004519,0.004361,0.122070,0.030518,0.000000
2.894382,-0.085622,-0.708926,10.083032,-0.000220,0.002666,-0.002225,0.091553,0.030518,0.030518
2.904480,-0.088616,-0.704136,10.089619,-0.003214,0.007456,0.004361,0.061035,0.030518,0.030518
2.914575,-0.082628,-0.709525,10.093810,0.002774,0.002067,0.008552,0.030518,0.030518,0.000000
2.924671,-0.081431,-0.712518,10.095007,0.003971,-0.000927,0.009750,0.030518,0.061035,0.000000
2.934764,-0.086221,-0.711321,10.092612,-0.000819,0.000271,0.007355,0.061035,0.030518,0.000000
2.944954,-0.083826,-0.707728,10.092014,0.001576,0.003863,0.006756,0.061035,0.030518,-0.030518
2.955086,-0.085023,-0.710123,10.089619,0.000379,0.001468,0.004361,0.061035,0.030518,0.000000
2.965186,-0.088017,-0.704136,10.099199,-0.002615,0.007456,0.013941,0.061035,0.000000,0.000000
2.975274,-0.089813,-0.704136,10.090816,-0.004411,0.007456,0.005559,0.000000,0.030518,0.000000
2.985379,-0.084424,-0.709525,10.089619,0.000977,0.002067,0.004361,0.000000,0.030518,0.000000
2.995480,-0.084424,-0.711321,10.089020,0.000977,0.000271,0.003762,0.030518,0.000000,0.000000
3.005577,-0.088616,-0.714315,10.092014,-0.003214,-0.002723,0.006756,0.030518,0.030518,-0.030518
3.015680,-0.089813,-0.710722,10.087822,-0.004411,0.000870,0.002565,0.030518,0.030518,0.000000
3.025787,-0.088616,-0.714913,10.084230,-0.003214,-0.003322,-0.001028,0.030518,0.030518,0.061035
3.035877,-0.091609,-0.710123,10.082433,-0.006208,0.001468,-0.002824,0.030518,0.061035,0.030518
3.046017,-0.086221,-0.713117,10.083032,-0.000819,-0.001525,-0.002225,0.030518,0.030518,0.030518
3.056117,-0.086221,-0.715512,10.092612,-0.000819,-0.003920,0.007355,0.030518,0.061035,0.030518
3.066206,-0.087418,-0.718506,10.096804,-0.002016,-0.006914,0.011546,0.030518,0.061035,0.030518
3.076313,-0.085023,-0.716111,10.095606,0.000379,-0.004519,0.010349,0.061035,0.061035,0.030518
3.086417,-0.085023,-0.709525,10.095007,0.000379,0.002067,0.009750,0.030518,0.061035,0.030518
3.096513,-0.078437,-0.706531,10.089619,0.006965,0.005061,0.004361,0.030518,0.061035,0.030518
3.106617,-0.082628,-0.708926,10.093211,0.002774,0.002666,0.007954,0.000000,0.061035,0.030518
3.116712,-0.083826,-0.707130,10.093211,0.001576,0.004462,0.007954,0.000000,0.030518,0.061035
3.126804,-0.083826,-0.713117,10.085427,0.001576,-0.001525,0.000170,-0.030518,0.000000,0.030518
3.136908,-0.086221,-0.713117,10.081236,-0.000819,-0.001525,-0.004021,-0.061035,0.030518,0.000000
3.147045,-0.087418,-0.709525,10.083032,-0.002016,0.002067,-0.002225,-0.030518,0.030518,0.000000
3.157134,-0.088616,-0.710123,10.085427,-0.003214,0.001468,0.000170,-0.030518,0.030518,0.000000
3.167238,-0.092208,-0.714913,10.092014,-0.006806,-0.003322,0.006756,0.030518,0.000000,-0.030518
3.177342,-0.089214,-0.720302,10.090816,-0.003813,-0.008710,0.005559,0.030518,0.000000,-0.030518
3.187434,-0.082628,-0.715512,10.083631,0.002774,-0.003920,-0.001626,0.091553,0.000000,0.030518
3.197538,-0.082628,-0.715512,10.081835,0.002774,-0.003920,-0.003423,0.091553,0.000000,0.030518
3.207642,-0.081431,-0.712518,10.090217,0.003971,-0.000927,0.004960,0.122070,0.030518,0.030518
3.217732,-0.085023,-0.710123,10.093810,0.000379,0.001468,0.008552,0.122070,0.030518,0.030518
3.227839,-0.095202,-0.711321,10.089619,-0.009800,0.000271,0.004361,0.122070,0.030518,0.061035
3.237945,-0.860411,-0.697549,10.093810,-0.775009,0.014042,0.008552,0.213623,0.030518,0.518799
3.248065,-0.979563,-0.729283,10.090217,-0.894161,-0.017692,0.004960,0.122070,-0.122070,1.739502
3.258198,-0.709525,-0.687371,10.091415,-0.624123,0.024221,0.006157,0.213623,-0.305176,3.540039
3.268304,-0.531694,-0.694556,10.094409,-0.446292,0.017036,0.009151,0.366211,-0.366211,4.272461
3.278393,-0.491578,-0.752635,10.125544,-0.406176,-0.041043,0.040286,0.579834,-0.091553,5.798340
3.288483,-0.305964,-0.719105,10.078242,-0.220562,-0.007513,-0.007015,0.610352,-0.091553,5.828857
3.298578,-0.235909,-0.711920,10.078242,-0.150508,-0.000328,-0.007015,0.396729,-0.213623,5.645752
3.308668,-0.326321,-0.679587,10.100396,-0.240920,0.032005,0.015139,0.427246,-0.122070,4.577637
3.318768,-0.471819,-0.655038,10.098001,-0.386417,0.056554,0.012744,0.396729,-0.061035,4.364014
3.328861,-0.421523,-0.735870,10.066866,-0.336122,-0.024278,-0.018392,-0.091553,-0.091553,4.608154
3.338952,-0.323328,-0.753234,10.088421,-0.237926,-0.041642,0.003164,-0.366211,-0.152588,4.547119
3.349086,-0.204175,-0.759820,10.090217,-0.118774,-0.048228,0.004960,0.244141,-0.122070,4.974365
3.359180,-0.220941,-0.801134,10.087822,-0.135539,-0.089542,0.002565,0.579834,-0.183105,5.035400
3.369271,-0.261057,-0.796943,10.095007,-0.175655,-0.085351,0.009750,0.762939,-0.091553,4.943848
3.379359,-0.288600,-0.701142,10.115964,-0.203198,0.010450,0.030706,0.915527,-0.061035,4.455566
3.389451,-0.374821,-0.662223,10.062076,-0.289419,0.049369,-0.023182,1.464844,-0.213623,4.058838
3.399541,-0.407153,-0.698148,10.066267,-0.321751,0.013444,-0.018990,0.518799,0.000000,3.479004
3.409630,-0.354463,-0.673000,9.998608,-0.269061,0.038591,-0.086650,0.244141,0.152588,2.777100
3.419720,-0.233514,-0.670605,10.082433,-0.148112,0.040986,-0.002824,-0.427246,0.427246,1.525879
3.429981,-0.292192,-0.640668,10.047706,-0.206790,0.070924,-0.037552,-0.183105,0.183105,1.007080
3.440071,-0.356259,-0.699346,10.111174,-0.270857,0.012246,0.025916,-0.030518,0.335693,0.976562
3.450251,-0.211959,-0.738864,10.056687,-0.126557,-0.027272,-0.028570,0.366211,0.366211,0.823975
3.460349,-0.249681,-0.766406,10.106384,-0.164279,-0.054815,0.021126,0.122070,0.762939,-0.091553
3.470472,-0.379012,-0.914897,10.102192,-0.293610,-0.203306,0.016935,-0.457764,1.159668,-0.732422
3.480574,-0.388592,-0.801134,10.082433,-0.303190,-0.089542,-0.002824,-0.518799,1.220703,-0.671387
3.490672,-0.331111,-0.722098,10.120155,-0.245710,-0.010507,0.034898,0.244141,0.610352,1.617432
3.500769,-0.222138,-0.685574,10.063273,-0.136736,0.026017,-0.021984,0.183105,0.366211,1.586914
3.510864,-0.342488,-0.661025,10.114766,-0.257086,0.050566,0.029509,0.000000,0.335693,-0.885010
3.520993,-0.214953,-0.905916,10.079440,-0.129551,-0.194324,-0.005818,0.305176,0.396729,-2.563477
3.531094,-0.293390,-0.852028,10.072853,-0.207988,-0.140436,-0.012404,0.854492,0.335693,-3.875732
3.541192,-0.173639,-0.673599,10.110575,-0.088237,0.037992,0.025318,0.610352,0.030518,-2.807617
3.551413,-0.150287,-0.708327,10.056687,-0.064886,0.003265,-0.028570,0.427246,0.122070,-2.319336
3.561506,-0.192200,-0.661624,10.085427,-0.106798,0.049968,0.000170,0.000000,-0.152588,-1.922607
3.571635,-0.096400,-0.709525,10.093211,-0.010998,0.002067,0.007954,-0.274658,-0.213623,-1.251221
3.581730,-0.020358,-0.822689,10.090816,0.065044,-0.111097,0.005559,0.274658,-0.244141,-2.441406
3.591862,-0.243693,-0.787363,10.110575,-0.158291,-0.075771,0.025318,0.244141,-0.305176,-2.807617
3.601957,-0.395178,-0.708926,10.012978,-0.309776,0.002666,-0.072279,0.274658,-0.091553,-5.798340
3.612046,-0.359852,-0.549657,10.071656,-0.274450,0.161935,-0.013601,0.335693,-0.122070,-5.249023
3.622141,-0.395178,-0.539478,10.069860,-0.309776,0.172114,-0.015398,0.396729,-0.091553,-6.072998
3.632234,-0.273631,-0.921484,9.989028,-0.188229,-0.209892,-0.096230,-0.122070,0.213623,-6.072998
3.642326,-0.387993,-0.959804,10.089020,-0.302591,-0.248212,0.003762,-0.793457,0.030518,-6.927490
3.652452,-0.507145,-0.649649,10.169253,-0.421743,0.061943,0.083996,-0.732422,-0.274658,-7.354736
3.662544,-0.605940,-0.770598,10.097402,-0.520538,-0.059006,0.012145,-0.854492,0.030518,-7.110596
3.672635,-0.601749,-0.979563,10.024354,-0.516347,-0.267971,-0.060903,-0.122070,0.579834,-7.202148
3.682727,-0.592767,-0.624501,10.004595,-0.507365,0.087090,-0.080662,0.305176,0.946045,-5.554199
3.692819,-0.484393,-0.472418,10.016570,-0.398991,0.239174,-0.068687,-0.122070,0.793457,-1.434326
3.702910,-0.529898,-0.600551,10.022558,-0.444496,0.111041,-0.062699,-0.701904,0.122070,2.593994
3.712999,-0.429307,-0.960403,10.063872,-0.343905,-0.248811,-0.021385,-0.488281,0.244141,1.892090
3.723088,-0.415536,-0.836461,10.096804,-0.330134,-0.124869,0.011546,0.000000,0.549316,0.305176
3.733180,-0.349074,-0.936453,10.001602,-0.263672,-0.224861,-0.083656,0.701904,0.671387,1.678467
3.743271,-0.398771,-1.179547,10.130334,-0.313369,-0.467955,0.045077,0.854492,0.061035,3.051758
3.753454,-0.458047,-0.993334,10.222542,-0.372646,-0.281743,0.137285,0.854492,-0.762939,3.265381
3.763550,-0.395178,-0.837658,10.281220,-0.309776,-0.126066,0.195963,1.678467,-1.464844,7.843018
3.773648,-0.159269,-0.929866,10.257869,-0.073867,-0.218275,0.172611,1.800537,-1.861572,11.169434
3.783746,-0.056882,-0.827479,10.113569,0.028520,-0.115888,0.028311,3.356934,-1.434326,12.573242
3.793844,0.156874,-0.469424,9.999207,0.242276,0.242168,-0.086051,2.197266,-1.373291,9.399414
3.803939,-0.010179,-0.558638,10.015972,0.075223,0.152953,-0.069286,1.495361,-1.129150,6.683350
3.814036,-0.064666,-0.354463,10.056687,0.020736,0.357129,-0.028570,0.000000,-1.098633,3.784180
3.824183,-0.307161,-0.662223,10.121951,-0.221759,0.049369,0.036694,-0.396729,-0.671387,4.608154
3.834283,-0.355660,-0.749641,10.013577,-0.270258,-0.038049,-0.071681,-0.152588,0.671387,3.082275
3.844381,-0.029938,-0.252076,10.106384,0.055464,0.459516,0.021126,-0.915527,0.885010,3.326416
3.854587,-0.017364,-0.705333,10.239307,0.068038,0.006258,0.154050,0.000000,0.610352,5.706787
3.864679,-0.282612,-0.820893,10.003997,-0.197210,-0.109301,-0.081261,0.427246,-0.061035,5.401611
3.874770,-0.240699,-0.806523,10.135124,-0.155298,-0.094931,0.049867,-0.854492,-0.091553,4.730225
3.884862,-0.113165,-0.861010,9.977651,-0.027763,-0.149418,-0.107606,-0.946045,0.000000,4.760742
3.894952,-0.070653,-0.816702,10.235116,0.014749,-0.105110,0.149859,-1.617432,-0.244141,4.730225
3.905042,-0.231718,-0.826282,9.898017,-0.146316,-0.114690,-0.187240,-2.166748,-0.457764,4.882812
3.915131,-0.353864,-0.641266,10.184222,-0.268462,0.070325,0.098964,-1.892090,-1.281738,5.126953
3.925308,-0.174836,-0.730481,10.260264,-0.089435,-0.018889,0.175006,-2.807617,-1.617432,6.256104
3.935400,-0.156874,-0.703537,10.139914,-0.071472,0.008055,0.054657,-1.342773,-1.129150,2.655029
3.945491,-0.079036,-0.725092,10.096205,0.006366,-0.013500,0.010947,-1.251221,-0.701904,2.746582
3.955631,-0.647254,-0.643661,10.078841,-0.561852,0.067930,-0.006416,0.213623,-0.091553,1.861572
3.965720,-0.344284,-0.596360,10.151290,-0.258882,0.115232,0.066033,0.762939,0.396729,3.051758
3.975811,-0.228126,-0.632884,10.151290,-0.142724,0.078708,0.066033,1.037598,1.251221,2.044678
3.985898,-0.479004,-0.761017,10.119556,-0.393602,-0.049426,0.034299,1.464844,1.159668,-0.488281
3.995988,-0.338297,-0.734073,10.025552,-0.252895,-0.022482,-0.059706,2.227783,0.854492,-1.861572
4.006080,-0.469424,-0.063468,10.053094,-0.384022,0.648124,-0.032163,3.082275,1.373291,-2.502441
4.016172,-0.588576,-0.314346,10.087224,-0.503174,0.397245,0.001966,1.586914,1.403809,-0.244141
4.026265,-0.627495,-0.768203,10.184222,-0.542093,-0.056611,0.098964,0.732422,1.098633,-1.556396
4.036356,-0.475411,-0.699346,10.033336,-0.390009,0.012246,-0.051922,1.373291,0.762939,-1.281738
4.046447,-0.613724,-0.544268,10.002200,-0.528322,0.167324,-0.083057,-1.892090,0.854492,0.915527
4.056567,-0.122146,-0.764011,10.030941,-0.036744,-0.052419,-0.054317,-2.044678,1.251221,-3.570557
4.066658,-0.112566,-0.641865,10.147099,-0.027164,0.069727,0.061842,-0.732422,1.007080,-8.911133
4.076750,-0.386197,-0.319136,10.260264,-0.300795,0.392455,0.175006,0.579834,0.549316,-9.155273
4.086841,-0.947829,-0.068258,10.021360,-0.862427,0.643334,-0.063897,2.655029,-0.244141,-7.507324
4.096931,-0.681383,-0.410147,10.018965,-0.595981,0.301445,-0.066292,-0.366211,-0.488281,-1.464844
4.107040,-0.470023,-0.593965,10.041119,-0.384621,0.117627,-0.044138,-1.251221,-0.366211,0.183105
4.117131,-0.208367,-0.431702,10.038126,-0.122965,0.279889,-0.047132,-2.197266,0.213623,3.387451
4.127220,0.061672,-0.544268,10.257869,0.147074,0.167324,0.172611,0.762939,0.854492,3.509521
4.137311,-0.138911,-0.562830,10.166858,-0.053509,0.148762,0.081601,-1.708984,0.457764,0.732422
4.147402,-0.034129,-0.755030,10.157877,0.051273,-0.043438,0.072619,-0.366211,0.183105,-3.082275
4.157588,-0.258063,-0.594564,10.086625,-0.172661,0.117028,0.001367,0.030518,0.061035,-4.638672
4.167684,-0.247885,-0.605940,10.077643,-0.162483,0.105652,-0.007614,0.671387,0.366211,-2.990723
4.177783,-0.207169,-0.825683,10.056687,-0.121767,-0.114091,-0.028570,1.403809,0.823975,-2.319336
4.187882,-0.178429,-0.944236,10.068662,-0.093027,-0.232645,-0.016595,1.861572,1.617432,-2.777100
4.197979,-0.737067,-0.470621,9.903406,-0.651665,0.240970,-0.181852,1.403809,1.983643,-3.051758
4.208072,-0.628693,-0.597557,9.948312,-0.543291,0.114034,-0.136945,-0.183105,2.105713,-7.263184
4.218169,-0.531694,-0.336500,10.155482,-0.446292,0.375091,0.070224,-0.366211,1.861572,-7.415771
4.228267,-0.364642,-0.277224,10.090816,-0.279240,0.434368,0.005559,-0.671387,1.739502,-6.744385
4.238364,-0.622106,-0.529299,10.069261,-0.536704,0.182292,-0.015996,0.061035,0.823975,-13.061523
4.248463,-0.657433,-0.349074,10.046508,-0.572031,0.362518,-0.038749,0.152588,0.671387,-14.434814
4.258652,-0.490380,-0.761616,10.077045,-0.404978,-0.050024,-0.008213,-0.701904,0.000000,-13.702393
4.268744,-0.564027,-0.789758,10.161469,-0.478625,-0.078166,0.076212,-1.190186,-0.152588,-13.244629
4.278836,-0.527503,-0.812510,9.963281,-0.442101,-0.100919,-0.121976,2.502441,1.007080,-11.291504
4.288926,-0.152084,-0.666414,10.084230,-0.066682,0.045178,-0.001028,0.823975,1.007080,-10.223389
4.299021,-0.398172,-0.935255,10.059082,-0.312770,-0.223663,-0.026175,-1.495361,1.007080,-13.732910
4.309112,-0.784369,-1.099913,10.553654,-0.698967,-0.388321,0.468396,-2.624512,0.640869,-13.610840
4.319200,-1.164578,-0.914897,10.186018,-1.079176,-0.203306,0.100761,-3.356934,-1.129150,-12.268066
4.329303,-0.617316,-0.819097,10.111772,-0.531914,-0.107505,0.026515,-3.448486,-1.037598,-8.056641
4.339393,-0.272433,-0.984353,9.999207,-0.187032,-0.272761,-0.086051,-2.258301,-0.885010,-5.676270
4.349486,-0.074246,-0.740061,10.019564,0.011156,-0.028469,-0.065693,-0.366211,-1.007080,-4.730225
4.359673,-0.431104,-0.907712,10.077643,-0.345702,-0.196121,-0.007614,-0.091553,-1.220703,-5.950928
4.369769,-0.282014,-0.744851,9.963281,-0.196612,-0.033259,-0.121976,1.098633,-1.312256,-5.859375
4.379866,-0.047302,-0.848436,9.957294,0.038100,-0.136844,-0.127964,1.159668,-0.640869,-6.744385
4.389964,0.238903,-1.074765,9.932146,0.324305,-0.363173,-0.153111,1.831055,-0.244141,-8.758545
4.400062,0.143102,-0.123344,10.043514,0.228504,0.588248,-0.041743,1.556396,0.671387,-11.932373
4.410168,0.050894,-0.287402,10.163265,0.136296,0.424189,0.078008,0.488281,1.129150,-10.864258
4.420267,0.298779,-0.609532,10.210567,0.384181,0.102059,0.125310,1.586914,2.197266,-7.781982
4.430366,-0.444276,-1.054407,10.154284,-0.358874,-0.342816,0.069027,0.885010,1.678467,-3.601074
4.440466,-0.896336,-0.942440,10.012379,-0.810934,-0.230848,-0.072878,-0.183105,0.976562,0.854492
4.450566,-0.371228,-0.747246,9.977651,-0.285826,-0.035654,-0.107606,-1.098633,0.366211,1.525879
4.460766,-0.258063,-0.587977,10.087822,-0.172661,0.123614,0.002565,-0.091553,-1.007080,3.234863
4.470859,-0.435295,-0.741259,10.090816,-0.349893,-0.029667,0.005559,-0.122070,-1.586914,2.136230
4.480950,-0.554447,-0.877775,10.226733,-0.469045,-0.166183,0.141476,-0.335693,-1.922607,-1.251221
4.491040,-0.175435,-0.705333,10.110575,-0.090033,0.006258,0.025318,0.976562,-1.342773,-0.244141
4.501131,-0.179626,-0.778980,10.090816,-0.094225,-0.067388,0.005559,0.488281,-0.915527,2.685547
4.511219,-0.129930,-0.701142,10.022558,-0.044528,0.010450,-0.062699,-1.007080,0.122070,3.784180
4.521307,-0.248483,-0.862207,9.968670,-0.163081,-0.150615,-0.116587,-2.563477,0.488281,4.516602
4.531397,-0.193398,-0.816702,9.899214,-0.107996,-0.105110,-0.186043,-1.617432,1.007080,4.577637
4.541488,-0.174836,-0.624501,10.056687,-0.089435,0.087090,-0.028570,-0.091553,2.166748,6.195068
4.551578,-0.326321,-0.639470,10.186018,-0.240920,0.072122,0.100761,-0.213623,1.922607,6.713867
4.561765,-0.335303,-0.617316,10.054891,-0.249901,0.094275,-0.030367,-2.807617,1.281738,-0.335693
4.571869,-0.266446,-0.674797,10.118958,-0.181044,0.036795,0.033700,-2.929688,1.190186,0.091553
4.581968,-0.077838,-0.831671,10.093810,0.007564,-0.120079,0.008552,-1.068115,0.000000,4.974365
4.592067,-0.210762,-0.752036,10.117161,-0.125360,-0.040444,0.031904,-0.335693,0.000000,6.164551
4.602165,-0.456251,-0.889151,10.306368,-0.370849,-0.177559,0.221110,2.136230,-0.213623,6.713867
4.612262,-0.219743,-0.786165,9.996213,-0.134341,-0.074573,-0.089045,3.845215,0.061035,10.284424
4.622360,-0.003593,-0.749042,9.989028,0.081809,-0.037451,-0.096230,1.525879,0.091553,12.786865
4.632458,-0.268841,-0.499960,9.985435,-0.183439,0.211631,-0.099822,0.762939,0.610352,7.904053
4.642555,-0.323328,-0.714315,9.917776,-0.237926,-0.002723,-0.167481,0.335693,0.518799,3.204346
4.652653,-0.207169,-0.712518,10.201586,-0.121767,-0.000927,0.116328,-1.220703,-0.854492,6.256104
4.662783,-0.161065,-0.684377,10.211166,-0.075663,0.027215,0.125908,-0.274658,-1.190186,8.056641
4.672881,-0.341290,-0.920885,10.118958,-0.255888,-0.209293,0.033700,1.007080,-1.403809,9.887695
4.682978,-0.270637,-0.902922,10.089020,-0.185235,-0.191331,0.003762,0.732422,-1.525879,10.986328
4.693075,-0.084424,-0.789758,10.058483,0.000977,-0.078166,-0.026774,0.640869,-1.312256,9.033203
4.703170,-0.270637,-0.670605,10.008787,-0.185235,0.040986,-0.076471,-0.396729,-0.946045,4.699707
4.713265,-0.145497,-0.665815,10.218351,-0.060096,0.045776,0.133093,-0.915527,-1.251221,4.058838
4.723359,-0.429906,-0.768203,9.929152,-0.344504,-0.056611,-0.156105,-0.427246,-0.122070,11.627197
4.733456,-0.478405,-0.810714,10.351274,-0.393003,-0.099122,0.266017,-0.274658,0.152588,7.629395
4.743553,-0.190404,-0.631088,10.314152,-0.105002,0.080504,0.228894,-0.946045,0.488281,-2.532959
4.753650,-0.283810,-0.425715,9.970466,-0.198408,0.285877,-0.114791,-0.579834,0.030518,-6.256104
4.763777,-0.239502,-0.617915,10.056687,-0.154100,0.093677,-0.028570,-1.739502,0.488281,-7.019043
4.773875,0.062869,-1.001118,9.915381,0.148271,-0.289526,-0.169876,-0.335693,0.610352,-6.347656
4.784026,-0.182021,-0.778381,10.107581,-0.096620,-0.066790,0.022324,0.793457,0.549316,-4.089355
4.794236,-0.348475,-0.636476,10.069261,-0.263073,0.075115,-0.015996,1.495361,-0.305176,0.915527
4.804407,-0.462838,-0.714913,10.012379,-0.377436,-0.003322,-0.072878,-0.122070,-0.885010,2.685547
4.814612,-0.893342,-0.710722,9.884246,-0.807940,0.000870,-0.201012,-0.152588,-1.342773,1.556396
4.824804,-0.455652,-1.041235,9.896819,-0.370251,-0.329643,-0.188438,-1.739502,-1.831055,5.096436
4.835014,-0.026345,-0.807122,10.220147,0.059057,-0.095530,0.134890,0.915527,-1.068115,14.678955
4.845190,-0.216749,-1.035247,10.145901,-0.131347,-0.323655,0.060644,1.708984,-0.366211,16.876221
4.855342,-0.359852,-0.725092,10.269844,-0.274450,-0.013500,0.184586,0.549316,-0.030518,10.528564
4.865476,-0.219144,-0.338895,9.825568,-0.133742,0.372696,-0.259690,-0.518799,0.183105,7.385254
4.875829,-0.160466,-0.659229,10.151889,-0.075064,0.052363,0.066632,-1.190186,0.061035,6.134033
4.886060,0.043110,-0.631686,9.899214,0.128512,0.079905,-0.186043,1.525879,0.518799,11.016846
4.896208,-0.292192,-0.881966,9.853110,-0.206790,-0.170374,-0.232147,2.288818,0.396729,14.160156
4.906280,0.000000,-1.055605,10.070458,0.085402,-0.344013,-0.014799,-0.701904,0.030518,9.918213
4.916345,-0.285007,-0.841251,10.017169,-0.199605,-0.129659,-0.068088,-2.349854,-0.457764,8.026123
4.926411,-0.131726,-0.535287,9.965676,-0.046324,0.176305,-0.119581,-1.190186,0.427246,5.340576
4.936480,0.181423,-0.646057,10.130933,0.266825,0.065535,0.045675,-1.831055,0.213623,9.399414
4.946548,0.265248,-0.932261,10.172247,0.350650,-0.220670,0.086989,-2.410889,-0.122070,13.244629
4.956620,-0.088616,-1.074765,10.246492,-0.003214,-0.363173,0.161235,-0.122070,-1.190186,14.221191
4.966686,0.162263,-0.740061,9.996213,0.247664,-0.028469,-0.089045,1.007080,-1.098633,13.763428
4.976754,0.237706,-0.727487,10.140513,0.323108,-0.015895,0.055255,0.946045,-1.373291,12.512207
4.986821,0.221539,-0.711321,10.095606,0.306941,0.000271,0.010349,0.762939,-1.037598,10.345459
4.996889,-0.072449,-0.673599,10.017768,0.012953,0.037992,-0.067489,-0.335693,-1.068115,5.828857
5.006956,0.181423,-1.086740,10.212962,0.266825,-0.375148,0.127705,-1.220703,-1.678467,2.624512
5.017023,-0.143102,-0.834664,10.118958,-0.057701,-0.123073,0.033700,-0.640869,-1.037598,-0.610352
5.027097,-0.331111,-0.538281,10.001003,-0.245710,0.173311,-0.084255,-0.488281,-0.610352,-1.708984
5.037165,-0.444276,-0.541873,10.071057,-0.358874,0.169719,-0.014200,-0.183105,0.183105,-1.861572
5.047233,-0.731678,-0.543669,10.121353,-0.646277,0.167922,0.036095,-0.488281,1.495361,-0.854492
5.057304,-0.553848,-0.277224,10.074650,-0.468446,0.434368,-0.010608,-1.098633,1.281738,0.305176
5.067372,-0.199984,-0.628693,10.114766,-0.114582,0.082899,0.029509,-0.885010,0.396729,-3.936768
5.077439,-0.430505,-0.480800,10.096205,-0.345103,0.230792,0.010947,-0.457764,0.122070,-6.103516
5.087507,-0.846639,-0.496368,10.063872,-0.761237,0.215224,-0.021385,-1.586914,-0.152588,-7.110596
5.097574,-0.765807,-0.392783,10.090816,-0.680406,0.318809,0.005559,-5.157471,-1.312256,-4.638672
5.107645,-0.884361,-0.780178,10.038724,-0.798959,-0.068586,-0.046533,-3.875732,-1.922607,-2.502441
5.117709,-0.631088,-0.516127,10.091415,-0.545686,0.195465,0.006157,-0.762939,-2.502441,0.946045
5.127776,-0.383802,-0.629291,10.118958,-0.298400,0.082300,0.033700,-0.579834,-1.922607,1.342773
5.137843,-0.339494,-0.557441,10.142309,-0.254092,0.154151,0.057052,1.373291,0.305176,2.929688
5.147910,-0.174836,-0.656834,10.269245,-0.089435,0.054758,0.183988,2.349854,-0.122070,2.777100
5.157978,-0.117356,-0.677192,10.147099,-0.031954,0.034400,0.061842,2.349854,0.366211,1.312256
5.168045,-0.495769,-0.665217,9.954899,-0.410367,0.046375,-0.130359,0.823975,0.274658,-3.631592
5.178112,-0.601749,-0.569416,9.972861,-0.516347,0.142176,-0.112396,0.427246,0.091553,-6.805420
5.188193,-0.416733,-0.710722,10.007589,-0.331331,0.000870,-0.077668,1.129150,1.159668,-7.171631
5.198262,-0.334105,-0.690364,10.042317,-0.248703,0.021227,-0.042940,1.678467,1.861572,-3.143311
5.208329,-0.428110,-0.419727,10.114167,-0.342708,0.291865,0.028910,-2.502441,1.556396,0.488281
5.218397,-0.344284,-0.423320,10.316547,-0.258882,0.288272,0.231289,-3.875732,1.586914,0.518799
5.228512,0.104782,-0.938249,10.189012,0.190184,-0.226657,0.103754,-4.608154,1.739502,-1.831055
5.238584,0.156874,-0.894540,10.109976,0.242276,-0.182948,0.024719,1.831055,1.525879,-4.730225
5.248683,0.059277,-1.323248,10.220147,0.144679,-0.611657,0.134890,1.251221,-0.213623,-5.310059
5.258780,-0.066462,-1.035247,10.111174,0.018940,-0.323655,0.025916,1.708984,0.793457,-6.347656
5.268882,-0.173040,-1.071172,10.265652,-0.087638,-0.359581,0.180395,1.098633,0.335693,-6.774902
5.278962,-0.171244,-0.878373,9.983040,-0.085842,-0.166782,-0.102217,-0.701904,0.274658,-4.699707
5.289055,0.133522,-0.958607,9.974658,0.218924,-0.247015,-0.110600,0.701904,0.640869,-0.701904
5.299126,0.164059,-1.098715,9.871073,0.249461,-0.387123,-0.214184,1.647949,0.366211,4.486084
5.309197,0.102986,-1.243614,10.076446,0.188388,-0.532022,-0.008811,2.319336,1.586914,13.336182
5.319261,-0.302970,-1.141227,10.117760,-0.217568,-0.429635,0.032503,1.434326,-0.213623,16.723633
5.329328,-0.008383,-0.937650,10.029144,0.077019,-0.226058,-0.056113,2.410889,-1.983643,20.843506
5.339395,0.384999,-0.883163,10.249486,0.470401,-0.171572,0.164229,1.190186,-2.563477,19.683838
5.349462,0.562830,-0.529299,10.196197,0.648231,0.182292,0.110940,-2.471924,-1.678467,13.702393
5.359529,0.308958,-0.350870,9.947714,0.394359,0.360721,-0.137544,-0.640869,0.152588,9.857178
5.369596,-0.035925,-0.188009,10.138118,0.049477,0.523583,0.052860,0.183105,1.312256,7.781982
5.379663,-0.177830,-0.646655,10.212363,-0.092428,0.064936,0.127106,-3.692627,-0.183105,9.124756
5.389730,0.267643,-0.755629,10.071656,0.353045,-0.044037,-0.013601,-0.823975,-0.396729,8.514404
5.399798,0.016765,-0.407153,10.021360,0.102167,0.304438,-0.063897,1.770020,-0.030518,7.354736
5.409865,0.037722,-0.376617,10.087224,0.123123,0.334975,0.001966,0.488281,0.854492,7.537842
5.419933,-0.421523,-0.153880,9.810599,-0.336122,0.557712,-0.274659,-1.953125,1.129150,4.577637
5.430000,-0.252076,-0.466430,9.933942,-0.166674,0.245162,-0.151315,-1.312256,0.305176,-0.061035
5.440067,-0.533491,-0.343685,9.841734,-0.448089,0.367906,-0.243523,-4.211426,0.366211,-0.701904
5.450134,0.233514,-0.616119,10.230925,0.318916,0.095473,0.145667,-2.563477,0.366211,0.946045
5.460203,-0.140707,-1.197510,10.564431,-0.055305,-0.485918,0.479174,-2.166748,-0.915527,1.373291
5.470271,-0.082029,-1.074765,10.320738,0.003372,-0.363173,0.235481,0.152588,-1.861572,2.929688
5.480338,-0.443079,-0.772993,9.992021,-0.357677,-0.061401,-0.093236,-0.701904,-1.831055,1.495361
5.490405,-0.229323,-0.759820,9.925560,-0.143921,-0.048228,-0.159698,-1.434326,-0.213623,1.617432
5.500437,-0.417931,-0.838856,9.994417,-0.332529,-0.127264,-0.090841,-1.342773,0.274658,2.105713
5.510584,-0.203577,-0.849034,10.123149,-0.118175,-0.137443,0.037891,-0.854492,0.885010,4.486084
5.520731,-0.050295,-0.966989,9.965078,0.035106,-0.255397,-0.120180,-1.678467,1.037598,4.974365
5.530938,0.136516,-1.065784,9.877061,0.221918,-0.354192,-0.208197,-1.159668,1.373291,5.523682
5.541250,-0.426313,-0.740061,9.666299,-0.340912,-0.028469,-0.418959,-1.098633,2.075195,1.647949
5.551389,-0.355062,-0.825683,9.947714,-0.269660,-0.114091,-0.137544,-0.885010,0.823975,1.770020
5.561580,-0.092807,-0.677192,9.937535,-0.007405,0.034400,-0.147723,3.204346,-1.312256,1.403809
5.571726,-0.167651,-0.552651,9.954899,-0.082249,0.158941,-0.130359,3.265381,-1.037598,1.281738
5.581797,-0.286205,-0.561632,10.054292,-0.200803,0.149960,-0.030965,-1.617432,-0.122070,-1.770020
5.591864,-0.237706,-0.743654,10.026749,-0.152304,-0.032062,-0.058508,-2.044678,0.854492,-0.854492
5.601933,0.365240,-1.202899,9.947115,0.450642,-0.491307,-0.138142,-1.678467,0.640869,0.946045
5.612000,-0.178429,-0.674797,10.275831,-0.093027,0.036795,0.190574,2.624512,-1.464844,0.671387
5.622068,-0.120350,-0.517923,9.965078,-0.034948,0.193669,-0.120180,2.960205,-1.251221,2.166748
5.632135,-0.055085,-0.453257,9.736952,0.030316,0.258334,-0.348305,2.258301,-1.220703,1.953125
5.642202,-0.219144,-0.507145,9.837543,-0.133742,0.204446,-0.247715,1.770020,-1.342773,3.692627
5.652270,-0.184417,-0.649649,9.848320,-0.099015,0.061943,-0.236937,0.213623,-2.014160,1.983643
5.662337,0.053289,-0.592767,10.002799,0.138691,0.118824,-0.082458,-1.098633,-1.617432,1.159668
5.672404,0.487386,-0.351469,10.091415,0.572788,0.360123,0.006157,-0.366211,-0.183105,-0.244141
5.682474,0.356259,-0.836461,10.147698,0.441661,-0.124869,0.062440,1.617432,1.098633,-5.889893
5.692541,0.225731,-0.317939,9.545949,0.311132,0.393653,-0.539308,0.915527,1.464844,-8.728027
5.702616,0.019759,-0.692161,9.783056,0.105161,0.019431,-0.302201,1.525879,0.488281,-14.678955
5.712688,0.113763,-0.952020,10.190209,0.199165,-0.240429,0.104952,-0.854492,0.518799,-16.540527
5.722753,0.339494,-0.871787,10.098600,0.424896,-0.160195,0.013343,2.288818,-1.190186,-14.495850
5.732820,-0.317939,-0.620909,9.668694,-0.232537,0.090683,-0.416564,2.624512,-1.190186,-13.092041
5.742888,-0.215552,-1.036445,10.232122,-0.130150,-0.324853,0.146865,-1.037598,-1.159668,-10.925293
5.752955,-0.338297,-0.954415,10.577604,-0.252895,-0.242824,0.492346,-0.427246,0.518799,-12.573242
5.763022,-0.157473,-0.677192,9.997410,-0.072071,0.034400,-0.087847,1.007080,2.014160,-9.979248
5.773089,0.229323,-1.125659,10.301578,0.314725,-0.414067,0.216320,1.312256,2.288818,-6.011963
5.783157,0.155676,-1.112487,9.902208,0.241078,-0.400895,-0.183049,0.640869,1.068115,-9.460449
5.793225,0.107177,-0.950823,10.069860,0.192579,-0.239231,-0.015398,-2.868652,-0.457764,-9.582520
5.803293,-0.090412,-0.777783,10.056687,-0.005010,-0.066191,-0.028570,-3.082275,-0.335693,-10.498047
5.813359,0.001198,-0.997526,10.139315,0.086599,-0.285934,0.054058,-1.342773,-0.213623,-13.763428
5.823426,0.337099,-0.944835,10.130334,0.422501,-0.233243,0.045077,-0.915527,0.183105,-14.251709
5.833497,0.189207,-0.962798,10.135124,0.274608,-0.251206,0.049867,-1.251221,0.457764,-14.404297
5.843564,-0.419128,-1.165177,10.326725,-0.333727,-0.453585,0.241468,-3.662109,0.823975,-14.739990
5.853631,-0.349673,-1.275348,10.224338,-0.264271,-0.563756,0.139081,-2.471924,2.166748,-17.883301
5.863703,-0.098196,-1.298101,10.078242,-0.012794,-0.586509,-0.007015,-0.854492,2.960205,-18.524170
5.873770,-0.581391,-0.613125,10.290201,-0.495989,0.098467,0.204944,-1.861572,2.410889,-17.883301
5.883837,-0.408950,-0.339494,10.203382,-0.323548,0.372098,0.118125,-4.516602,1.983643,-16.479492
5.893904,0.273032,-0.695753,10.033934,0.358434,0.015839,-0.051323,-2.380371,1.678467,-18.646240
5.903977,0.235909,-0.540077,10.086026,0.321311,0.171515,0.000769,-1.251221,0.610352,-19.104004
5.914047,-0.259860,-0.694556,10.132130,-0.174458,0.017036,0.046873,-0.701904,-0.122070,-16.235352
5.924113,-0.305365,-0.640069,10.159074,-0.219963,0.071523,0.073817,-0.976562,1.007080,-19.836426
5.934180,-0.159868,-0.752635,10.011182,-0.074466,-0.041043,-0.074076,-1.220703,3.295898,-23.956299
5.944247,0.011975,-0.692759,9.872869,0.097377,0.018832,-0.212388,1.068115,3.082275,-22.705078
5.954320,-0.004790,-0.440684,10.132729,0.080612,0.270908,0.047472,0.122070,2.166748,-17.791748
5.964387,-0.520917,-0.456251,10.376422,-0.435515,0.255341,0.291165,-0.579834,1.708984,-16.448975
5.974454,-0.335303,-0.999921,10.378218,-0.249901,-0.288329,0.292961,-1.983643,0.061035,-16.082764
5.984521,-0.241897,-0.641865,10.238708,-0.156495,0.069727,0.153451,-0.305176,0.518799,-21.697998
5.994586,-0.137714,-0.631686,10.115365,-0.052312,0.079905,0.030108,-0.366211,0.366211,-22.003174
6.004654,-0.400567,-0.525108,9.957294,-0.315165,0.186484,-0.127964,-0.701904,2.471924,-18.737793
6.014721,-0.368833,-0.735271,9.963880,-0.283431,-0.023679,-0.121377,-1.007080,2.380371,-18.005371
6.024789,-0.508942,-0.696352,9.971065,-0.423540,0.015240,-0.114192,0.366211,1.159668,-15.289307
6.034856,-0.610730,-0.889151,9.963281,-0.525328,-0.177559,-0.121976,0.122070,0.488281,-12.451172
6.044937,-0.468825,-0.752635,10.080637,-0.383423,-0.041043,-0.004620,0.122070,0.793457,-9.399414
6.055005,-0.549058,-0.777783,10.436896,-0.463656,-0.066191,0.351639,-0.640869,0.030518,-3.875732
6.065080,-0.582589,-0.849034,10.308763,-0.497187,-0.137443,0.223505,0.518799,-0.274658,-4.089355
6.075148,-0.280217,-0.779579,10.011780,-0.194815,-0.067987,-0.073477,2.502441,-1.129150,-8.056641
6.085216,0.126936,-0.855621,9.890832,0.212338,-0.144029,-0.194425,2.471924,-2.044678,-13.031006
6.095283,-0.237107,-0.950823,10.177635,-0.151705,-0.239231,0.092378,0.091553,-0.640869,-17.364502
6.105355,-0.085023,-0.954415,10.112371,0.000379,-0.242824,0.027114,-1.281738,0.152588,-17.639160
6.115445,-0.065264,-0.972378,10.192006,0.020138,-0.260786,0.106748,-1.342773,1.098633,-17.608643
6.125512,-0.449665,-1.360371,10.033934,-0.364263,-0.648779,-0.051323,-3.082275,1.342773,-13.977051
6.135580,-0.159269,-0.931663,9.927955,-0.073867,-0.220071,-0.157303,-2.014160,0.671387,-12.786865
6.145660,-0.368234,-1.026865,9.814191,-0.282832,-0.315273,-0.271066,1.098633,0.579834,-10.711670
6.155729,-0.163460,-0.754431,10.162068,-0.078058,-0.042839,0.076811,2.655029,0.518799,-8.056641
6.165820,-0.455652,-0.754431,9.696835,-0.370251,-0.042839,-0.388422,0.640869,0.640869,-1.861572
6.175889,0.002395,-0.747845,10.221345,0.087797,-0.036253,0.136087,-0.030518,1.190186,-0.488281
6.185955,-0.243094,-0.565225,10.118359,-0.157693,0.146367,0.033101,0.549316,1.373291,-1.373291
6.196023,-0.079036,-0.893941,10.085427,0.006366,-0.182349,0.000170,0.518799,2.136230,1.190186
6.206090,-0.162861,-1.208287,10.105785,-0.077459,-0.496696,0.020528,1.342773,1.007080,0.091553
6.216158,-0.067061,-0.911305,10.021959,0.018341,-0.199713,-0.063298,1.281738,0.854492,1.617432
6.226225,-0.526306,-0.708327,9.857900,-0.440904,0.003265,-0.227357,2.105713,0.579834,3.234863
6.236292,-0.414937,-1.069376,9.872869,-0.329535,-0.357784,-0.212388,1.739502,0.305176,7.049561
6.246358,-0.127535,-0.621508,9.917776,-0.042133,0.090084,-0.167481,1.800537,-1.312256,9.155273
6.256425,-0.131726,-1.159788,10.139315,-0.046324,-0.448196,0.054058,-0.457764,-2.288818,13.122559
6.266493,-0.026345,-0.957409,10.166858,0.059057,-0.245817,0.081601,-1.007080,-1.373291,16.418457
6.276560,-0.129930,-0.906515,9.963880,-0.044528,-0.194923,-0.121377,0.366211,0.274658,17.059326
6.286628,-0.246687,-0.957409,10.083032,-0.161285,-0.245817,-0.002225,-5.065918,-1.647949,18.035889
6.296695,-0.420326,-0.917891,9.907597,-0.334924,-0.206299,-0.177660,-4.943848,-0.854492,16.601562
6.306768,0.075443,-1.152603,10.196796,0.160845,-0.441011,0.111538,-3.448486,-0.579834,13.549805
6.316833,-0.015568,-0.996328,10.040521,0.069834,-0.284736,-0.044737,-2.227783,-0.762939,11.962891
6.326899,-0.114961,-1.029260,10.003997,-0.029559,-0.317668,-0.081261,-0.732422,-1.251221,10.131836
6.336966,0.343685,-0.761616,10.100396,0.429087,-0.050024,0.015139,2.685547,-1.403809,7.019043
6.347034,0.199984,-0.550854,10.063273,0.285386,0.160737,-0.021984,2.014160,-0.701904,6.347656
6.357100,-0.134121,-0.656235,10.020163,-0.048719,0.055356,-0.065094,2.838135,1.586914,3.784180
6.367168,-0.079634,-0.683778,10.153685,0.005768,0.027814,0.068428,2.136230,0.946045,4.211426
6.377236,0.079634,-0.701142,10.104587,0.165036,0.010450,0.019330,1.281738,1.098633,4.028320
6.387303,-0.066462,-0.611329,10.212363,0.018940,0.100263,0.127106,0.000000,0.488281,5.218506
6.397398,-0.125739,-0.725691,10.015373,-0.040337,-0.014099,-0.069884,-1.007080,-0.274658,6.805420
6.407467,-0.136516,-0.835862,9.768686,-0.051114,-0.124270,-0.316571,0.213623,-0.122070,5.096436
6.417533,0.028141,-0.716111,9.869277,0.113543,-0.004519,-0.215981,0.701904,0.274658,3.662109
6.427600,0.050894,-0.839454,10.057885,0.136296,-0.127863,-0.027373,0.152588,0.030518,-3.112793
6.437666,-0.162263,-0.666414,9.981843,-0.076861,0.045178,-0.103415,0.335693,0.335693,-3.601074
6.447734,-0.181423,-0.604144,10.099199,-0.096021,0.107448,0.013941,-1.007080,0.091553,-1.342773
6.457801,-0.164658,-0.610131,10.020163,-0.079256,0.101461,-0.065094,-0.579834,0.549316,-0.335693
6.467868,-0.145497,-0.644859,10.239307,-0.060096,0.066733,0.154050,-0.946045,0.488281,-0.274658
6.477935,-0.331710,-0.522713,10.018965,-0.246308,0.188879,-0.066292,-1.647949,0.732422,-0.305176
6.488002,-0.850232,-1.063987,10.271041,-0.764830,-0.352396,0.185784,-3.570557,0.671387,1.464844
6.498069,0.041314,-0.769400,10.215956,0.126716,-0.057808,0.130698,-1.770020,-0.488281,5.126953
6.508142,-0.071252,-0.670605,9.964479,0.014150,0.040986,-0.120779,-0.152588,-0.549316,5.615234
6.518207,-0.380808,-0.446072,9.842932,-0.295406,0.265519,-0.242326,5.187988,1.678467,3.601074
6.528271,-0.310155,-0.116158,10.438693,-0.224753,0.595433,0.353435,0.946045,1.281738,7.873535
6.538340,-0.408950,-0.333506,10.104587,-0.323548,0.378085,0.019330,-1.129150,0.854492,8.972168
6.548408,0.026345,-0.805924,9.986633,0.111747,-0.094332,-0.098625,-1.708984,-0.549316,-2.899170
6.558475,0.098795,-0.780178,10.199789,0.184196,-0.068586,0.114532,-1.678467,-2.014160,-6.988525
6.568542,0.261057,-0.617915,10.040521,0.346459,0.093677,-0.044737,-0.244141,-1.586914,-4.455566
6.578610,-0.386197,-0.346679,10.017768,-0.300795,0.364913,-0.067489,0.061035,-1.251221,-0.946045
6.588677,0.029938,-0.613125,10.010583,0.115340,0.098467,-0.074674,1.098633,-1.770020,-0.152588
6.598745,-0.096400,-0.799338,9.989028,-0.010998,-0.087746,-0.096230,0.122070,-0.640869,-2.807617
6.608812,0.020956,-0.766406,10.077643,0.106358,-0.054815,-0.007614,0.061035,-0.396729,-4.241943
6.618879,-0.022154,-0.798140,10.059082,0.063248,-0.086549,-0.026175,-0.030518,-0.183105,-4.486084
6.628946,0.047302,-0.889151,9.917177,0.132704,-0.177559,-0.168080,0.427246,-0.152588,-3.936768
6.639013,0.094603,-0.558638,9.999207,0.180005,0.152953,-0.086051,-0.854492,-0.091553,-4.119873
6.649080,-0.034129,-0.492177,10.262659,0.051273,0.219415,0.177401,-1.373291,0.122070,-2.471924
6.659148,0.283211,-0.469424,10.226135,0.368613,0.242168,0.140877,0.152588,0.732422,1.190186
6.669215,0.176633,-0.618514,10.123748,0.262035,0.093078,0.038490,0.549316,0.976562,1.434326
6.679282,0.010778,-0.620909,10.146500,0.096179,0.090683,0.061243,0.061035,0.671387,1.190186
6.689355,-0.222138,-0.773591,10.004595,-0.136736,-0.062000,-0.080662,-0.976562,0.183105,3.356934
6.699423,-0.132924,-0.784968,10.248289,-0.047522,-0.073376,0.163031,-0.335693,-0.274658,4.089355
6.709495,0.125739,-0.863405,10.271640,0.211140,-0.151813,0.186383,-0.671387,-0.579834,3.295898
6.719560,0.105381,-0.705932,10.081236,0.190783,0.005660,-0.004021,0.823975,-0.488281,0.915527
6.729627,-0.118553,-0.500559,9.965078,-0.033152,0.211033,-0.120180,1.342773,0.518799,-2.593994
6.739696,-0.188009,-0.593965,9.947714,-0.102607,0.117627,-0.137544,0.579834,0.518799,-3.173828
6.749763,-0.049697,-0.711321,10.056687,0.035705,0.000271,-0.028570,-0.762939,0.640869,-3.021240
6.759831,-0.035925,-0.811313,10.033934,0.049477,-0.099721,-0.051323,0.244141,1.068115,-4.272461
6.769898,0.035925,-0.985551,9.985435,0.121327,-0.273959,-0.099822,0.213623,1.434326,-4.089355
6.779966,-0.061073,-0.560435,9.899214,0.024329,0.151157,-0.186043,-1.556396,1.617432,-4.791260
6.790033,-0.250280,-0.741857,10.033934,-0.164878,-0.030266,-0.051323,-1.861572,0.762939,-6.317139
6.800101,-0.069456,-1.269360,10.519525,0.015946,-0.557769,0.434267,-2.014160,-1.464844,-7.720947
6.810168,-0.165855,-1.541794,10.496772,-0.080453,-0.830202,0.411515,-0.396729,-2.471924,-5.157471
6.820236,-0.073048,-0.986149,10.054891,0.012354,-0.274558,-0.030367,0.854492,-2.502441,-1.098633
6.830303,0.086221,-0.838257,10.045909,0.171623,-0.126665,-0.039348,1.007080,-1.007080,2.990723
6.840372,0.059277,-0.926274,10.016570,0.144679,-0.214682,-0.068687,0.213623,-0.732422,3.265381
6.850439,-0.098795,-1.062191,10.226733,-0.013393,-0.350599,0.141476,1.708984,0.457764,-0.274658
6.860507,-0.489781,-0.584984,9.814191,-0.404380,0.126608,-0.271066,1.617432,-0.183105,-3.692627
6.870574,-0.320933,-0.547861,9.829160,-0.235531,0.163731,-0.256097,0.579834,1.068115,-5.493164
6.880641,0.082029,-0.538281,10.102192,0.167431,0.173311,0.016935,0.732422,1.281738,-5.340576
6.890708,-0.038320,-0.546064,9.980645,0.047082,0.165527,-0.104612,0.549316,1.251221,-5.065918
6.900787,0.252675,-1.310076,10.108779,0.338076,-0.598484,0.023521,-0.091553,0.457764,-1.312256
6.910858,0.246088,-0.916095,10.112970,0.331490,-0.204503,0.027713,1.708984,0.823975,0.793457
6.920923,0.020358,-1.001717,10.181228,0.105760,-0.290125,0.095971,-2.014160,-0.579834,-1.464844
6.930989,0.124541,-0.798140,10.148895,0.209943,-0.086549,0.063638,-2.166748,-0.427246,-1.983643
6.941056,0.053289,-0.709525,10.096205,0.138691,0.002067,0.010947,-1.953125,-1.159668,3.967285
6.951123,-0.008981,-0.950823,10.074051,0.076421,-0.239231,-0.011206,-2.319336,-1.068115,4.821777
6.961190,0.091011,-0.971779,10.181827,0.176413,-0.260187,0.096569,-2.349854,-0.946045,5.432129
6.971282,-0.220941,-1.153202,9.949510,-0.135539,-0.441610,-0.135747,-0.946045,0.061035,8.636475
6.981352,-0.183219,-1.164578,9.972263,-0.097817,-0.452987,-0.112995,-1.098633,0.488281,8.819580
6.991443,-0.128732,-1.066382,9.803414,-0.043330,-0.354791,-0.281844,-0.274658,1.892090,10.284424
7.001512,0.014370,-0.832868,9.868079,0.099772,-0.121276,-0.217178,-0.732422,2.441406,10.406494
7.011591,-0.195793,-0.800535,9.895622,-0.110391,-0.088944,-0.189635,0.396729,1.983643,12.786865
7.021662,-0.092807,-0.781375,10.111772,-0.007405,-0.069783,0.026515,3.997803,0.885010,14.831543
7.031730,-0.199385,-0.778381,10.067465,-0.113983,-0.066790,-0.017793,5.401611,-0.793457,18.829346
7.041797,-0.173639,-0.875380,10.047706,-0.088237,-0.163788,-0.037552,2.960205,-0.854492,18.463135
7.051865,-0.040715,-0.598755,10.105785,0.044687,0.112837,0.020528,2.807617,-0.885010,17.486572
7.061938,0.059277,-0.707130,10.151889,0.144679,0.004462,0.066632,0.183105,-1.800537,15.747070
7.072006,-0.082628,-0.492775,9.644145,0.002774,0.218816,-0.441112,0.946045,-1.983643,13.916016
7.082074,-0.192799,-0.775986,10.143506,-0.107397,-0.064395,0.058249,0.030518,-2.990723,13.214111
7.092147,0.075443,-0.851429,10.126143,0.160845,-0.139838,0.040885,0.885010,-1.983643,13.732910
7.102220,0.117356,-1.063987,10.298584,0.202758,-0.352396,0.213327,0.091553,0.823975,13.824463
7.112289,0.200583,-0.920885,10.161469,0.285985,-0.209293,0.076212,0.976562,0.823975,13.702393
7.122354,-0.064666,-0.622705,9.944121,0.020736,0.088887,-0.141136,0.976562,0.762939,12.939453
7.132421,-0.257465,-0.868195,10.010583,-0.172063,-0.156603,-0.074674,0.488281,-0.305176,11.413574
7.142489,0.119152,-0.729283,10.086625,0.204554,-0.017692,0.001367,-0.152588,-0.335693,10.772705
7.152557,-0.011376,-0.838257,10.058483,0.074026,-0.126665,-0.026774,0.457764,1.525879,9.368896
7.162624,-0.301174,-0.886756,9.671089,-0.215772,-0.175164,-0.414168,1.770020,2.655029,10.803223
7.172692,-0.250878,-0.714315,9.869277,-0.165476,-0.002723,-0.215981,0.183105,1.739502,8.636475
7.182760,-0.257465,-0.501757,10.045909,-0.172063,0.209835,-0.039348,1.403809,0.946045,8.941650
7.192826,-0.248483,-0.791554,9.938134,-0.163081,-0.079962,-0.147124,2.319336,0.244141,10.467529
7.202892,0.277224,-0.943638,9.960886,0.362625,-0.232046,-0.124371,1.159668,-1.159668,9.246826
7.212959,0.438289,-0.670007,9.908196,0.523690,0.041585,-0.177062,2.502441,-0.885010,7.049561
7.223026,0.305964,-1.007106,10.023157,0.391366,-0.295514,-0.062101,-3.143311,-1.007080,7.049561
7.233093,0.053289,-0.704734,10.331516,0.138691,0.006857,0.246258,-1.861572,-0.915527,6.683350
7.243203,0.214354,-0.842448,9.978849,0.299756,-0.130856,-0.106408,-1.525879,-1.251221,11.444092
7.253275,0.012574,-0.945434,10.047706,0.097976,-0.233842,-0.037552,-2.441406,-1.586914,11.352539
7.263344,0.120948,-0.726888,9.981843,0.206350,-0.015297,-0.103415,-0.915527,-1.251221,10.375977
7.273412,0.096400,-0.718506,10.272239,0.181801,-0.006914,0.186981,-3.143311,-0.305176,12.390137
7.283479,0.461640,-1.099314,10.031539,0.547042,-0.387722,-0.053718,-2.075195,0.305176,13.549805
7.293547,0.457449,-1.083148,10.180031,0.542851,-0.371556,0.094773,-0.701904,0.671387,11.291504
7.303616,0.012574,-0.737666,10.178833,0.097976,-0.026074,0.093576,-2.349854,0.579834,10.803223
7.313683,0.435295,-1.097518,10.352472,0.520697,-0.385926,0.267215,2.929688,-0.183105,8.178711
7.323749,0.329914,-0.958607,10.059681,0.415316,-0.247015,-0.025577,0.915527,-0.518799,8.270264
7.333816,0.032932,-0.672402,9.916578,0.118333,0.039190,-0.168679,1.617432,-0.366211,6.469727
7.343884,0.000000,-1.083746,10.027348,0.085402,-0.372155,-0.057909,0.244141,0.152588,7.934570
7.353952,0.062271,-0.980760,10.434501,0.147672,-0.269169,0.349244,2.899170,0.061035,10.314941
7.364020,0.212558,-1.180745,10.352472,0.297960,-0.469153,0.267215,0.427246,0.000000,13.153076
7.374087,0.086819,-1.210682,10.718311,0.172221,-0.499091,0.633054,-2.410889,-0.366211,12.786865
7.384155,0.176633,-0.632884,10.208172,0.262035,0.078708,0.122915,-1.342773,-1.098633,8.483887
7.394221,0.227527,-0.837059,9.848320,0.312929,-0.125468,-0.236937,-0.244141,-1.037598,6.683350
7.404289,0.362845,-0.780178,10.004595,0.448247,-0.068586,-0.080662,0.823975,-1.800537,4.699707
7.414355,0.329914,-0.755629,10.038126,0.415316,-0.044037,-0.047132,0.946045,-1.770020,4.486084
7.424422,0.489183,-0.866398,10.173444,0.574585,-0.154807,0.088187,-0.274658,-2.349854,3.906250
7.434490,0.120350,-0.675396,10.017768,0.205752,0.036196,-0.067489,-0.427246,-1.159668,2.899170
7.444557,0.205972,-0.571811,9.926158,0.291374,0.139781,-0.159099,-0.732422,-0.549316,3.021240
7.454624,0.111368,-0.773591,9.947714,0.196770,-0.062000,-0.137544,-0.701904,0.183105,0.976562
7.464691,-0.020956,-0.416135,10.083631,0.064445,0.295457,-0.001626,0.183105,-0.183105,0.885010
7.474758,-0.237107,-0.426912,10.117760,-0.151705,0.284680,0.032503,-0.915527,0.152588,1.617432
7.484825,0.199984,-0.517324,9.915980,0.285386,0.194268,-0.169278,-0.305176,0.610352,2.532959
7.494893,0.031734,-0.746049,10.044712,0.117136,-0.034457,-0.040545,-1.922607,0.518799,3.112793
7.504961,0.022154,-0.480800,10.040521,0.107556,0.230792,-0.044737,-1.739502,0.671387,-0.213623
7.515028,0.210163,-0.740061,9.968670,0.295565,-0.028469,-0.116587,-1.129150,0.610352,-1.281738
7.525094,0.104782,-0.654439,10.272838,0.190184,0.057153,0.187580,-1.007080,0.640869,-4.058838
7.535161,-0.082628,-0.783770,9.992021,0.002774,-0.072178,-0.093236,-0.823975,0.640869,-5.859375
7.545228,0.007185,-1.008902,10.272239,0.092587,-0.297310,0.186981,-0.885010,0.457764,-6.866455
7.555295,0.086819,-0.819695,10.138716,0.172221,-0.108104,0.053459,3.601074,-0.335693,-8.728027
7.565363,-0.167053,-1.123863,10.096205,-0.081651,-0.412271,0.010947,3.997803,-1.251221,-7.751465
7.575430,-0.043709,-1.043031,10.436298,0.041693,-0.331439,0.351040,0.854492,-2.319336,-6.958008
7.585498,0.106578,-0.769999,10.383607,0.191980,-0.058407,0.298350,0.091553,-2.258301,-6.958008
7.595566,0.379611,-1.060395,10.205777,0.465013,-0.348803,0.120520,1.953125,-2.136230,-6.378174
7.605633,-0.130529,-0.726888,10.036928,-0.045127,-0.015297,-0.048329,1.220703,-1.922607,-5.950928
7.615700,-0.209564,-0.744851,9.992021,-0.124162,-0.033259,-0.093236,0.885010,-1.831055,-5.767822
7.625766,0.062271,-0.781375,9.957294,0.147672,-0.069783,-0.127964,0.061035,-1.556396,-3.204346
7.635834,-0.056882,-0.707728,9.964479,0.028520,0.003863,-0.120779,0.061035,-1.647949,-3.448486
7.645900,0.164658,-0.978964,10.233918,0.250059,-0.267372,0.148661,-0.030518,-2.136230,-2.716064
7.655968,0.293989,-0.935255,9.844728,0.379391,-0.223663,-0.240530,0.823975,-1.800537,-1.739502
7.666035,0.271835,-0.859213,9.998009,0.357237,-0.147622,-0.087248,0.762939,-1.617432,-1.037598
7.676102,-0.005389,-1.031056,10.084230,0.080013,-0.319464,-0.001028,-1.861572,-1.342773,-1.586914
7.686168,0.279619,-0.696951,10.066866,0.365020,0.014641,-0.018392,-1.678467,-0.305176,-2.655029
7.696235,0.344284,-1.253793,10.133328,0.429686,-0.542201,0.048070,-1.281738,0.610352,-1.617432
7.706302,-0.220941,-0.674198,10.055490,-0.135539,0.037394,-0.029768,0.183105,0.061035,-2.105713
7.716368,0.043110,-0.692161,10.186617,0.128512,0.019431,0.101359,1.739502,-0.762939,1.037598
7.726435,0.155676,-0.617915,9.949510,0.241078,0.093677,-0.135747,0.671387,-0.946045,2.746582
7.736502,0.105381,-0.243693,9.848919,0.190783,0.467899,-0.236338,-1.220703,-1.495361,3.356934
7.746569,0.058079,-0.784369,10.117161,0.143481,-0.072777,0.031904,-4.272461,-1.922607,0.946045
7.756636,0.037722,-0.344883,9.941127,0.123123,0.366709,-0.144130,-2.685547,-1.464844,-3.753662
7.766716,-0.037123,-0.781974,10.322534,0.048279,-0.070382,0.237277,-3.387451,-1.312256,-5.462646
7.776785,-0.052690,-0.776585,10.171049,0.032711,-0.064993,0.085792,-2.441406,-1.312256,-5.401611
7.786853,-0.211360,-1.046025,10.208172,-0.125959,-0.334433,0.122915,-0.762939,-1.892090,-3.936768
7.796923,-0.016166,-1.121468,10.161469,0.069236,-0.409876,0.076212,2.105713,-2.227783,-1.007080
7.806990,0.039518,-1.153202,10.142309,0.124920,-0.441610,0.057052,0.396729,-3.753662,3.387451
7.817057,0.048499,-1.023871,10.053693,0.133901,-0.312279,-0.031564,-1.098633,-4.028320,5.035400
7.827125,0.309556,-1.041235,10.056088,0.394958,-0.329643,-0.029169,-1.434326,-4.455566,7.568359
7.837218,0.501158,-0.813708,9.997410,0.586560,-0.102116,-0.087847,-0.488281,-4.791260,10.314941
7.847289,0.753832,-0.830473,9.921967,0.839234,-0.118881,-0.163290,-0.183105,-4.638672,9.368896
7.857356,1.117875,-0.718506,10.175839,1.203277,-0.006914,0.090582,0.885010,-4.211426,7.293701
7.867434,0.776585,-0.577798,9.933344,0.861987,0.133793,-0.151914,2.380371,-3.540039,5.279541
7.877502,0.982557,-0.723296,10.062675,1.067959,-0.011704,-0.022583,0.854492,-3.112793,4.058838
7.887586,0.771196,-0.452060,9.794432,0.856598,0.259532,-0.290825,2.105713,-2.777100,1.159668
7.897655,1.246608,-1.010099,10.045311,1.332010,-0.298508,-0.039947,0.122070,-2.410889,0.457764
7.907729,0.685574,-0.815504,10.002799,0.770976,-0.103912,-0.082458,0.701904,-2.532959,-3.387451
7.917798,0.747246,-0.966989,10.092014,0.832648,-0.255397,0.006756,0.152588,-2.838135,-3.021240
7.927865,0.723296,-0.859213,10.039323,0.808698,-0.147622,-0.045934,0.488281,-2.380371,2.014160
7.937932,1.238824,-0.941243,10.072255,1.324226,-0.229651,-0.013003,0.457764,-1.922607,3.601074
7.948000,1.502276,-0.843047,10.063273,1.587678,-0.131455,-0.021984,1.953125,0.152588,0.640869
7.958079,0.774190,-0.868195,10.039922,0.859592,-0.156603,-0.045335,0.732422,0.183105,-0.183105
7.968145,1.117277,-0.920286,10.066866,1.202679,-0.208695,-0.018392,-0.335693,0.030518,-0.213623
7.978213,1.196911,-0.840053,10.062675,1.282313,-0.128461,-0.022583,0.488281,0.061035,-0.213623
7.988280,0.962798,-0.846639,9.998009,1.048200,-0.135048,-0.087248,0.457764,0.366211,-0.549316
7.998347,0.837658,-0.958607,10.040521,0.923060,-0.247015,-0.044737,-0.030518,0.488281,-0.610352
8.008415,0.866997,-0.993933,10.047706,0.952399,-0.282341,-0.037552,-0.061035,0.579834,-0.823975
8.018482,0.796344,-0.959205,10.036329,0.881746,-0.247614,-0.048928,0.091553,0.823975,-2.441406
8.028550,0.561033,-0.830473,10.060878,0.646435,-0.118881,-0.024379,0.213623,0.793457,-3.173828
8.038617,0.462838,-0.743654,10.049502,0.548239,-0.032062,-0.035755,0.000000,0.701904,-3.234863
8.048685,0.398172,-0.680784,10.063273,0.483574,0.030807,-0.021984,-0.946045,0.396729,-4.821777
8.058753,0.397573,-0.705333,10.078242,0.482975,0.006258,-0.007015,-1.220703,0.244141,-5.889893
8.068832,0.204175,-0.748444,10.059082,0.289577,-0.036852,-0.026175,-1.342773,0.183105,-6.561279
8.078899,0.277822,-0.772993,10.067465,0.363224,-0.061401,-0.017793,-1.708984,0.091553,-6.500244
8.088965,0.241298,-0.724493,10.071057,0.326700,-0.012902,-0.014200,-1.708984,0.000000,-6.805420
8.099032,0.301772,-0.806523,10.073452,0.387174,-0.094931,-0.011805,-1.464844,0.000000,-6.713867
8.109101,0.259261,-0.805325,10.074650,0.344663,-0.093734,-0.010608,-1.251221,0.061035,-6.225586
8.119195,0.193997,-0.805924,10.060878,0.279398,-0.094332,-0.024379,-1.068115,-0.030518,-4.455566
8.129264,0.152084,-0.825084,10.069261,0.237486,-0.113492,-0.015996,-0.854492,-0.061035,-3.662109
8.139347,0.079634,-0.793949,10.067465,0.165036,-0.082357,-0.017793,-0.579834,-0.091553,-2.441406
8.149414,-0.001796,-0.791554,10.068662,0.083606,-0.079962,-0.016595,-0.701904,-0.122070,-1.922607
8.159480,0.025148,-0.779579,10.068662,0.110550,-0.067987,-0.016595,-1.037598,-0.274658,-0.701904
8.169548,0.047302,-0.784968,10.070458,0.132704,-0.073376,-0.014799,-0.946045,-0.274658,-0.274658
8.179615,0.144899,-0.763412,10.057885,0.230301,-0.051821,-0.027373,-0.946045,-0.335693,-0.061035
8.189682,0.179626,-0.762215,10.071057,0.265028,-0.050623,-0.014200,-0.915527,-0.305176,-0.427246
8.199749,0.083826,-0.764610,10.070458,0.169228,-0.053018,-0.014799,-1.098633,-0.335693,-0.762939
8.209816,0.197589,-0.825084,10.067465,0.282991,-0.113492,-0.017793,-1.617432,-0.457764,-0.762939
8.219883,0.209564,-0.837658,10.056088,0.294966,-0.126066,-0.029169,-1.495361,-0.396729,-0.549316
8.229950,0.271835,-0.859213,10.063872,0.357237,-0.147622,-0.021385,-0.915527,-0.305176,-0.213623
8.240017,0.141905,-0.835862,10.069261,0.227307,-0.124270,-0.015996,-0.671387,-0.244141,-0.091553
8.250084,0.094603,-0.829874,10.072255,0.180005,-0.118283,-0.013003,-0.518799,-0.183105,-0.030518
8.260155,0.034728,-0.835862,10.066866,0.120130,-0.124270,-0.018392,-0.335693,-0.152588,-0.091553
8.270223,-0.039518,-0.805924,10.060878,0.045884,-0.094332,-0.024379,-0.213623,-0.152588,-0.305176
8.280292,-0.156275,-0.787961,10.061477,-0.070873,-0.076370,-0.023780,-0.488281,-0.213623,-1.068115
8.290359,-0.092807,-0.784968,10.068662,-0.007405,-0.073376,-0.016595,-0.671387,-0.274658,-1.434326
8.300427,-0.029938,-0.790955,10.072853,0.055464,-0.079363,-0.012404,-0.518799,-0.244141,-2.197266
8.310501,-0.089214,-0.775388,10.061477,-0.003813,-0.063796,-0.023780,-0.335693,-0.244141,-2.563477
8.320567,-0.074844,-0.788560,10.062076,0.010558,-0.076968,-0.023182,-0.030518,-0.335693,-3.479004
8.330634,-0.098196,-0.782573,10.048304,-0.012794,-0.070981,-0.036953,0.213623,-0.366211,-3.906250
8.340706,-0.030536,-0.804128,10.083032,0.054865,-0.092536,-0.002225,0.152588,-0.549316,-4.180908
8.350778,0.088616,-0.787363,10.090217,0.174018,-0.075771,0.004960,-0.091553,-0.427246,-5.096436
8.360846,0.023351,-0.820294,10.077045,0.108753,-0.108702,-0.008213,-0.122070,-0.335693,-5.676270
8.370913,-0.023351,-0.833467,10.071057,0.062050,-0.121875,-0.014200,-0.457764,-0.274658,-6.042480
8.380981,0.012574,-0.855621,10.069261,0.097976,-0.144029,-0.015996,-0.823975,-0.274658,-6.072998
8.391049,0.031734,-0.874781,10.069860,0.117136,-0.163189,-0.015398,-0.885010,-0.183105,-6.042480
8.401116,0.174836,-0.817300,10.065070,0.260238,-0.105709,-0.020188,-0.732422,-0.122070,-6.103516
8.411183,0.188009,-0.807720,10.064471,0.273411,-0.096129,-0.020787,-0.640869,-0.030518,-5.859375
8.421250,0.250280,-0.822689,10.058483,0.335681,-0.111097,-0.026774,-0.701904,-0.061035,-5.218506
8.431318,0.274230,-0.840652,10.059082,0.359632,-0.129060,-0.026175,-0.732422,-0.061035,-4.638672
8.441386,0.293989,-0.862207,10.059681,0.379391,-0.150615,-0.025577,-0.640869,-0.030518,-3.051758
8.451452,0.244891,-0.849034,10.066267,0.330293,-0.137443,-0.018990,-0.701904,-0.091553,-2.349854
8.461520,0.205972,-0.844244,10.062076,0.291374,-0.132653,-0.023182,-1.098633,-0.213623,-1.281738
8.471586,0.141905,-0.837059,10.067465,0.227307,-0.125468,-0.017793,-1.312256,-0.305176,-0.885010
8.481654,0.119152,-0.837059,10.065668,0.204554,-0.125468,-0.019589,-1.525879,-0.335693,-0.549316
8.491721,0.088616,-0.857417,10.078242,0.174018,-0.145825,-0.007015,-1.739502,-0.396729,-0.122070
8.501789,0.073048,-0.849633,10.075248,0.158450,-0.138041,-0.010009,-1.678467,-0.396729,0.000000
8.511861,0.067659,-0.858615,10.069860,0.153061,-0.147023,-0.015398,-1.342773,-0.305176,0.091553
8.521935,0.053888,-0.853824,10.063872,0.139290,-0.142233,-0.021385,-1.159668,-0.274658,0.122070
8.532002,0.048499,-0.855022,10.059681,0.133901,-0.143430,-0.025577,-0.885010,-0.183105,0.122070
8.542070,0.049697,-0.856219,10.065668,0.135099,-0.144628,-0.019589,-0.701904,-0.152588,0.152588
8.552137,0.047302,-0.858016,10.066866,0.132704,-0.146424,-0.018392,-0.549316,-0.091553,0.122070
8.562207,0.037722,-0.863405,10.061477,0.123123,-0.151813,-0.023780,-0.366211,-0.061035,0.091553
8.572275,0.035925,-0.861010,10.063872,0.121327,-0.149418,-0.021385,-0.274658,-0.061035,0.061035
8.582343,0.033530,-0.861010,10.061477,0.118932,-0.149418,-0.023780,-0.061035,-0.061035,0.030518
8.592411,0.035925,-0.859213,10.066267,0.121327,-0.147622,-0.018990,0.030518,0.000000,0.030518
8.602479,0.038919,-0.858016,10.066267,0.124321,-0.146424,-0.018990,0.152588,0.030518,0.000000
8.612546,0.038919,-0.849633,10.062076,0.124321,-0.138041,-0.023182,0.152588,0.030518,-0.030518
8.622624,0.031734,-0.844843,10.059082,0.117136,-0.133251,-0.026175,0.091553,0.000000,0.000000
8.632692,0.040117,-0.839454,10.057885,0.125518,-0.127863,-0.027373,-0.244141,-0.061035,0.000000
8.642759,0.036524,-0.847837,10.062076,0.121926,-0.136245,-0.023182,-0.427246,-0.091553,0.030518
8.652826,0.038320,-0.856818,10.065070,0.123722,-0.145226,-0.020188,-0.488281,-0.091553,0.061035
8.662893,0.047900,-0.855022,10.051897,0.133302,-0.143430,-0.033360,-0.427246,-0.061035,0.061035
8.672961,0.039518,-0.849034,10.051298,0.124920,-0.137443,-0.033959,-0.396729,-0.061035,0.030518
8.683028,0.046104,-0.840652,10.060878,0.131506,-0.129060,-0.024379,-0.427246,-0.122070,0.030518
8.693118,0.048499,-0.835862,10.063872,0.133901,-0.124270,-0.021385,-0.579834,-0.122070,0.061035
8.703214,0.041314,-0.811313,10.061477,0.126716,-0.099721,-0.023780,-1.220703,-0.274658,0.091553
8.713299,0.039518,-0.816103,10.057286,0.124920,-0.104511,-0.027972,-1.831055,-0.366211,0.122070
8.723368,0.047302,-0.835263,10.063872,0.132704,-0.123671,-0.021385,-2.746582,-0.518799,0.213623
8.733436,0.056882,-0.866398,10.065070,0.142284,-0.154807,-0.020188,-3.082275,-0.518799,0.183105
8.743509,0.065264,-0.898132,10.069860,0.150666,-0.186541,-0.015398,-2.655029,-0.396729,0.091553
8.753576,0.059277,-0.913101,10.066866,0.144679,-0.201509,-0.018392,-2.044678,-0.274658,0.122070
8.763643,0.061672,-0.912502,10.060280,0.147074,-0.200911,-0.024978,-1.495361,-0.213623,0.091553
8.773710,0.061073,-0.895737,10.059082,0.146475,-0.184146,-0.026175,-0.732422,-0.122070,0.061035
8.783778,0.061672,-0.887953,10.069860,0.147074,-0.176362,-0.015398,-0.488281,-0.061035,0.091553
8.793846,0.053888,-0.887355,10.072853,0.139290,-0.175763,-0.012404,-0.183105,0.000000,0.061035
8.803913,0.050894,-0.884960,10.072853,0.136296,-0.173368,-0.012404,-0.091553,0.030518,0.061035
8.813981,0.051493,-0.888552,10.066267,0.136895,-0.176961,-0.018990,0.061035,0.061035,0.030518
8.824048,0.055684,-0.891546,10.058483,0.141086,-0.179954,-0.026774,0.122070,0.061035,0.030518
8.834117,0.058079,-0.896336,10.059082,0.143481,-0.184744,-0.026175,0.152588,0.061035,0.030518
8.844184,0.056283,-0.893342,10.067465,0.141685,-0.181751,-0.017793,0.122070,0.061035,0.061035
8.854251,0.064067,-0.890947,10.068662,0.149469,-0.179356,-0.016595,0.061035,0.091553,0.061035
8.864318,0.067061,-0.889750,10.065668,0.152462,-0.178158,-0.019589,0.030518,0.030518,0.061035
8.874386,0.061073,-0.886157,10.065070,0.146475,-0.174565,-0.020188,-0.030518,0.030518,0.061035
8.884452,0.059277,-0.886756,10.071057,0.144679,-0.175164,-0.014200,-0.061035,0.030518,0.061035
8.894519,0.058079,-0.887953,10.071656,0.143481,-0.176362,-0.013601,-0.030518,0.061035,0.061035
8.904586,0.056283,-0.884361,10.068063,0.141685,-0.172769,-0.017194,0.000000,0.030518,0.061035
8.914657,0.056283,-0.881367,10.063872,0.141685,-0.169775,-0.021385,-0.061035,0.030518,0.091553
8.924724,0.062869,-0.887355,10.062675,0.148271,-0.175763,-0.022583,-0.061035,0.030518,0.061035
8.934791,0.057480,-0.893342,10.060280,0.142882,-0.181751,-0.024978,0.122070,0.030518,0.091553
8.944858,0.062271,-0.893342,10.066866,0.147672,-0.181751,-0.018392,0.305176,0.061035,0.091553
8.954929,0.064067,-0.889750,10.065070,0.149469,-0.178158,-0.020188,0.579834,0.122070,0.030518
8.965864,0.056283,-0.885558,10.060280,0.141685,-0.173967,-0.024978,0.671387,0.152588,0.061035
8.975931,0.055684,-0.884361,10.058483,0.141086,-0.172769,-0.026774,0.762939,0.152588,-0.030518
8.985999,0.059875,-0.882565,10.065070,0.145277,-0.170973,-0.020188,0.732422,0.152588,-0.061035
8.996066,0.060474,-0.878373,10.069261,0.145876,-0.166782,-0.015996,0.640869,0.122070,-0.061035
9.006134,0.056882,-0.868195,10.071057,0.142284,-0.156603,-0.014200,0.427246,0.061035,0.000000
9.016201,0.058079,-0.864003,10.071057,0.143481,-0.152412,-0.014200,0.274658,0.091553,0.000000
9.026268,0.053888,-0.858615,10.073452,0.139290,-0.147023,-0.011805,0.000000,0.000000,0.091553
9.036335,0.043709,-0.844244,10.073452,0.129111,-0.132653,-0.011805,-0.213623,-0.030518,0.122070
9.046402,0.023950,-0.762814,10.072255,0.109352,-0.051222,-0.013003,-0.366211,-0.122070,1.129150
9.056469,0.055684,-0.859812,10.075248,0.141086,-0.148220,-0.010009,-0.457764,-0.122070,1.220703
9.066537,0.062271,-0.835862,10.073452,0.147672,-0.124270,-0.011805,-0.610352,-0.122070,1.342773
9.076604,0.085622,-0.834066,10.071057,0.171024,-0.122474,-0.014200,-0.427246,-0.122070,1.800537
9.086672,0.079036,-0.890947,10.073452,0.164438,-0.179356,-0.011805,-0.305176,-0.030518,2.014160
9.096740,0.062271,-0.908311,10.077643,0.147672,-0.196719,-0.007614,-0.122070,0.000000,1.800537
9.106814,0.077239,-0.891546,10.078242,0.162641,-0.179954,-0.007015,0.000000,0.030518,1.739502
9.116885,0.074246,-0.898132,10.083631,0.159648,-0.186541,-0.001626,0.213623,0.030518,1.678467
9.126952,0.055085,-0.907712,10.081835,0.140487,-0.196121,-0.003423,0.305176,0.061035,1.556396
9.137018,0.046703,-0.898132,10.084230,0.132105,-0.186541,-0.001028,0.427246,0.091553,1.403809
9.147086,0.047900,-0.895139,10.081236,0.133302,-0.183547,-0.004021,0.732422,0.122070,1.190186
9.157154,0.037123,-0.893941,10.073452,0.122525,-0.182349,-0.011805,0.885010,0.152588,1.129150
9.167221,0.041913,-0.879571,10.075847,0.127315,-0.167979,-0.009410,0.915527,0.213623,1.068115
9.177293,0.044907,-0.876577,10.072853,0.130309,-0.164985,-0.012404,0.946045,0.213623,1.098633
9.187362,0.047302,-0.869991,10.075248,0.132704,-0.158399,-0.010009,1.068115,0.183105,1.129150
9.197429,0.073647,-0.881966,10.078841,0.159049,-0.170374,-0.006416,1.251221,0.213623,1.220703
9.207496,0.085023,-0.893342,10.083631,0.170425,-0.181751,-0.001626,1.556396,0.274658,1.495361
9.217564,0.083826,-0.909509,10.078242,0.169228,-0.197917,-0.007015,2.410889,0.427246,2.471924
9.227631,0.087418,-0.916694,10.071656,0.172820,-0.205102,-0.013601,2.716064,0.488281,3.173828
9.237704,0.064067,-0.902324,10.078242,0.149469,-0.190732,-0.007015,2.868652,0.427246,4.486084
9.247777,0.062869,-0.860411,10.079440,0.148271,-0.148819,-0.005818,2.471924,0.305176,4.730225
9.257844,0.085622,-0.862207,10.072255,0.171024,-0.150615,-0.013003,2.166748,0.213623,5.828857
9.267913,0.137714,-1.037642,10.074650,0.223116,-0.326050,-0.010608,2.624512,0.366211,6.469727
9.278042,0.101190,-1.043031,10.074051,0.186591,-0.331439,-0.011206,3.173828,0.488281,7.873535
9.288401,0.144899,-0.945434,10.051298,0.230301,-0.233842,-0.033959,4.241943,0.701904,11.474609
9.298533,0.149689,-0.862806,10.062675,0.235091,-0.151214,-0.022583,3.753662,0.518799,12.207031
9.308640,0.069456,-0.803529,10.074650,0.154857,-0.091937,-0.010608,2.929688,0.366211,12.084961
9.318847,0.092208,-0.811912,10.071656,0.177610,-0.100320,-0.013601,2.349854,0.183105,11.993408
9.328942,0.088017,-0.786764,10.077045,0.173419,-0.075172,-0.008213,1.434326,-0.030518,11.322021
9.339054,-0.074246,-0.704136,10.098600,0.011156,0.007456,0.013343,1.007080,-0.122070,11.260986
9.349153,-0.007185,-0.751437,10.094409,0.078217,-0.039846,0.009151,0.671387,-0.091553,11.383057
9.359237,0.161065,-0.792153,10.090217,0.246467,-0.080561,0.004960,0.732422,-0.061035,11.779785
9.369310,0.238903,-0.745450,10.083032,0.324305,-0.033858,-0.002225,0.701904,0.000000,11.413574
9.379379,0.133522,-0.755629,10.073452,0.218924,-0.044037,-0.011805,0.549316,0.274658,9.368896
9.389446,0.286804,-0.816702,10.100396,0.372205,-0.105110,0.015139,0.579834,0.366211,8.422852
9.399516,0.374821,-0.837658,10.069261,0.460222,-0.126066,-0.015996,1.068115,0.701904,6.042480
9.409583,0.508343,-0.943638,10.042916,0.593745,-0.232046,-0.042342,1.251221,0.793457,3.967285
9.419650,0.417931,-0.848436,10.070458,0.503333,-0.136844,-0.014799,0.885010,1.007080,-1.525879
9.429719,0.485590,-1.041833,10.067465,0.570992,-0.330242,-0.017793,0.701904,1.098633,-4.455566
9.439791,0.463436,-1.042432,10.061477,0.548838,-0.330841,-0.023780,0.946045,1.220703,-7.446289
9.449858,0.453856,-0.991538,10.107581,0.539258,-0.279946,0.022324,1.495361,1.464844,-12.237549
9.459926,0.326920,-0.840652,10.090217,0.412322,-0.129060,0.004960,1.800537,1.586914,-13.702393
9.469993,0.205373,-0.750240,10.076446,0.290775,-0.038648,-0.008811,1.068115,1.495361,-14.587402
9.480060,0.227527,-0.694556,10.063273,0.312929,0.017036,-0.021984,0.640869,1.281738,-15.014648
9.490138,0.118553,-0.647853,10.081236,0.203955,0.063739,-0.004021,-1.098633,0.671387,-14.068604
9.500219,0.135917,-0.753234,10.090217,0.221319,-0.041642,0.004960,-1.464844,0.396729,-12.359619
9.510340,0.198787,-0.771196,10.096205,0.284189,-0.059605,0.010947,-1.251221,0.274658,-10.345459
9.520409,0.212558,-0.780178,10.081236,0.297960,-0.068586,-0.004021,0.091553,0.244141,-4.943848
9.530475,0.234712,-0.770598,10.075847,0.320114,-0.059006,-0.009410,0.701904,0.152588,-1.800537
9.540542,0.525108,-0.728685,10.050101,0.610510,-0.017093,-0.035157,1.098633,-0.183105,2.838135
9.550611,0.634680,-0.704136,10.073452,0.720082,0.007456,-0.011805,1.403809,-0.244141,3.753662
9.560704,0.679587,-0.714315,10.076446,0.764989,-0.002723,-0.008811,1.312256,-0.610352,3.265381
9.570776,0.726290,-0.816103,10.060280,0.811692,-0.104511,-0.024978,1.068115,-0.457764,1.434326
9.580844,0.596360,-0.779579,10.034533,0.681762,-0.067987,-0.050724,1.129150,-0.366211,0.213623
9.590912,0.552651,-0.753234,10.062076,0.638053,-0.041642,-0.023182,0.915527,-0.518799,0.854492
9.600979,0.622705,-0.743055,10.052496,0.708107,-0.031463,-0.032762,0.305176,-0.549316,1.159668
9.611047,0.559237,-0.747246,10.080637,0.644639,-0.035654,-0.004620,-0.152588,-0.335693,1.098633
9.621125,0.647853,-0.747246,10.108779,0.733255,-0.035654,0.023521,-1.495361,-0.579834,0.152588
9.631193,0.555645,-0.734672,10.088421,0.641046,-0.023081,0.003164,-0.762939,0.396729,-0.183105
9.641260,0.668809,-0.908910,9.969868,0.754211,-0.197318,-0.115390,-0.518799,0.762939,-1.342773
9.651327,0.288001,-0.755629,10.095606,0.373403,-0.044037,0.010349,0.061035,1.831055,-2.197266
9.661394,0.346679,-0.901725,10.118359,0.432081,-0.190133,0.033101,1.129150,2.227783,0.762939
9.671462,0.474214,-0.738265,10.017768,0.559616,-0.026673,-0.067489,1.586914,1.953125,2.624512
9.681569,0.418530,-0.753832,10.084230,0.503932,-0.042241,-0.001028,-0.152588,1.953125,0.885010
9.691638,0.264051,-0.696951,10.078242,0.349453,0.014641,-0.007015,-0.427246,2.014160,0.213623
9.701706,0.353265,-0.796943,10.098600,0.438667,-0.085351,0.013343,-0.457764,2.227783,0.305176
9.711780,0.368833,-0.829874,10.099797,0.454235,-0.118283,0.014540,-1.068115,2.288818,0.305176
9.721848,0.332309,-0.846639,10.087224,0.417711,-0.135048,0.001966,-1.953125,2.258301,-0.518799
9.731915,0.215552,-0.711321,10.140513,0.300954,0.000271,0.055255,-0.885010,2.258301,0.610352
9.741985,0.265847,-0.815504,10.128538,0.351249,-0.103912,0.043280,0.885010,2.777100,1.739502
9.752054,-0.065264,-0.616718,9.986034,0.020138,0.094874,-0.099223,1.281738,3.204346,1.312256
9.762121,0.098196,-0.791554,10.164463,0.183598,-0.079962,0.079206,0.396729,2.960205,0.793457
9.772190,0.047302,-0.704136,10.104587,0.132704,0.007456,0.019330,1.342773,2.593994,1.068115
9.782259,0.048499,-0.871787,10.095007,0.133901,-0.160195,0.009750,0.823975,2.655029,0.762939
9.792326,0.207768,-0.473615,9.996812,0.293170,0.237977,-0.088446,-0.640869,2.410889,1.647949
9.802395,0.102986,-0.734073,10.078242,0.188388,-0.022482,-0.007015,-0.762939,2.258301,1.434326
9.812462,0.054487,-0.442480,10.022558,0.139889,0.269112,-0.062699,1.434326,2.441406,2.044678
9.822530,0.151485,-0.614921,10.044712,0.236887,0.096670,-0.040545,-0.701904,1.586914,1.373291
9.832598,-0.122745,-0.832868,10.166259,-0.037343,-0.121276,0.081002,-1.770020,1.525879,0.671387
9.842666,0.201182,-1.307681,10.177037,0.286584,-0.596089,0.091779,2.746582,1.708984,-0.366211
9.852734,-0.210762,-0.640668,10.096205,-0.125360,0.070924,0.010947,1.922607,1.495361,2.746582
9.862804,-0.158071,-0.922681,10.321935,-0.072669,-0.211090,0.236678,1.342773,1.800537,4.272461
9.872930,0.029938,-1.013692,10.214160,0.115340,-0.302100,0.128902,0.823975,1.678467,6.134033
9.883030,0.254471,-0.769400,10.107581,0.339873,-0.057808,0.022324,2.502441,1.617432,8.666992
9.893129,0.357457,-0.750839,9.966874,0.442859,-0.039247,-0.118384,2.593994,1.159668,9.490967
9.903229,0.334105,-0.789159,10.081835,0.419507,-0.077567,-0.003423,-0.213623,0.854492,8.239746
9.913320,0.218546,-0.548459,10.100396,0.303947,0.163132,0.015139,-0.549316,0.885010,7.171631
9.923412,0.382604,-0.804727,10.106384,0.468006,-0.093135,0.021126,-1.403809,0.762939,7.385254
9.933510,0.285606,-1.091530,10.288405,0.371008,-0.379938,0.203148,-2.044678,0.244141,5.249023
9.943606,0.409548,-0.998723,10.063872,0.494950,-0.287131,-0.021385,-0.732422,-0.305176,4.302979
9.953707,0.305964,-0.910107,10.092014,0.391366,-0.198516,0.006756,1.220703,-0.671387,5.554199
9.963815,0.367037,-0.838856,10.070458,0.452439,-0.127264,-0.014799,1.831055,-0.640869,6.744385
9.974445,0.380808,-0.704136,10.057286,0.466210,0.007456,-0.027972,2.014160,0.091553,7.171631
9.984704,0.393382,-0.520318,10.125544,0.478784,0.191274,0.040286,0.030518,0.213623,6.774902
9.994810,0.474813,-0.745450,10.127340,0.560215,-0.033858,0.042083,0.244141,0.061035,6.530762
10.004915,0.471819,-0.710722,9.866283,0.557221,0.000870,-0.218974,1.159668,0.885010,6.378174
10.015006,0.228724,-0.981958,10.023157,0.314126,-0.270366,-0.062101,-0.030518,1.129150,7.507324
10.025097,0.498164,-0.735271,9.987830,0.583566,-0.023679,-0.097427,0.244141,0.915527,7.690430
10.035201,0.688568,-0.689167,10.103390,0.773970,0.022425,0.018133,-0.030518,1.403809,7.080078
10.045306,0.662822,-0.565823,10.151889,0.748224,0.145768,0.066632,-0.946045,1.708984,3.234863
10.055396,0.477208,-0.668809,9.845925,0.562610,0.042783,-0.239332,-1.098633,1.770020,1.678467
10.065501,0.771196,-0.796344,9.782457,0.856598,-0.084752,-0.302800,-1.586914,2.502441,1.098633
10.075605,0.062869,-0.681982,10.471025,0.148271,0.029610,0.385768,-2.502441,2.655029,-0.152588
10.085695,0.458646,-0.469424,9.920171,0.544048,0.242168,-0.165086,-2.441406,2.838135,-0.671387
10.095799,0.665815,-0.699944,10.080637,0.751217,0.011647,-0.004620,-3.082275,2.075195,-2.014160
10.105907,0.481399,-0.922083,10.006990,0.566801,-0.210491,-0.078267,-1.342773,2.319336,-1.647949
10.115994,0.397573,-0.749641,10.144105,0.482975,-0.038049,0.058848,-1.831055,1.037598,-1.525879
10.126097,0.311951,-0.778980,10.165660,0.397353,-0.067388,0.080403,-1.495361,0.976562,-3.051758
10.136204,0.288001,-0.832269,10.201586,0.373403,-0.120678,0.116328,-2.838135,0.579834,-3.662109
10.146293,0.542472,-0.747246,10.069860,0.627874,-0.035654,-0.015398,-0.427246,-0.244141,-1.647949
10.156396,0.498763,-0.848436,10.050699,0.584165,-0.136844,-0.034558,0.579834,-0.061035,-1.281738
10.166502,0.516127,-0.802930,10.020762,0.601529,-0.091339,-0.064496,1.617432,-0.610352,-0.518799
10.176624,0.376018,-1.092728,10.138716,0.461420,-0.381136,0.053459,1.007080,0.122070,-1.037598
10.186728,0.399370,-1.084345,10.414742,0.484771,-0.372753,0.329485,2.532959,-0.579834,-1.586914
10.196834,0.350870,-0.789758,9.938134,0.436272,-0.078166,-0.147124,1.770020,-0.366211,-0.946045
10.206923,0.439486,-0.771196,10.090816,0.524888,-0.059605,0.005559,0.854492,-0.305176,-1.342773
10.217077,0.173040,-0.686173,9.971664,0.258442,0.025419,-0.113594,0.244141,0.457764,-0.183105
10.227223,0.235311,-0.559836,9.949510,0.320713,0.151756,-0.135747,0.885010,1.708984,1.678467
10.237342,0.214354,-1.218466,10.003997,0.299756,-0.506874,-0.081261,0.885010,2.166748,5.035400
10.247500,0.034728,-0.631686,10.097402,0.120130,0.079905,0.012145,0.976562,1.617432,6.072998
10.257664,0.232317,-0.913700,9.938732,0.317719,-0.202108,-0.146525,-1.434326,0.488281,3.540039
10.267788,0.123942,-0.850831,10.163864,0.209344,-0.139239,0.078607,-1.586914,-0.152588,2.166748
10.278078,0.217348,-0.914299,10.176438,0.302750,-0.202707,0.091181,0.274658,-0.152588,-0.244141
10.288198,-0.176633,-0.908910,10.089020,-0.091231,-0.197318,0.003762,-0.640869,-0.457764,-0.701904
10.298337,0.213157,-0.681982,9.918973,0.298559,0.029610,-0.166284,-1.312256,0.701904,-0.274658
10.308417,-0.005389,-0.549058,9.927955,0.080013,0.162534,-0.157303,0.091553,0.518799,-0.701904
10.318488,-0.228126,-0.377814,10.233320,-0.142724,0.333777,0.148062,-0.640869,-0.183105,0.274658
10.328553,0.283810,-0.613125,9.951306,0.369212,0.098467,-0.133951,-0.152588,-0.671387,0.579834
10.338632,0.375419,-0.931663,10.241104,0.460821,-0.220071,0.155846,0.946045,-1.190186,2.441406
10.348706,0.332908,-0.770598,10.242900,0.418310,-0.059006,0.157642,1.403809,-0.671387,2.044678
10.358783,0.480800,-0.881367,10.252480,0.566202,-0.169775,0.167223,0.732422,0.213623,1.342773
10.368865,0.352667,-0.805924,10.196197,0.438069,-0.094332,0.110940,0.000000,0.366211,0.671387
10.378940,0.539478,-0.857417,9.979448,0.624880,-0.145825,-0.105810,3.021240,0.213623,-0.549316
10.389009,0.546663,-1.036445,10.008188,0.632065,-0.324853,-0.077069,3.509521,0.152588,0.671387
10.399082,0.133522,-1.014890,9.980046,0.218924,-0.303298,-0.105211,1.953125,0.671387,-0.030518
10.409155,0.050894,-1.028062,10.050101,0.136296,-0.316470,-0.035157,1.220703,2.075195,0.488281
10.419223,-0.361049,-1.019680,10.344688,-0.275647,-0.308088,0.259431,1.068115,0.976562,4.852295
10.429317,-0.452659,-0.656834,10.141111,-0.367257,0.054758,0.055854,-0.549316,-0.366211,6.317139
10.439418,-0.367037,-0.709525,10.065070,-0.281635,0.002067,-0.020188,-2.105713,-0.854492,6.103516
10.449510,-0.068857,-0.611927,10.297386,0.016545,0.099664,0.212129,0.396729,-2.441406,5.767822
10.459588,-0.137115,-0.728086,10.115964,-0.051713,-0.016494,0.030706,1.312256,-2.014160,5.828857
10.469665,-0.066462,-0.540676,10.247091,0.018940,0.170916,0.161834,1.129150,-0.244141,4.119873
10.479733,-0.051493,-0.651445,10.284813,0.033909,0.060146,0.199555,0.091553,-0.885010,3.570557
10.489813,0.265248,-0.659229,10.055490,0.350650,0.052363,-0.029768,-0.640869,-3.051758,2.441406
10.499887,0.154479,-0.778381,10.158475,0.239881,-0.066790,0.073218,-0.061035,-3.692627,0.854492
10.509964,0.221539,-0.708926,10.078242,0.306941,0.002666,-0.007015,1.586914,-1.983643,0.305176
10.520034,0.055085,-0.631686,10.193802,0.140487,0.079905,0.108545,-0.854492,1.037598,-3.173828
10.530104,0.114362,-0.634081,10.120754,0.199764,0.077510,0.035496,0.335693,1.800537,-4.669189
10.540173,-0.047302,-0.673599,10.055490,0.038100,0.037992,-0.029768,1.434326,1.892090,-2.807617
10.550247,-0.087418,-0.492177,10.058483,-0.002016,0.219415,-0.026774,0.701904,1.831055,-2.807617
10.560321,-0.229323,-0.630489,10.171049,-0.143921,0.081103,0.085792,-3.540039,1.922607,-4.608154
10.570390,-0.219743,-0.761616,10.221345,-0.134341,-0.050024,0.136087,-3.265381,1.495361,-5.767822
10.580465,-0.052092,-0.772394,10.090816,0.033310,-0.060802,0.005559,-3.295898,0.640869,-6.744385
10.590539,-0.130529,-0.113165,9.750723,-0.045127,0.598427,-0.334534,0.579834,-1.373291,-4.821777
10.600607,-0.132325,-0.932261,10.010583,-0.046923,-0.220670,-0.074674,-2.044678,-1.586914,-3.936768
10.610683,-0.006586,-1.137036,10.209968,0.078816,-0.425444,0.124711,-1.708984,-2.075195,-5.737305
10.620758,-0.304766,-0.777184,10.068063,-0.219364,-0.065592,-0.017194,-1.098633,-1.068115,-6.591797
10.630826,-0.365839,-0.840652,10.068063,-0.280437,-0.129060,-0.017194,1.739502,-0.518799,-5.432129
10.640919,-0.356858,-0.965792,9.986633,-0.271456,-0.254200,-0.098625,0.823975,-0.427246,-4.150391
10.650992,-0.427511,-0.916694,10.069860,-0.342109,-0.205102,-0.015398,1.678467,0.091553,-4.241943
10.661061,-0.531694,-0.718506,10.024953,-0.446292,-0.006914,-0.060304,0.762939,-0.488281,-2.075195
10.671135,-0.331710,-0.883762,9.950707,-0.246308,-0.172170,-0.134550,1.586914,-0.213623,-0.396729
10.681209,-0.280217,-0.781974,10.111772,-0.194815,-0.070382,0.026515,1.983643,0.183105,1.678467
10.691277,-0.161065,-0.851429,10.196197,-0.075663,-0.139838,0.110940,-0.152588,-0.335693,2.014160
10.701368,-0.340692,-1.092129,10.499167,-0.255290,-0.380537,0.413910,1.342773,-0.427246,1.434326
10.711448,-0.284409,-0.732277,9.684860,-0.199007,-0.020685,-0.400397,0.549316,-0.427246,2.899170
10.721512,-0.159269,-0.710123,9.877659,-0.073867,0.001468,-0.207598,1.373291,0.213623,5.310059
10.731587,-0.317340,-0.200583,9.860894,-0.231938,0.511009,-0.224363,3.234863,1.190186,7.019043
10.741668,-0.067061,-0.762814,10.113569,0.018341,-0.051222,0.028311,0.427246,-0.640869,7.385254
10.751736,0.137115,-0.897534,10.278825,0.222517,-0.185942,0.193568,0.305176,-1.373291,4.425049
10.761805,0.075443,-0.766406,9.864487,0.160845,-0.054815,-0.220771,-0.549316,0.610352,3.173828
10.771875,-0.192200,-0.797542,9.944121,-0.106798,-0.085950,-0.141136,-0.885010,1.770020,3.417969
10.781963,-0.241897,-0.881367,10.177635,-0.156495,-0.169775,0.092378,0.488281,1.739502,3.631592
10.792033,0.085023,-0.711321,9.909992,0.170425,0.000271,-0.175265,0.152588,1.556396,3.875732
10.802126,-0.238304,-0.658032,9.832154,-0.152903,0.053560,-0.253103,-1.098633,0.457764,2.105713
10.812245,0.086819,-0.941841,9.741143,0.172221,-0.230250,-0.344114,-2.746582,0.579834,1.251221
10.822353,-0.192200,-1.034050,10.080637,-0.106798,-0.322458,-0.004620,-0.396729,-0.549316,-0.213623
10.832448,0.041314,-1.016686,9.983639,0.126716,-0.305094,-0.101618,0.579834,-0.976562,-0.488281
10.842545,-0.074844,-0.966390,10.028546,0.010558,-0.254799,-0.056712,0.427246,-0.946045,0.213623
10.852630,-0.041913,-0.932860,10.122550,0.043489,-0.221268,0.037293,0.122070,-0.152588,-0.549316
10.862727,0.048499,-0.714315,10.110575,0.133901,-0.002723,0.025318,0.427246,0.305176,-0.885010
10.872820,-0.013173,-1.093925,10.098001,0.072229,-0.382333,0.012744,0.335693,0.488281,-0.366211
10.882903,0.070653,-0.918490,9.964479,0.156055,-0.206898,-0.120779,0.885010,0.762939,0.091553
10.892988,0.184417,-1.119073,9.799821,0.269818,-0.407481,-0.285436,0.823975,0.885010,-0.823975
10.903054,0.176034,-0.970582,10.171049,0.261436,-0.258990,0.085792,0.793457,0.000000,-1.068115
10.913126,0.202379,-1.163381,10.430909,0.287781,-0.451789,0.345651,1.190186,0.305176,-0.488281
10.923191,0.175435,-0.505349,9.930350,0.260837,0.206243,-0.154908,0.427246,0.396729,0.335693
10.933259,0.336500,-0.564626,9.990824,0.421902,0.146966,-0.094433,0.701904,-0.061035,0.366211
10.943328,0.243693,-0.968187,10.034533,0.329095,-0.256595,-0.050724,0.030518,-0.366211,-0.335693
10.953396,0.244891,-0.649050,10.036329,0.330293,0.062541,-0.048928,0.335693,-1.037598,-0.762939
10.963474,0.255070,-0.970582,10.205777,0.340471,-0.258990,0.120520,0.000000,-0.823975,1.434326
10.973567,0.209564,-0.887953,10.284813,0.294966,-0.176362,0.199555,-0.579834,-0.793457,1.190186
10.983635,0.284409,-0.714913,9.856104,0.369810,-0.003322,-0.229153,0.793457,0.732422,-0.701904
10.993701,-0.085023,-0.881367,10.012978,0.000379,-0.169775,-0.072279,1.556396,1.586914,0.091553
11.003770,-0.086819,-0.981359,10.318942,-0.001418,-0.269768,0.233684,0.579834,1.678467,0.335693
11.013837,-0.068258,-0.711321,10.011182,0.017144,0.000271,-0.074076,-0.549316,2.593994,-3.082275
11.023902,-0.401166,-0.277822,10.005793,-0.315764,0.433769,-0.079465,-0.671387,2.441406,-4.516602
11.033969,-0.263452,-0.903521,9.902208,-0.178050,-0.191929,-0.183049,1.922607,0.762939,-4.180908
11.044071,-0.610730,-0.942440,10.024953,-0.525328,-0.230848,-0.060304,1.770020,0.732422,-4.852295
11.054289,-0.119152,-0.999322,9.411828,-0.033750,-0.287730,-0.673429,-0.091553,1.464844,-5.706787
11.064371,-0.550854,-0.642464,10.130334,-0.465453,0.069128,0.045077,2.075195,0.946045,-4.241943
11.074437,-0.335303,-0.652044,10.030941,-0.249901,0.059548,-0.054317,0.030518,-0.152588,0.030518
11.084510,-0.171244,-0.419128,9.815988,-0.085842,0.292463,-0.269270,2.655029,0.091553,-0.915527
11.094583,-0.195194,-0.355062,9.906400,-0.109792,0.356530,-0.178858,1.159668,-0.488281,-1.373291
11.104649,0.068857,-1.328637,10.148895,0.154259,-0.617045,0.063638,-1.251221,-0.579834,-1.495361
11.114731,0.771196,-0.799338,9.641750,0.856598,-0.087746,-0.443507,0.213623,0.610352,-2.166748
11.124819,0.140707,-0.775388,10.044712,0.226109,-0.063796,-0.040545,-0.518799,-0.488281,-1.373291
11.134887,0.280217,-0.810115,9.987231,0.365619,-0.098524,-0.098026,-0.885010,-0.823975,-1.586914
11.144988,0.687371,-1.015488,9.887239,0.772773,-0.303897,-0.198018,0.335693,-0.854492,-1.373291
11.155061,0.207768,-1.059796,10.117161,0.293170,-0.348204,0.031904,0.885010,-0.030518,-1.281738
11.165137,0.265248,-0.922083,10.001602,0.350650,-0.210491,-0.083656,1.495361,0.122070,-1.373291
11.175769,0.232317,-0.456251,9.899214,0.317719,0.255341,-0.186043,2.746582,0.244141,1.007080
11.185845,-0.008981,-1.194516,10.203382,0.076421,-0.482924,0.118125,0.549316,-1.495361,1.373291
11.195912,0.414937,-0.808319,10.118958,0.500339,-0.096727,0.033700,-0.335693,-1.129150,0.793457
11.205978,0.328118,-0.661025,10.041718,0.413520,0.050566,-0.043539,1.434326,0.305176,-0.244141
11.216060,0.116158,-0.631088,9.898017,0.201560,0.080504,-0.187240,0.457764,1.129150,-0.915527
11.226127,-0.244891,-0.481399,9.776470,-0.159489,0.230193,-0.308788,-1.312256,1.403809,0.305176
11.236208,-0.096400,-0.667013,9.981244,-0.010998,0.044579,-0.104013,-0.671387,0.885010,3.448486
11.246275,-0.126936,-1.148412,10.157278,-0.041534,-0.436820,0.072020,-0.183105,-0.335693,5.523682
11.256343,-0.214953,-0.740660,10.004595,-0.129551,-0.029068,-0.080662,1.556396,-0.579834,7.232666
11.266408,-0.073647,-1.193318,9.926158,0.011755,-0.481727,-0.159099,-0.030518,1.037598,6.866455
11.276476,-0.308359,-0.538879,9.979448,-0.222957,0.172712,-0.105810,1.495361,1.556396,5.035400
11.286568,-0.399968,-0.625100,10.083032,-0.314566,0.086492,-0.002225,-0.671387,-0.183105,1.434326
11.296644,-0.068258,-1.097518,10.122550,0.017144,-0.385926,0.037293,1.007080,-0.091553,-0.152588
11.306720,-0.226329,-1.026865,10.082433,-0.140927,-0.315273,-0.002824,-2.105713,0.396729,-2.929688
11.316794,-0.582589,-0.962199,10.165062,-0.497187,-0.250607,0.079804,-1.556396,0.762939,-3.723145
11.326862,-0.398172,-0.955613,10.139914,-0.312770,-0.244021,0.054657,0.579834,0.427246,-2.960205
11.336941,-0.484393,-0.674198,10.253677,-0.398991,0.037394,0.168420,4.516602,0.244141,-4.394531
11.347008,-0.628693,-0.689766,9.935739,-0.543291,0.021826,-0.149519,1.861572,-0.183105,-6.164551
11.357074,-0.641865,-0.363444,10.201586,-0.556463,0.348148,0.116328,0.305176,0.549316,-10.070801
11.367150,-0.699346,-0.663420,10.319540,-0.613944,0.048171,0.234283,-0.915527,0.274658,-9.704590
11.377217,-0.497565,-0.649050,10.321337,-0.412163,0.062541,0.236079,3.234863,-0.091553,-10.314941
11.387284,-1.320853,0.042512,10.407557,-1.235451,0.754103,0.322300,3.936768,0.427246,-9.979248
11.397351,-0.958607,-0.341889,9.954899,-0.873205,0.369703,-0.130359,1.159668,-0.793457,-6.958008
11.407415,-0.302970,-0.841251,10.066866,-0.217568,-0.129659,-0.018392,1.556396,-0.518799,-9.399414
11.417484,-0.583187,-0.508942,10.124945,-0.497785,0.202650,0.039688,1.281738,0.518799,-11.505127
11.427557,-0.347278,-0.663420,10.068662,-0.261876,0.048171,-0.016595,0.183105,1.708984,-10.620117
11.437624,-0.032333,-0.749641,10.018965,0.053069,-0.038049,-0.066292,-0.457764,1.312256,-10.528564
11.447705,-0.513133,-0.644260,10.086026,-0.427731,0.067331,0.000769,-0.671387,1.373291,-11.840820
11.457771,-0.116757,-0.703537,9.911190,-0.031355,0.008055,-0.174068,-1.525879,1.434326,-10.406494
11.467837,-0.347877,-0.634680,10.133926,-0.262475,0.076912,0.048669,-2.502441,1.739502,-11.260986
11.477904,-0.307161,-0.871188,10.248887,-0.221759,-0.159597,0.163630,-2.044678,0.793457,-12.145996
11.487979,-0.422122,-0.768203,10.222542,-0.336720,-0.056611,0.137285,-2.166748,-0.274658,-10.589600
11.498046,-0.041913,-0.632884,10.222542,0.043489,0.078708,0.137285,-1.251221,-0.244141,-9.979248
11.508114,0.080233,-0.716111,10.170450,0.165635,-0.004519,0.085193,-1.586914,0.244141,-10.162354
11.518180,0.126936,-0.773591,10.044712,0.212338,-0.062000,-0.040545,4.150391,1.251221,-9.002686
11.528246,0.061672,-0.706531,9.898017,0.147074,0.005061,-0.187240,4.241943,1.403809,-6.774902
11.538312,-0.046104,-0.804128,9.588461,0.039298,-0.092536,-0.496797,4.119873,1.739502,-6.561279
11.548387,0.156874,-0.905317,10.079440,0.242276,-0.193726,-0.005818,-1.892090,0.091553,-8.605957
11.558453,0.253273,-1.574725,10.226135,0.338675,-0.863134,0.140877,-1.373291,-1.037598,-9.735107
11.568556,-0.365240,-0.726290,10.812316,-0.279839,-0.014698,0.727058,-0.061035,1.220703,-11.749268
11.578626,-0.372426,-0.108375,9.920171,-0.287024,0.603217,-0.165086,2.807617,2.441406,-12.390137
11.588692,-0.367635,-0.853824,9.850117,-0.282234,-0.142233,-0.235141,4.119873,2.105713,-9.674072
11.598760,-0.383203,-0.286804,9.937535,-0.297801,0.424788,-0.147723,3.295898,0.823975,-10.192871
11.608838,-0.405956,-0.819695,10.120155,-0.320554,-0.108104,0.034898,-1.586914,-1.495361,-11.749268
11.618906,-0.301772,-0.843646,10.153685,-0.216371,-0.132054,0.068428,-0.030518,-2.471924,-13.366699
11.628975,-0.471819,-0.919089,10.118359,-0.386417,-0.207497,0.033101,0.244141,-2.471924,-12.634277
11.639042,-0.512534,-0.758024,10.338701,-0.427132,-0.046432,0.253443,0.122070,-1.342773,-10.864258
11.649113,-0.350272,-0.864003,10.123748,-0.264870,-0.152412,0.038490,-1.068115,-1.312256,-10.345459
11.659180,0.083826,-0.216151,9.631571,0.169228,0.495441,-0.453686,-3.051758,0.579834,-10.467529
11.669254,-0.221539,-0.429307,10.015972,-0.136137,0.282284,-0.069286,-1.464844,0.335693,-7.507324
11.679320,0.030536,-0.959205,10.271640,0.115938,-0.247614,0.186383,-0.274658,0.244141,-4.364014
11.689388,0.029938,-0.673599,10.084230,0.115340,0.037992,-0.001028,-2.716064,0.457764,-6.195068
11.699454,-0.233514,-1.050815,10.140513,-0.148112,-0.339223,0.055255,-2.685547,-0.976562,-5.462646
11.709520,0.149689,-1.071172,9.924362,0.235091,-0.359581,-0.160895,-2.624512,-0.061035,1.892090
11.719588,0.513732,-1.446592,10.052496,0.599134,-0.735000,-0.032762,1.342773,1.312256,4.089355
11.729655,0.110171,-1.329835,10.233918,0.195573,-0.618243,0.148661,-0.732422,0.457764,3.112793
11.739731,-0.186213,-1.292113,10.297386,-0.100811,-0.580521,0.212129,-0.885010,-0.244141,4.211426
11.749799,0.171244,-0.938249,9.691447,0.256646,-0.226657,-0.393811,3.143311,0.152588,11.077881
11.759866,-0.069456,-0.804727,10.008787,0.015946,-0.093135,-0.076471,3.082275,-1.190186,15.869141
11.769938,0.110171,-0.961002,10.179432,0.195573,-0.249410,0.094174,2.716064,-1.922607,15.533447
11.780007,0.395178,-0.969384,10.172845,0.480580,-0.257792,0.087588,1.953125,-2.136230,15.197754
11.790073,0.361648,-0.738864,9.935140,0.447050,-0.027272,-0.150118,2.288818,-1.708984,12.420654
11.800147,0.437690,-0.681982,10.128538,0.523092,0.029610,0.043280,3.540039,-0.244141,8.819580
11.810215,0.274230,-0.948428,10.237511,0.359632,-0.236836,0.152254,0.061035,-0.183105,8.453369
11.820285,0.656235,-0.633483,9.936936,0.741637,0.078109,-0.148321,1.098633,1.159668,7.629395
11.830360,0.704734,-0.552052,10.087822,0.790136,0.159540,0.002565,-2.014160,2.288818,4.608154
11.840429,0.245490,-0.941841,10.413545,0.330891,-0.230250,0.328288,-1.556396,0.762939,2.868652
11.850495,0.520318,-1.087938,10.338701,0.605720,-0.376346,0.253443,0.244141,-0.396729,4.364014
11.860590,0.411943,-0.751437,10.451266,0.497345,-0.039846,0.366009,-1.098633,-0.183105,4.608154
11.870657,0.811313,-0.305365,9.856703,0.896715,0.406227,-0.228554,1.068115,2.166748,0.396729
11.880729,0.355062,-1.006507,10.125544,0.440464,-0.294915,0.040286,5.401611,1.892090,0.671387
11.890794,-0.440684,-0.681982,10.356663,-0.355282,0.029610,0.271406,1.617432,0.030518,4.364014
11.900862,0.212558,-0.537682,10.114167,0.297960,0.173910,0.028910,-2.136230,-0.885010,3.204346
11.910931,0.176034,-0.532892,10.310559,0.261436,0.178700,0.225302,-4.028320,-1.647949,2.990723
11.921007,0.314346,-0.581990,10.106982,0.399748,0.129602,0.021725,-2.197266,-0.305176,-4.516602
11.931076,0.089813,-0.402363,9.772278,0.175215,0.309228,-0.312979,-3.265381,-0.030518,-5.432129
11.941143,-0.048499,-0.619711,10.348281,0.036903,0.091880,0.263023,0.305176,0.396729,-3.326416
11.951210,-0.288600,-0.359852,10.005793,-0.203198,0.351740,-0.079465,1.861572,1.220703,-2.960205
11.961276,0.002395,-0.644260,9.933344,0.087797,0.067331,-0.151914,2.624512,0.244141,-3.356934
11.971344,0.298180,-0.980760,10.188413,0.383582,-0.269169,0.103156,-2.685547,-0.183105,-4.211426
11.981410,0.051493,-0.634081,10.208172,0.136895,0.077510,0.122915,0.579834,1.434326,-5.554199
11.991478,0.046104,-0.553848,10.076446,0.131506,0.157743,-0.008811,1.373291,-1.586914,-5.523682
12.001555,0.277822,-0.946631,10.664423,0.363224,-0.235040,0.579166,-3.051758,-1.403809,-4.974365
12.011623,0.093406,-0.625699,10.134525,0.178808,0.085893,0.049268,0.823975,0.335693,-6.134033
12.021691,-0.206570,-0.714315,10.038126,-0.121169,-0.002723,-0.047132,1.800537,-1.342773,-4.577637
12.031759,0.030536,-0.708327,10.036928,0.115938,0.003265,-0.048329,-0.915527,0.213623,-1.556396
12.041825,0.513732,-0.460443,9.942325,0.599134,0.251149,-0.142933,2.899170,0.671387,-3.906250
12.051893,-0.377216,-0.285606,10.084230,-0.291814,0.425986,-0.001028,5.187988,0.244141,-5.584717
12.061973,0.041314,-0.552651,10.206376,0.126716,0.158941,0.121118,-0.366211,-0.457764,-5.218506
12.072042,0.053289,-0.726290,10.187216,0.138691,-0.014698,0.101958,-0.396729,-0.305176,-7.629395
12.082110,-0.140707,-0.528102,10.095007,-0.055305,0.183490,0.009750,0.061035,-0.152588,-9.063721
12.092178,-0.095801,-0.451461,9.739347,-0.010399,0.260131,-0.345910,-2.044678,0.457764,-9.582520
12.102245,-0.433499,-0.497565,10.205178,-0.348097,0.214026,0.119921,-2.563477,0.793457,-13.458252
12.112314,-0.279020,-0.897534,9.906998,-0.193618,-0.185942,-0.178259,-4.150391,1.251221,-13.488770
12.122382,-0.908910,-0.971779,10.422526,-0.823508,-0.260187,0.337269,-3.479004,1.251221,-12.786865
12.132461,-0.458047,-0.798140,9.965078,-0.372646,-0.086549,-0.120180,2.105713,-0.640869,-5.249023
12.142534,-0.591570,-0.731080,10.056687,-0.506168,-0.019488,-0.028570,3.631592,-1.068115,-2.075195
12.152642,-0.552651,-0.408950,9.871672,-0.467249,0.302642,-0.213586,0.457764,-2.197266,-2.044678
12.162716,-0.155078,-0.403561,10.053094,-0.069676,0.308031,-0.032163,2.197266,-1.525879,-1.373291
12.172819,-0.370031,-0.644859,10.026749,-0.284629,0.066733,-0.058508,0.305176,-0.335693,0.122070
12.182892,-0.132924,-0.524509,9.862690,-0.047522,0.187082,-0.222567,0.213623,-0.061035,0.061035
12.192959,-0.158071,-0.563428,9.836944,-0.072669,0.148163,-0.248313,-0.335693,-0.274658,0.061035
12.203026,-0.359253,-0.732876,10.194999,-0.273851,-0.021284,0.109742,1.068115,-0.793457,0.671387
12.213094,-0.132924,-0.562231,10.007589,-0.047522,0.149361,-0.077668,0.488281,-0.122070,2.258301
12.223161,-0.230521,-0.680186,10.170450,-0.145119,0.031406,0.085193,1.037598,1.251221,2.075195
12.233229,-0.414338,-0.798140,10.204579,-0.328936,-0.086549,0.119322,1.678467,1.190186,1.007080
12.243298,-0.541274,-0.752036,10.200388,-0.455873,-0.040444,0.115131,0.671387,0.885010,2.746582
12.253366,-0.136516,-1.008902,10.033934,-0.051114,-0.297310,-0.051323,1.281738,0.915527,1.556396
12.263433,-0.411943,-0.866398,10.261461,-0.326541,-0.154807,0.176204,2.899170,0.732422,1.190186
12.273501,-0.690963,-0.549657,9.998009,-0.605561,0.161935,-0.087248,0.366211,-2.197266,-0.366211
12.283568,-0.405357,-0.683179,9.992620,-0.319955,0.028412,-0.092637,0.091553,-2.075195,-0.671387
12.293636,-0.308958,-0.640069,10.062675,-0.223556,0.071523,-0.022583,-1.220703,-0.061035,3.143311
12.303704,-0.061672,-0.851429,10.115964,0.023730,-0.139838,0.030706,0.946045,1.098633,1.892090
12.313774,-0.231119,-0.445474,9.977053,-0.145717,0.266118,-0.108205,0.610352,0.976562,-0.823975
12.323844,-0.327519,-0.538281,10.025552,-0.242117,0.173311,-0.059706,0.061035,1.373291,-1.312256
12.333914,-0.326920,-0.580193,9.898616,-0.241518,0.131398,-0.186642,-1.342773,1.953125,-1.342773
12.343981,-0.369432,-0.941841,10.100995,-0.284030,-0.230250,0.015738,0.976562,0.640869,1.739502
12.354047,-0.626298,-0.756826,10.012379,-0.540896,-0.045234,-0.072878,-0.183105,0.061035,2.960205
12.364115,-0.392184,-0.823288,10.077045,-0.306783,-0.111696,-0.008213,2.746582,-0.610352,6.835938
12.374184,-0.223934,-0.723296,10.161469,-0.138532,-0.011704,0.076212,3.051758,0.000000,7.568359
12.384249,-0.473615,-0.667013,10.173444,-0.388213,0.044579,0.088187,-0.396729,-0.305176,7.659912
12.394317,-0.498763,-0.834664,10.340497,-0.413361,-0.123073,0.255239,-1.861572,-0.762939,8.453369
12.404412,-0.210163,-0.786165,10.048304,-0.124761,-0.074573,-0.036953,0.823975,-0.823975,8.514404
12.414482,-0.204774,-0.816702,10.094409,-0.119372,-0.105110,0.009151,0.793457,-1.068115,7.141113
12.424548,-0.413740,-0.592169,10.184222,-0.328338,0.119423,0.098964,0.518799,-0.885010,4.913330
12.434615,-0.258662,-0.241298,10.021360,-0.173260,0.470294,-0.063897,-1.617432,-0.579834,4.699707
12.444681,0.071851,-0.389789,10.063872,0.157252,0.321802,-0.021385,-0.213623,-0.152588,5.859375
12.454746,-0.188009,-0.713716,10.130334,-0.102607,-0.002124,0.045077,2.410889,0.549316,5.767822
12.464813,-0.305964,-0.480201,10.024953,-0.220562,0.231390,-0.060304,1.495361,0.549316,6.408691
12.474880,-0.029339,-0.917292,10.175240,0.056063,-0.205701,0.089983,-0.579834,0.091553,6.134033
12.484949,-0.178429,-0.468226,10.111772,-0.093027,0.243365,0.026515,-1.739502,0.946045,7.171631
12.495015,0.088616,-0.638871,9.989626,0.174018,0.072720,-0.095631,0.762939,1.281738,8.056641
12.505081,0.216749,-0.874182,10.087224,0.302151,-0.162590,0.001966,0.823975,0.366211,7.049561
12.515150,-0.305964,-1.051414,10.745854,-0.220562,-0.339822,0.660597,-1.464844,-0.061035,4.913330
12.525217,0.018561,-0.821492,10.259066,0.103963,-0.109900,0.173809,-0.274658,-1.068115,7.415771
