time,ax_raw,ay_raw,az_raw,ax,ay,az,gx,gy,gz
0.000798,-0.210762,-0.634081,10.050699,0.000542,-0.012929,-0.002620,0.091553,0.091553,-0.030518
0.010863,-0.210163,-0.628693,10.048903,0.001141,-0.007540,-0.004417,0.091553,0.091553,0.030518
0.020951,-0.202379,-0.625699,10.062675,0.008924,-0.004546,0.009355,0.091553,0.091553,0.061035
0.031022,-0.196990,-0.623903,10.075847,0.014313,-0.002750,0.022527,0.091553,0.091553,0.061035
0.041087,-0.211959,-0.619711,10.081236,-0.000656,0.001442,0.027916,0.122070,0.091553,0.030518
0.051180,-0.190404,-0.622705,10.064471,0.020900,-0.001552,0.011151,0.122070,0.091553,0.030518
0.061247,-0.201780,-0.621508,10.072255,0.009523,-0.000355,0.018935,0.091553,0.122070,0.091553
0.071313,-0.186213,-0.628693,10.063273,0.025091,-0.007540,0.009954,0.061035,0.152588,0.091553
0.081392,-0.187410,-0.625100,10.063872,0.023893,-0.003947,0.010552,0.061035,0.122070,0.061035
0.091459,-0.208367,-0.632285,10.072853,0.002937,-0.011132,0.019534,0.030518,0.122070,0.061035
0.101524,-0.213755,-0.634680,10.069261,-0.002452,-0.013527,0.015941,0.000000,0.122070,0.061035
0.111590,-0.212558,-0.644260,10.060878,-0.001254,-0.023107,0.007559,0.030518,0.122070,0.030518
0.121656,-0.202978,-0.651445,10.066866,0.008326,-0.030293,0.013546,0.030518,0.122070,0.030518
0.131729,-0.203577,-0.643063,10.069261,0.007727,-0.021910,0.015941,0.061035,0.061035,0.030518
0.141808,-0.204774,-0.631088,10.060878,0.006529,-0.009935,0.007559,0.061035,0.061035,0.030518
0.151875,-0.202978,-0.621508,10.056088,0.008326,-0.000355,0.002768,0.030518,0.091553,0.030518
0.161940,-0.202978,-0.614921,10.058483,0.008326,0.006232,0.005164,0.061035,0.091553,0.030518
0.172006,-0.211959,-0.610131,10.063872,-0.000656,0.011022,0.010552,0.122070,0.122070,0.091553
0.182072,-0.211360,-0.607736,10.066267,-0.000057,0.013417,0.012947,0.091553,0.122070,0.091553
0.192143,-0.215552,-0.611329,10.065070,-0.004248,0.009824,0.011750,0.091553,0.122070,0.091553
0.202216,-0.219743,-0.617915,10.062675,-0.008439,0.003238,0.009355,0.091553,0.122070,0.061035
0.212282,-0.216749,-0.635279,10.042317,-0.005446,-0.014126,-0.011003,0.091553,0.122070,0.091553
0.222351,-0.216749,-0.643661,10.038724,-0.005446,-0.022509,-0.014595,0.061035,0.152588,0.061035
0.232418,-0.207169,-0.649050,10.041718,0.004134,-0.027897,-0.011602,0.061035,0.152588,0.061035
0.242486,-0.205972,-0.645458,10.044113,0.005332,-0.024305,-0.009207,0.061035,0.213623,0.000000
0.252558,-0.195793,-0.639470,10.063273,0.015511,-0.018317,0.009954,0.091553,0.244141,-0.030518
0.262626,-0.190404,-0.634680,10.074650,0.020900,-0.013527,0.021330,0.152588,0.244141,-0.061035
0.272702,-0.188009,-0.628693,10.078841,0.023295,-0.007540,0.025521,0.152588,0.183105,-0.061035
0.282771,-0.189207,-0.614323,10.069261,0.022097,0.006830,0.015941,0.152588,0.152588,0.000000
0.292837,-0.194595,-0.605940,10.062675,0.016708,0.015213,0.009355,0.091553,0.122070,0.030518
0.302903,-0.212558,-0.598755,10.053094,-0.001254,0.022398,-0.000225,0.091553,0.122070,0.061035
0.312968,-0.226928,-0.598156,10.053693,-0.015625,0.022997,0.000373,0.091553,0.122070,0.030518
0.323035,-0.241897,-0.597557,10.060878,-0.030593,0.023595,0.007559,0.061035,0.152588,0.061035
0.333108,-0.246088,-0.593965,10.060280,-0.034785,0.027188,0.006960,0.091553,0.152588,0.091553
0.343174,-0.242496,-0.601150,10.065070,-0.031192,0.020003,0.011750,0.122070,0.183105,0.061035
0.353240,-0.235909,-0.614921,10.056088,-0.024606,0.006232,0.002768,0.091553,0.183105,0.061035
0.363307,-0.230521,-0.614921,10.059681,-0.019217,0.006232,0.006361,0.061035,0.152588,0.030518
0.373373,-0.212558,-0.618514,10.061477,-0.001254,0.002639,0.008157,0.061035,0.122070,0.030518
0.383438,-0.198787,-0.625100,10.057286,0.012517,-0.003947,0.003966,0.061035,0.122070,0.030518
0.393506,-0.192799,-0.632884,10.054292,0.018505,-0.011731,0.000972,0.061035,0.091553,0.000000
0.403573,-0.188009,-0.640069,10.053693,0.023295,-0.018916,0.000373,0.061035,0.091553,0.000000
0.413641,-0.193997,-0.641266,10.051897,0.017307,-0.020114,-0.001423,0.061035,0.091553,0.000000
0.423706,-0.195793,-0.644260,10.058483,0.015511,-0.023107,0.005164,0.091553,0.091553,0.030518
0.433772,-0.201780,-0.638273,10.063273,0.009523,-0.017120,0.009954,0.091553,0.091553,0.061035
0.443838,-0.214953,-0.635878,10.054292,-0.003649,-0.014725,0.000972,0.122070,0.091553,0.061035
0.453905,-0.219144,-0.640668,10.053094,-0.007841,-0.019515,-0.000225,0.122070,0.091553,0.061035
0.463971,-0.224533,-0.628094,10.058483,-0.013229,-0.006941,0.005164,0.091553,0.122070,0.061035
0.474036,-0.217947,-0.626896,10.063273,-0.006643,-0.005744,0.009954,0.091553,0.122070,0.061035
0.484140,-0.224533,-0.628094,10.063273,-0.013229,-0.006941,0.009954,0.152588,0.091553,0.061035
0.494206,-0.208965,-0.610131,10.060878,0.002338,0.011022,0.007559,0.122070,0.091553,0.061035
0.504272,-0.208367,-0.610730,10.062076,0.002937,0.010423,0.008756,0.091553,0.091553,0.000000
0.514338,-0.179028,-0.597557,10.053094,0.032276,0.023595,-0.000225,0.061035,0.122070,0.061035
0.524404,-0.186812,-0.600551,10.073452,0.024492,0.020602,0.020132,0.061035,0.122070,0.091553
0.534471,-0.195793,-0.603545,10.065668,0.015511,0.017608,0.012349,0.061035,0.091553,0.091553
0.544537,-0.198188,-0.617915,10.054891,0.013116,0.003238,0.001571,0.030518,0.091553,0.091553
0.554603,-0.226329,-0.642464,10.050699,-0.015026,-0.021311,-0.002620,0.061035,0.091553,0.091553
0.564669,-0.237107,-0.647853,10.056687,-0.025803,-0.026700,0.003367,0.061035,0.091553,0.061035
0.574734,-0.242496,-0.661624,10.055490,-0.031192,-0.040471,0.002170,0.061035,0.091553,-0.030518
0.584800,-0.236508,-0.652044,10.056687,-0.025205,-0.030891,0.003367,0.061035,0.091553,-0.030518
0.594868,-0.233514,-0.647254,10.050101,-0.022211,-0.026101,-0.003219,0.061035,0.122070,-0.061035
0.604934,-0.216151,-0.627495,10.051298,-0.004847,-0.006342,-0.002022,0.061035,0.122070,-0.030518
0.615000,-0.200583,-0.619113,10.062076,0.010721,0.002040,0.008756,0.122070,0.152588,-0.030518
0.625065,-0.189805,-0.591570,10.078242,0.021498,0.029583,0.024922,0.091553,0.122070,0.030518
0.635131,-0.188608,-0.583187,10.074650,0.022696,0.037966,0.021330,0.091553,0.091553,0.030518
0.645197,-0.193398,-0.578996,10.080038,0.017906,0.042157,0.026719,0.091553,0.061035,0.061035
0.655266,-0.212558,-0.587379,10.068662,-0.001254,0.033774,0.015342,0.091553,0.061035,0.061035
0.665332,-0.222138,-0.598755,10.062675,-0.010834,0.022398,0.009355,0.061035,0.091553,0.061035
0.675396,-0.232317,-0.614921,10.073452,-0.021013,0.006232,0.020132,0.061035,0.091553,0.061035
0.685462,-0.232317,-0.625100,10.068063,-0.021013,-0.003947,0.014744,0.030518,0.061035,0.030518
0.695527,-0.231718,-0.637075,10.060878,-0.020415,-0.015922,0.007559,0.030518,0.091553,0.000000
0.705599,-0.225132,-0.641266,10.059681,-0.013828,-0.020114,0.006361,0.000000,0.091553,0.000000
0.715665,-0.220342,-0.634081,10.064471,-0.009038,-0.012929,0.011151,0.030518,0.152588,0.000000
0.725729,-0.208367,-0.629291,10.072853,0.002937,-0.008139,0.019534,0.030518,0.152588,0.000000
0.735794,-0.204774,-0.622106,10.064471,0.006529,-0.000954,0.011151,0.061035,0.152588,0.000000
0.745858,-0.206570,-0.620909,10.057885,0.004733,0.000244,0.004565,0.091553,0.152588,0.030518
0.755922,-0.205972,-0.616119,10.062675,0.005332,0.005034,0.009355,0.122070,0.122070,0.091553
0.765995,-0.219144,-0.619711,10.069860,-0.007841,0.001442,0.016540,0.091553,0.122070,0.091553
0.776061,-0.231718,-0.622705,10.066866,-0.020415,-0.001552,0.013546,0.061035,0.091553,0.091553
0.786191,-0.235311,-0.619113,10.066866,-0.024007,0.002040,0.013546,0.061035,0.091553,0.091553
0.796266,-0.243094,-0.614323,10.064471,-0.031791,0.006830,0.011151,0.061035,0.091553,0.091553
0.806332,-0.236508,-0.608934,10.056088,-0.025205,0.012219,0.002768,0.061035,0.061035,0.061035
0.816398,-0.223336,-0.603545,10.064471,-0.012032,0.017608,0.011151,0.061035,0.030518,0.061035
0.826471,-0.211959,-0.604144,10.063273,-0.000656,0.017009,0.009954,0.030518,0.061035,0.030518
0.836537,-0.199984,-0.610131,10.060280,0.011319,0.011022,0.006960,0.000000,0.030518,0.061035
0.846602,-0.193398,-0.614921,10.053094,0.017906,0.006232,-0.000225,0.000000,0.030518,0.030518
0.856668,-0.185614,-0.620909,10.054891,0.025690,0.000244,0.001571,0.030518,0.000000,0.030518
0.866733,-0.185015,-0.628094,10.053693,0.026288,-0.006941,0.000373,0.000000,0.030518,0.030518
0.876799,-0.186213,-0.633483,10.056687,0.025091,-0.012330,0.003367,0.030518,0.061035,0.061035
0.886877,-0.200583,-0.644859,10.049502,0.010721,-0.023706,-0.003818,0.030518,0.061035,0.061035
0.896949,-0.205373,-0.650248,10.047706,0.005931,-0.029095,-0.005614,0.030518,0.061035,0.091553
0.907014,-0.217947,-0.657433,10.044712,-0.006643,-0.036280,-0.008608,0.030518,0.030518,0.091553
0.917085,-0.218546,-0.652044,10.047107,-0.007242,-0.030891,-0.006213,0.061035,0.061035,0.061035
0.927154,-0.220342,-0.646655,10.054891,-0.009038,-0.025502,0.001571,0.030518,0.091553,0.030518
0.937220,-0.223934,-0.634081,10.060280,-0.012631,-0.012929,0.006960,0.061035,0.152588,0.030518
0.947291,-0.222138,-0.624501,10.053693,-0.010834,-0.003349,0.000373,0.091553,0.122070,0.000000
0.957359,-0.212558,-0.604742,10.056088,-0.001254,0.016410,0.002768,0.091553,0.091553,-0.030518
0.967423,-0.203577,-0.602347,10.062076,0.007727,0.018805,0.008756,0.091553,0.122070,0.000000
0.977490,-0.199385,-0.592767,10.074051,0.011918,0.028385,0.020731,0.061035,0.091553,0.030518
0.987555,-0.193997,-0.588576,10.074051,0.017307,0.032577,0.020731,0.061035,0.061035,0.000000
0.997621,-0.195194,-0.588576,10.072255,0.016110,0.032577,0.018935,0.030518,0.061035,0.061035
1.007688,-0.215552,-0.600551,10.065070,-0.004248,0.020602,0.011750,0.061035,0.091553,0.091553
1.017761,-0.221539,-0.611329,10.060878,-0.010236,0.009824,0.007559,0.061035,0.091553,0.061035
1.027826,-0.228126,-0.624501,10.063872,-0.016822,-0.003349,0.010552,0.061035,0.091553,0.061035
1.037897,-0.224533,-0.643661,10.056687,-0.013229,-0.022509,0.003367,0.122070,0.122070,0.091553
1.047962,-0.223336,-0.647254,10.059681,-0.012032,-0.026101,0.006361,0.091553,0.122070,0.061035
1.058028,-0.225132,-0.644260,10.042916,-0.013828,-0.023107,-0.010404,0.091553,0.091553,0.030518
1.068093,-0.212558,-0.637075,10.044712,-0.001254,-0.015922,-0.008608,0.061035,0.091553,-0.030518
1.078165,-0.203577,-0.634680,10.056687,0.007727,-0.013527,0.003367,0.091553,0.091553,-0.030518
1.088231,-0.191003,-0.623304,10.051298,0.020301,-0.002151,-0.002022,0.061035,0.091553,0.000000
1.098297,-0.195194,-0.613724,10.044113,0.016110,0.007429,-0.009207,0.091553,0.061035,0.030518
1.108363,-0.200583,-0.605940,10.045311,0.010721,0.015213,-0.008009,0.061035,0.091553,0.061035
1.122924,-0.202379,-0.592169,10.054292,0.008924,0.028984,0.000972,0.091553,0.061035,0.091553
1.133018,-0.215552,-0.596959,10.066267,-0.004248,0.024194,0.012947,0.091553,0.091553,0.091553
1.143091,-0.228724,-0.595761,10.064471,-0.017421,0.025392,0.011151,0.091553,0.122070,0.061035
1.153158,-0.227527,-0.610131,10.062675,-0.016223,0.011022,0.009355,0.091553,0.091553,0.091553
1.163225,-0.235311,-0.611927,10.060878,-0.024007,0.009225,0.007559,0.091553,0.061035,0.091553
1.173292,-0.234712,-0.611329,10.070458,-0.023408,0.009824,0.017139,0.030518,0.061035,0.061035
1.183358,-0.235909,-0.606539,10.061477,-0.024606,0.014614,0.008157,0.000000,0.091553,0.061035
1.193425,-0.231718,-0.610131,10.056088,-0.020415,0.011022,0.002768,0.000000,0.091553,0.030518
1.203498,-0.216151,-0.620310,10.046508,-0.004847,0.000843,-0.006812,0.030518,0.091553,0.030518
1.213564,-0.207768,-0.625100,10.045909,0.003536,-0.003947,-0.007410,0.000000,0.091553,0.000000
1.223630,-0.192799,-0.635279,10.047107,0.018505,-0.014126,-0.006213,0.030518,0.091553,0.000000
1.233696,-0.181423,-0.640069,10.047107,0.029881,-0.018916,-0.006213,0.030518,0.122070,0.030518
1.243762,-0.179626,-0.644260,10.043514,0.031677,-0.023107,-0.009805,0.000000,0.091553,0.030518
1.253829,-0.183219,-0.646057,10.044113,0.028085,-0.024904,-0.009207,0.000000,0.122070,0.061035
1.263896,-0.188608,-0.641865,10.041119,0.022696,-0.020712,-0.012200,0.030518,0.091553,0.061035
1.273962,-0.195793,-0.635878,10.045311,0.015511,-0.014725,-0.008009,0.030518,0.061035,0.061035
1.284028,-0.199385,-0.632884,10.049502,0.011918,-0.011731,-0.003818,0.061035,0.091553,0.030518
1.294094,-0.198188,-0.616718,10.047706,0.013116,0.004435,-0.005614,0.061035,0.091553,0.061035
1.304160,-0.195793,-0.611927,10.049502,0.015511,0.009225,-0.003818,0.091553,0.061035,0.061035
1.314226,-0.195793,-0.604742,10.048903,0.015511,0.016410,-0.004417,0.061035,0.030518,0.061035
1.324294,-0.208367,-0.595162,10.061477,0.002937,0.025990,0.008157,0.061035,0.061035,0.061035
1.334360,-0.209564,-0.592767,10.061477,0.001739,0.028385,0.008157,0.030518,0.091553,0.061035
1.344426,-0.216749,-0.589175,10.064471,-0.005446,0.031978,0.011151,0.030518,0.091553,0.091553
1.354493,-0.225132,-0.598156,10.058483,-0.013828,0.022997,0.005164,0.061035,0.091553,0.061035
1.364559,-0.225132,-0.607137,10.060280,-0.013828,0.014015,0.006960,0.091553,0.061035,0.061035
1.374628,-0.202379,-0.618514,10.063273,0.008924,0.002639,0.009954,0.061035,0.061035,0.061035
1.384695,-0.233514,-0.623903,10.065070,-0.022211,-0.002750,0.011750,0.091553,0.061035,0.061035
1.394760,-0.230521,-0.629890,10.048903,-0.019217,-0.008737,-0.004417,0.122070,0.091553,0.091553
1.404830,-0.206570,-0.620310,10.054292,0.004733,0.000843,0.000972,0.122070,0.122070,0.030518
1.414896,-0.198188,-0.626298,10.069261,0.013116,-0.005145,0.015941,0.122070,0.122070,0.000000
1.424963,-0.191602,-0.625100,10.068063,0.019702,-0.003947,0.014744,0.122070,0.061035,0.030518
1.435028,-0.185015,-0.611329,10.057885,0.026288,0.009824,0.004565,0.091553,0.091553,0.030518
1.445095,-0.193398,-0.601749,10.060878,0.017906,0.019404,0.007559,0.061035,0.091553,0.030518
1.455159,-0.199984,-0.596360,10.051298,0.011319,0.024793,-0.002022,0.061035,0.091553,0.030518
1.465259,-0.207169,-0.596360,10.051897,0.004134,0.024793,-0.001423,0.061035,0.091553,0.061035
1.475358,-0.213755,-0.598156,10.056687,-0.002452,0.022997,0.003367,0.030518,0.091553,0.061035
1.485431,-0.223934,-0.605940,10.059082,-0.012631,0.015213,0.005762,0.030518,0.091553,0.061035
1.495495,-0.222737,-0.617915,10.051897,-0.011433,0.003238,-0.001423,0.061035,0.122070,0.030518
1.505559,-0.217348,-0.623903,10.054292,-0.006044,-0.002750,0.000972,0.061035,0.122070,0.061035
1.515623,-0.219144,-0.617915,10.061477,-0.007841,0.003238,0.008157,0.061035,0.122070,0.061035
1.525688,-0.210762,-0.625699,10.065070,0.000542,-0.004546,0.011750,0.061035,0.122070,0.030518
1.535753,-0.198787,-0.628094,10.058483,0.012517,-0.006941,0.005164,0.061035,0.091553,0.000000
1.545818,-0.195793,-0.622705,10.059681,0.015511,-0.001552,0.006361,0.061035,0.122070,0.030518
1.555883,-0.188608,-0.633483,10.053693,0.022696,-0.012330,0.000373,0.030518,0.091553,0.061035
1.565948,-0.188608,-0.631088,10.053094,0.022696,-0.009935,-0.000225,0.030518,0.091553,0.091553
1.576013,-0.204774,-0.635878,10.063273,0.006529,-0.014725,0.009954,0.030518,0.122070,0.091553
1.586077,-0.210163,-0.638273,10.059082,0.001141,-0.017120,0.005762,0.030518,0.122070,0.091553
1.596146,-0.225132,-0.640668,10.049502,-0.013828,-0.019515,-0.003818,0.091553,0.122070,0.061035
1.606364,-0.232916,-0.634680,10.050699,-0.021612,-0.013527,-0.002620,0.061035,0.122070,0.091553
1.616431,-0.241897,-0.632884,10.054292,-0.030593,-0.011731,0.000972,0.061035,0.152588,0.061035
1.626499,-0.246088,-0.626298,10.059082,-0.034785,-0.005145,0.005762,0.061035,0.122070,0.030518
1.636568,-0.240101,-0.622705,10.057286,-0.028797,-0.001552,0.003966,0.091553,0.122070,0.030518
1.646636,-0.225731,-0.622106,10.051897,-0.014427,-0.000954,-0.001423,0.091553,0.122070,0.000000
1.656704,-0.216151,-0.622705,10.050101,-0.004847,-0.001552,-0.003219,0.091553,0.122070,0.030518
1.666770,-0.210163,-0.625100,10.051897,0.001141,-0.003947,-0.001423,0.030518,0.122070,0.030518
1.676835,-0.205972,-0.626298,10.054891,0.005332,-0.005145,0.001571,0.030518,0.091553,0.030518
1.686901,-0.202379,-0.632884,10.053094,0.008924,-0.011731,-0.000225,0.030518,0.152588,0.030518
1.696965,-0.204774,-0.636476,10.054292,0.006529,-0.015324,0.000972,0.061035,0.122070,0.061035
1.707031,-0.210163,-0.643063,10.053693,0.001141,-0.021910,0.000373,0.091553,0.122070,0.030518
1.717096,-0.205972,-0.644260,10.055490,0.005332,-0.023107,0.002170,0.091553,0.091553,0.030518
1.727161,-0.203577,-0.640668,10.059681,0.007727,-0.019515,0.006361,0.091553,0.122070,0.000000
1.737227,-0.208367,-0.628094,10.057286,0.002937,-0.006941,0.003966,0.122070,0.122070,-0.030518
1.747291,-0.210762,-0.620909,10.054292,0.000542,0.000244,0.000972,0.152588,0.122070,-0.030518
1.757356,-0.207768,-0.611329,10.054891,0.003536,0.009824,0.001571,0.091553,0.122070,0.000000
1.767420,-0.212558,-0.595761,10.063872,-0.001254,0.025392,0.010552,0.061035,0.091553,0.030518
1.777485,-0.215552,-0.592767,10.066267,-0.004248,0.028385,0.012947,0.091553,0.091553,0.061035
1.787559,-0.222737,-0.592169,10.068063,-0.011433,0.028984,0.014744,0.091553,0.091553,0.061035
1.797626,-0.231718,-0.599354,10.066267,-0.020415,0.021799,0.012947,0.091553,0.122070,0.061035
1.807692,-0.229323,-0.599952,10.058483,-0.018020,0.021200,0.005164,0.061035,0.122070,0.061035
1.817757,-0.238304,-0.611329,10.066267,-0.027001,0.009824,0.012947,0.030518,0.152588,0.061035
1.827822,-0.237706,-0.611927,10.065668,-0.026402,0.009225,0.012349,0.030518,0.122070,0.061035
1.837887,-0.237107,-0.615520,10.056687,-0.025803,0.005633,0.003367,0.000000,0.152588,0.030518
1.847952,-0.234712,-0.631088,10.053094,-0.023408,-0.009935,-0.000225,0.030518,0.122070,0.030518
1.858017,-0.222138,-0.629291,10.043514,-0.010834,-0.008139,-0.009805,0.030518,0.122070,0.030518
1.868082,-0.217348,-0.622106,10.050699,-0.006044,-0.000954,-0.002620,0.030518,0.122070,0.000000
1.878148,-0.207169,-0.620909,10.058483,0.004134,0.000244,0.005164,0.030518,0.091553,0.000000
1.888215,-0.189805,-0.624501,10.056687,0.021498,-0.003349,0.003367,0.030518,0.091553,0.000000
1.898282,-0.183219,-0.621508,10.058483,0.028085,-0.000355,0.005164,0.061035,0.122070,0.030518
1.908347,-0.186812,-0.630489,10.055490,0.024492,-0.009336,0.002170,0.061035,0.091553,0.061035
1.918412,-0.193398,-0.632884,10.062675,0.017906,-0.011731,0.009355,0.061035,0.061035,0.091553
1.928476,-0.201780,-0.632285,10.059681,0.009523,-0.011132,0.006361,0.061035,0.061035,0.122070
1.938541,-0.208367,-0.634081,10.060280,0.002937,-0.012929,0.006960,0.091553,0.061035,0.122070
1.948607,-0.209564,-0.637075,10.055490,0.001739,-0.015922,0.002170,0.061035,0.061035,0.061035
1.958671,-0.213157,-0.629291,10.048304,-0.001853,-0.008139,-0.005015,0.061035,0.061035,0.061035
1.968737,-0.216749,-0.630489,10.051897,-0.005446,-0.009336,-0.001423,0.061035,0.091553,0.000000
1.978808,-0.215552,-0.617316,10.062076,-0.004248,0.003837,0.008756,0.091553,0.122070,0.000000
1.988879,-0.221539,-0.619113,10.060878,-0.010236,0.002040,0.007559,0.030518,0.091553,0.030518
1.998945,-0.221539,-0.607736,10.055490,-0.010236,0.013417,0.002170,0.000000,0.091553,0.061035
2.009012,-0.220941,-0.608934,10.056687,-0.009637,0.012219,0.003367,0.030518,0.091553,0.030518
2.019076,-0.222737,-0.610730,10.053693,-0.011433,0.010423,0.000373,0.030518,0.091553,0.061035
2.029141,-0.221539,-0.616119,10.060878,-0.010236,0.005034,0.007559,0.000000,0.061035,0.061035
2.039207,-0.229922,-0.626298,10.063872,-0.018618,-0.005145,0.010552,0.000000,0.061035,0.061035
2.049272,-0.228126,-0.629291,10.052496,-0.016822,-0.008139,-0.000824,0.030518,0.091553,0.061035
2.059336,-0.228724,-0.635279,10.052496,-0.017421,-0.014126,-0.000824,0.030518,0.091553,0.091553
2.069402,-0.234113,-0.644859,10.063273,-0.022810,-0.023706,0.009954,0.000000,0.091553,0.091553
2.079468,-0.226928,-0.649649,10.059681,-0.015625,-0.028496,0.006361,0.030518,0.091553,0.091553
2.089535,-0.225731,-0.643661,10.055490,-0.014427,-0.022509,0.002170,0.030518,0.091553,0.091553
2.099599,-0.220342,-0.655038,10.048903,-0.009038,-0.033885,-0.004417,0.030518,0.122070,0.091553
2.109665,-0.216151,-0.653840,10.052496,-0.004847,-0.032688,-0.000824,0.061035,0.122070,0.091553
2.119731,-0.207169,-0.644859,10.056088,0.004134,-0.023706,0.002768,0.061035,0.122070,0.061035
2.129797,-0.198188,-0.640069,10.056088,0.013116,-0.018916,0.002768,0.122070,0.091553,0.061035
2.139862,-0.189805,-0.632884,10.046508,0.021498,-0.011731,-0.006812,0.091553,0.122070,0.061035
2.149927,-0.192200,-0.639470,10.048903,0.019103,-0.018317,-0.004417,0.061035,0.091553,0.061035
2.159993,-0.196392,-0.636476,10.044113,0.014912,-0.015324,-0.009207,0.061035,0.122070,0.061035
2.170059,-0.197589,-0.641865,10.042916,0.013714,-0.020712,-0.010404,0.030518,0.122070,0.091553
2.180124,-0.199984,-0.622106,10.056088,0.011319,-0.000954,0.002768,0.030518,0.091553,0.091553
2.190189,-0.216151,-0.621508,10.064471,-0.004847,-0.000355,0.011151,0.030518,0.091553,0.091553
2.200255,-0.228126,-0.620310,10.059082,-0.016822,0.000843,0.005762,0.030518,0.122070,0.030518
2.210320,-0.220342,-0.616718,10.067465,-0.009038,0.004435,0.014145,0.061035,0.122070,0.030518
2.220385,-0.215552,-0.613125,10.066267,-0.004248,0.008028,0.012947,0.091553,0.152588,0.030518
2.230450,-0.222138,-0.611329,10.070458,-0.010834,0.009824,0.017139,0.091553,0.122070,0.061035
2.240516,-0.219144,-0.603545,10.067465,-0.007841,0.017608,0.014145,0.091553,0.122070,0.030518
2.250581,-0.226928,-0.598156,10.068662,-0.015625,0.022997,0.015342,0.091553,0.091553,0.061035
2.260647,-0.218546,-0.606539,10.066267,-0.007242,0.014614,0.012947,0.061035,0.030518,0.061035
2.270721,-0.214953,-0.605940,10.074051,-0.003649,0.015213,0.020731,0.030518,0.061035,0.061035
2.280824,-0.221539,-0.619113,10.078841,-0.010236,0.002040,0.025521,0.061035,0.061035,0.030518
2.290911,-0.222138,-0.617316,10.072853,-0.010834,0.003837,0.019534,0.061035,0.091553,0.000000
2.300996,-0.227527,-0.622106,10.068063,-0.016223,-0.000954,0.014744,0.061035,0.061035,0.030518
2.311084,-0.231119,-0.628693,10.060280,-0.019816,-0.007540,0.006960,0.030518,0.122070,0.000000
2.321151,-0.229323,-0.627495,10.065070,-0.018020,-0.006342,0.011750,0.030518,0.091553,-0.030518
2.331218,-0.234113,-0.620310,10.068063,-0.022810,0.000843,0.014744,0.061035,0.091553,0.000000
2.341283,-0.225132,-0.620310,10.065668,-0.013828,0.000843,0.012349,0.030518,0.061035,0.000000
2.351349,-0.229323,-0.619711,10.060280,-0.018020,0.001442,0.006960,0.061035,0.061035,0.030518
2.361415,-0.225132,-0.609532,10.062076,-0.013828,0.011620,0.008756,0.061035,0.061035,0.030518
2.371480,-0.219144,-0.611927,10.063872,-0.007841,0.009225,0.010552,0.091553,0.091553,0.091553
2.381565,-0.218546,-0.613125,10.059681,-0.007242,0.008028,0.006361,0.091553,0.091553,0.091553
2.391632,-0.224533,-0.619711,10.061477,-0.013229,0.001442,0.008157,0.091553,0.122070,0.091553
2.401697,-0.225731,-0.628094,10.052496,-0.014427,-0.006941,-0.000824,0.091553,0.122070,0.091553
2.411767,-0.227527,-0.637075,10.055490,-0.016223,-0.015922,0.002170,0.091553,0.061035,0.061035
2.421837,-0.225731,-0.639470,10.071656,-0.014427,-0.018317,0.018336,0.122070,0.091553,0.061035
2.431902,-0.212558,-0.640668,10.070458,-0.001254,-0.019515,0.017139,0.091553,0.122070,0.061035
2.441969,-0.213755,-0.646057,10.056088,-0.002452,-0.024904,0.002768,0.091553,0.091553,0.061035
2.452043,-0.207768,-0.645458,10.053094,0.003536,-0.024305,-0.000225,0.122070,0.061035,0.061035
2.462190,-0.200583,-0.643063,10.051298,0.010721,-0.021910,-0.002022,0.122070,0.091553,0.061035
2.472257,-0.193398,-0.633483,10.060280,0.017906,-0.012330,0.006960,0.091553,0.091553,0.061035
2.482324,-0.192200,-0.631686,10.062076,0.019103,-0.010534,0.008756,0.061035,0.091553,0.030518
2.492392,-0.193398,-0.614921,10.063273,0.017906,0.006232,0.009954,0.061035,0.122070,0.030518
2.502456,-0.197589,-0.611927,10.059082,0.013714,0.009225,0.005762,0.091553,0.122070,0.091553
2.512522,-0.202379,-0.611329,10.057286,0.008924,0.009824,0.003966,0.091553,0.122070,0.061035
2.522588,-0.205972,-0.610131,10.060878,0.005332,0.011022,0.007559,0.122070,0.122070,0.061035
2.532655,-0.213157,-0.611329,10.061477,-0.001853,0.009824,0.008157,0.091553,0.122070,0.061035
2.542725,-0.220941,-0.613125,10.056687,-0.009637,0.008028,0.003367,0.061035,0.091553,0.061035
2.552792,-0.225731,-0.612526,10.058483,-0.014427,0.008627,0.005164,0.061035,0.091553,0.091553
2.562908,-0.225731,-0.616718,10.063273,-0.014427,0.004435,0.009954,0.061035,0.091553,0.061035
2.573006,-0.224533,-0.617316,10.071057,-0.013229,0.003837,0.017737,0.061035,0.091553,0.030518
2.583102,-0.214953,-0.622705,10.056088,-0.003649,-0.001552,0.002768,0.061035,0.091553,0.030518
2.593200,-0.213755,-0.626298,10.056687,-0.002452,-0.005145,0.003367,0.061035,0.061035,0.030518
2.603298,-0.214953,-0.629291,10.054292,-0.003649,-0.008139,0.000972,0.061035,0.091553,0.000000
2.613394,-0.205972,-0.634081,10.056687,0.005332,-0.012929,0.003367,0.030518,0.152588,0.030518
2.623488,-0.202379,-0.636476,10.063872,0.008924,-0.015324,0.010552,0.122070,0.122070,0.030518
2.633579,-0.198787,-0.632285,10.060280,0.012517,-0.011132,0.006960,0.122070,0.152588,0.061035
2.643673,-0.196392,-0.638273,10.059681,0.014912,-0.017120,0.006361,0.122070,0.122070,0.030518
2.653770,-0.204774,-0.632285,10.050101,0.006529,-0.011132,-0.003219,0.091553,0.091553,0.061035
2.663962,-0.208965,-0.625699,10.049502,0.002338,-0.004546,-0.003818,0.091553,0.122070,0.061035
2.674052,-0.214354,-0.621508,10.055490,-0.003051,-0.000355,0.002170,0.061035,0.122070,0.030518
2.684143,-0.220941,-0.611927,10.057286,-0.009637,0.009225,0.003966,0.061035,0.122070,0.061035
2.694232,-0.223934,-0.607736,10.060280,-0.012631,0.013417,0.006960,0.091553,0.152588,0.000000
2.704323,-0.219144,-0.602347,10.051897,-0.007841,0.018805,-0.001423,0.091553,0.152588,0.030518
2.714412,-0.216151,-0.604742,10.053094,-0.004847,0.016410,-0.000225,0.030518,0.091553,0.030518
2.724502,-0.214354,-0.617915,10.065668,-0.003051,0.003238,0.012349,0.000000,0.091553,0.061035
2.734592,-0.213157,-0.620909,10.060878,-0.001853,0.000244,0.007559,0.061035,0.061035,0.091553
2.744683,-0.218546,-0.620909,10.057885,-0.007242,0.000244,0.004565,0.061035,0.061035,0.061035
2.754773,-0.220941,-0.622705,10.056687,-0.009637,-0.001552,0.003367,0.061035,0.061035,0.061035
2.764985,-0.220342,-0.627495,10.056687,-0.009038,-0.006342,0.003367,0.091553,0.061035,0.061035
2.775081,-0.222138,-0.637674,10.057885,-0.010834,-0.016521,0.004565,0.061035,0.091553,0.030518
2.785211,-0.213755,-0.640069,10.061477,-0.002452,-0.018916,0.008157,0.061035,0.091553,0.061035
2.795303,-0.218546,-0.641865,10.053693,-0.007242,-0.020712,0.000373,0.061035,0.091553,0.061035
2.805400,-0.213755,-0.644260,10.048304,-0.002452,-0.023107,-0.005015,0.061035,0.122070,0.061035
2.815493,-0.211959,-0.629291,10.051897,-0.000656,-0.008139,-0.001423,0.091553,0.122070,0.061035
2.825589,-0.215552,-0.620310,10.053094,-0.004248,0.000843,-0.000225,0.091553,0.091553,0.061035
2.835705,-0.215552,-0.619711,10.048304,-0.004248,0.001442,-0.005015,0.091553,0.152588,0.061035
2.845801,-0.216151,-0.611927,10.047706,-0.004847,0.009225,-0.005614,0.091553,0.152588,0.030518
2.855896,-0.217348,-0.607137,10.052496,-0.006044,0.014015,-0.000824,0.030518,0.122070,0.061035
2.865989,-0.219743,-0.616119,10.061477,-0.008439,0.005034,0.008157,0.030518,0.091553,0.061035
2.876076,-0.222737,-0.617915,10.059681,-0.011433,0.003238,0.006361,0.030518,0.061035,0.061035
2.886165,-0.219144,-0.622106,10.055490,-0.007841,-0.000954,0.002170,0.000000,0.061035,0.091553
2.896251,-0.214953,-0.629291,10.054891,-0.003649,-0.008139,0.001571,0.030518,0.061035,0.091553
2.906343,-0.213157,-0.625699,10.048903,-0.001853,-0.004546,-0.004417,0.061035,0.122070,0.061035
2.916435,-0.207169,-0.623903,10.051897,0.004134,-0.002750,-0.001423,0.030518,0.122070,0.030518
2.926523,-0.210163,-0.625100,10.053094,0.001141,-0.003947,-0.000225,0.030518,0.091553,0.030518
2.936611,-0.199984,-0.623903,10.051298,0.011319,-0.002750,-0.002022,0.061035,0.091553,0.061035
2.946698,-0.202978,-0.616718,10.045311,0.008326,0.004435,-0.008009,0.061035,0.061035,0.091553
2.956784,-0.204774,-0.621508,10.047706,0.006529,-0.000355,-0.005614,0.061035,0.030518,0.091553
2.966871,-0.208965,-0.626298,10.054292,0.002338,-0.005145,0.000972,0.061035,0.061035,0.091553
2.976958,-0.208965,-0.622106,10.059082,0.002338,-0.000954,0.005762,0.030518,0.091553,0.091553
2.987044,-0.215552,-0.625699,10.060280,-0.004248,-0.004546,0.006960,0.030518,0.091553,0.091553
2.997134,-0.225731,-0.625699,10.055490,-0.014427,-0.004546,0.002170,0.030518,0.061035,0.091553
3.007220,-0.228724,-0.619113,10.057286,-0.017421,0.002040,0.003966,0.030518,0.091553,0.091553
3.017309,-0.228126,-0.617316,10.059082,-0.016822,0.003837,0.005762,0.030518,0.061035,0.091553
3.027395,-0.214953,-0.618514,10.053094,-0.003649,0.002639,-0.000225,0.030518,0.061035,0.091553
3.037483,-0.203577,-0.609532,10.056088,0.007727,0.011620,0.002768,0.030518,0.061035,0.091553
3.047569,-0.199385,-0.604144,10.048304,0.011918,0.017009,-0.005015,0.030518,0.061035,0.061035
3.057657,-0.205373,-0.610730,10.044712,0.005931,0.010423,-0.008608,0.030518,0.061035,0.061035
3.067743,-0.207768,-0.612526,10.045311,0.003536,0.008627,-0.008009,0.030518,0.061035,0.091553
3.077838,-0.208965,-0.622106,10.048304,0.002338,-0.000954,-0.005015,0.000000,0.030518,0.091553
3.087934,-0.211360,-0.623304,10.048903,-0.000057,-0.002151,-0.004417,0.030518,0.030518,0.091553
3.098027,-0.217947,-0.630489,10.048903,-0.006643,-0.009336,-0.004417,0.091553,0.061035,0.091553
3.108119,-0.217947,-0.621508,10.042916,-0.006643,-0.000355,-0.010404,0.091553,0.061035,0.091553
3.118214,-0.225731,-0.626298,10.052496,-0.014427,-0.005145,-0.000824,0.030518,0.091553,0.091553
3.128310,-0.224533,-0.625699,10.056687,-0.013229,-0.004546,0.003367,0.030518,0.091553,0.061035
3.138404,-0.226928,-0.619113,10.056687,-0.015625,0.002040,0.003367,0.000000,0.091553,0.091553
3.148498,-0.219743,-0.618514,10.061477,-0.008439,0.002639,0.008157,0.030518,0.122070,0.061035
3.158589,-0.216749,-0.614323,10.056687,-0.005446,0.006830,0.003367,0.000000,0.091553,0.061035
3.168684,-0.209564,-0.601749,10.063273,0.001739,0.019404,0.009954,0.000000,0.091553,0.061035
3.178770,-0.214354,-0.602347,10.065070,-0.003051,0.018805,0.011750,0.061035,0.091553,0.030518
3.188859,-0.209564,-0.602347,10.062076,0.001739,0.018805,0.008756,0.061035,0.091553,0.030518
3.198946,-0.210762,-0.604144,10.066267,0.000542,0.017009,0.012947,0.061035,0.091553,0.030518
3.209033,-0.213157,-0.608335,10.062675,-0.001853,0.012818,0.009355,0.061035,0.091553,0.030518
3.219120,-0.216749,-0.620909,10.052496,-0.005446,0.000244,-0.000824,0.061035,0.061035,0.030518
3.229208,-0.216749,-0.619113,10.056088,-0.005446,0.002040,0.002768,0.061035,0.061035,0.000000
3.239295,-0.220342,-0.623903,10.054292,-0.009038,-0.002750,0.000972,0.061035,0.061035,0.061035
3.249383,-0.219743,-0.623304,10.049502,-0.008439,-0.002151,-0.003818,0.061035,0.091553,0.030518
3.259469,-0.226928,-0.617316,10.055490,-0.015625,0.003837,0.002170,0.061035,0.091553,0.030518
3.269639,-0.228126,-0.606539,10.059681,-0.016822,0.014614,0.006361,0.061035,0.061035,0.000000
3.279732,-0.220941,-0.606539,10.061477,-0.009637,0.014614,0.008157,0.030518,0.061035,0.000000
3.289825,-0.213157,-0.610131,10.057286,-0.001853,0.011022,0.003966,0.030518,0.061035,0.000000
3.299918,-0.210163,-0.616119,10.056088,0.001141,0.005034,0.002768,0.061035,0.061035,0.061035
3.310013,-0.202978,-0.632884,10.053094,0.008326,-0.011731,-0.000225,0.061035,0.061035,0.061035
3.320109,-0.204774,-0.636476,10.058483,0.006529,-0.015324,0.005164,0.030518,0.122070,0.030518
3.330205,-0.197589,-0.635279,10.054292,0.013714,-0.014126,0.000972,0.061035,0.122070,0.030518
3.340300,-0.195793,-0.636476,10.054292,0.015511,-0.015324,0.000972,0.061035,0.091553,0.000000
3.350397,-0.197589,-0.631088,10.054292,0.013714,-0.009935,0.000972,0.061035,0.091553,0.000000
3.360489,-0.195194,-0.625100,10.051897,0.016110,-0.003947,-0.001423,0.091553,0.091553,0.000000
3.370660,-0.196990,-0.619113,10.054292,0.014313,0.002040,0.000972,0.061035,0.091553,0.000000
3.380749,-0.198787,-0.617915,10.050699,0.012517,0.003238,-0.002620,0.122070,0.091553,0.030518
3.390839,-0.205373,-0.614921,10.047107,0.005931,0.006232,-0.006213,0.091553,0.122070,0.091553
3.400928,-0.218546,-0.612526,10.050101,-0.007242,0.008627,-0.003219,0.091553,0.091553,0.061035
3.411018,-0.223336,-0.608934,10.047706,-0.012032,0.012219,-0.005614,0.061035,0.152588,0.091553
3.421109,-0.232317,-0.604144,10.065668,-0.021013,0.017009,0.012349,0.061035,0.152588,0.030518
3.431198,-0.238304,-0.613125,10.062675,-0.027001,0.008028,0.009355,0.030518,0.152588,0.030518
3.441288,-0.239502,-0.615520,10.062076,-0.028198,0.005633,0.008756,0.061035,0.122070,0.030518
3.451378,-0.226329,-0.638273,10.052496,-0.015026,-0.017120,-0.000824,0.030518,0.152588,0.030518
3.461469,-0.225731,-0.633483,10.048903,-0.014427,-0.012330,-0.004417,0.030518,0.122070,0.030518
3.471586,-0.211959,-0.630489,10.052496,-0.000656,-0.009336,-0.000824,0.061035,0.122070,0.000000
3.481677,-0.205373,-0.628094,10.051298,0.005931,-0.006941,-0.002022,0.061035,0.091553,0.030518
3.491766,-0.191602,-0.619113,10.050699,0.019702,0.002040,-0.002620,0.091553,0.091553,0.030518
3.501854,-0.191602,-0.619711,10.049502,0.019702,0.001442,-0.003818,0.091553,0.091553,0.030518
3.511945,-0.191602,-0.618514,10.054292,0.019702,0.002639,0.000972,0.122070,0.091553,0.061035
3.522036,-0.204774,-0.610730,10.059082,0.006529,0.010423,0.005762,0.091553,0.091553,0.030518
3.532126,-0.207169,-0.610131,10.066866,0.004134,0.011022,0.013546,0.091553,0.091553,0.061035
3.542215,-0.222737,-0.613125,10.053693,-0.011433,0.008028,0.000373,0.091553,0.091553,0.061035
3.552302,-0.224533,-0.614323,10.048903,-0.013229,0.006830,-0.004417,0.091553,0.061035,0.030518
3.562392,-0.231718,-0.620909,10.051897,-0.020415,0.000244,-0.001423,0.091553,0.061035,0.000000
3.572570,-0.231119,-0.622106,10.058483,-0.019816,-0.000954,0.005164,0.030518,0.061035,0.030518
3.582677,-0.228126,-0.620909,10.057885,-0.016822,0.000244,0.004565,0.030518,0.061035,0.000000
3.592775,-0.222737,-0.626896,10.054292,-0.011433,-0.005744,0.000972,0.030518,0.061035,0.000000
3.602872,-0.216749,-0.623304,10.059082,-0.005446,-0.002151,0.005762,0.061035,0.030518,0.000000
3.612965,-0.207169,-0.631088,10.057885,0.004134,-0.009935,0.004565,0.030518,0.061035,0.030518
3.623057,-0.206570,-0.628693,10.056687,0.004733,-0.007540,0.003367,0.061035,0.091553,0.091553
3.633154,-0.207169,-0.628693,10.060280,0.004134,-0.007540,0.006960,0.030518,0.091553,0.091553
3.643250,-0.204175,-0.628094,10.060878,0.007128,-0.006941,0.007559,0.091553,0.152588,0.091553
3.653347,-0.201182,-0.620909,10.057885,0.010122,0.000244,0.004565,0.061035,0.183105,0.091553
3.663443,-0.202379,-0.624501,10.059681,0.008924,-0.003349,0.006361,0.061035,0.183105,0.091553
3.673627,-0.212558,-0.626298,10.064471,-0.001254,-0.005145,0.011151,0.091553,0.122070,0.061035
3.683715,-0.219743,-0.625699,10.060280,-0.008439,-0.004546,0.006960,0.061035,0.122070,0.091553
3.693805,-0.219743,-0.624501,10.054292,-0.008439,-0.003349,0.000972,0.091553,0.152588,0.061035
3.703894,-0.226329,-0.619113,10.056088,-0.015026,0.002040,0.002768,0.091553,0.122070,0.061035
3.713984,-0.222737,-0.613125,10.055490,-0.011433,0.008028,0.002170,0.091553,0.122070,0.061035
3.724074,-0.220941,-0.615520,10.060878,-0.009637,0.005633,0.007559,0.061035,0.091553,0.061035
3.734162,-0.215552,-0.615520,10.057286,-0.004248,0.005633,0.003966,0.061035,0.091553,0.061035
3.744251,-0.217348,-0.611329,10.053693,-0.006044,0.009824,0.000373,0.091553,0.061035,0.030518
3.754341,-0.208367,-0.610730,10.048304,0.002937,0.010423,-0.005015,0.030518,0.000000,0.061035
3.764431,-0.210163,-0.612526,10.050101,0.001141,0.008627,-0.003219,0.061035,0.061035,0.061035
3.774601,-0.208965,-0.620310,10.047107,0.002338,0.000843,-0.006213,0.122070,0.061035,0.061035
3.784720,-0.211360,-0.623903,10.045909,-0.000057,-0.002750,-0.007410,0.061035,0.061035,0.030518
3.794816,-0.207768,-0.622106,10.040521,0.003536,-0.000954,-0.012799,0.030518,0.061035,0.000000
3.804913,-0.209564,-0.621508,10.035731,0.001739,-0.000355,-0.017589,0.061035,0.091553,0.030518
3.815009,-0.210762,-0.631088,10.044712,0.000542,-0.009935,-0.008608,0.030518,0.061035,0.030518
3.825105,-0.211360,-0.630489,10.050101,-0.000057,-0.009336,-0.003219,0.061035,0.061035,0.030518
3.835226,-0.208965,-0.622705,10.050101,0.002338,-0.001552,-0.003219,0.030518,0.091553,0.000000
3.845324,-0.214354,-0.620909,10.039323,-0.003051,0.000244,-0.013997,0.061035,0.091553,0.000000
3.855421,-0.217947,-0.620310,10.039922,-0.006643,0.000843,-0.013398,0.061035,0.122070,0.030518
3.865519,-0.223336,-0.619711,10.039922,-0.012032,0.001442,-0.013398,0.061035,0.122070,0.061035
3.875729,-0.223934,-0.624501,10.041718,-0.012631,-0.003349,-0.011602,0.061035,0.122070,0.061035
3.885816,-0.224533,-0.621508,10.039922,-0.013229,-0.000355,-0.013398,0.030518,0.122070,0.061035
3.895906,-0.235311,-0.626298,10.044113,-0.024007,-0.005145,-0.009207,0.091553,0.152588,0.030518
3.905994,-0.227527,-0.631686,10.045909,-0.016223,-0.010534,-0.007410,0.091553,0.091553,0.091553
3.916081,-0.219144,-0.637075,10.053094,-0.007841,-0.015922,-0.000225,0.091553,0.122070,0.061035
3.926169,-0.211959,-0.637075,10.063273,-0.000656,-0.015922,0.009954,0.030518,0.152588,0.000000
3.936256,-0.213157,-0.629890,10.053094,-0.001853,-0.008737,-0.000225,0.030518,0.122070,0.000000
3.946343,-0.207169,-0.630489,10.051298,0.004134,-0.009336,-0.002022,0.030518,0.122070,0.000000
3.956431,-0.205972,-0.625699,10.045311,0.005332,-0.004546,-0.008009,0.061035,0.122070,0.000000
3.966518,-0.207768,-0.623903,10.047107,0.003536,-0.002750,-0.006213,0.061035,0.122070,0.030518
3.976681,-0.212558,-0.622106,10.043514,-0.001254,-0.000954,-0.009805,0.061035,0.122070,0.030518
3.986774,-0.208367,-0.622106,10.044113,0.002937,-0.000954,-0.009207,0.030518,0.122070,0.061035
3.996867,-0.212558,-0.622705,10.041718,-0.001254,-0.001552,-0.011602,0.061035,0.091553,0.091553
4.006960,-0.220941,-0.623903,10.041718,-0.009637,-0.002750,-0.011602,0.061035,0.061035,0.091553
4.017055,-0.222138,-0.616718,10.042916,-0.010834,0.004435,-0.010404,0.122070,0.061035,0.091553
4.027148,-0.230521,-0.620909,10.048304,-0.019217,0.000244,-0.005015,0.091553,0.030518,0.091553
4.037243,-0.231119,-0.622106,10.044712,-0.019816,-0.000954,-0.008608,0.030518,0.030518,0.091553
4.047335,-0.232317,-0.620909,10.047706,-0.021013,0.000244,-0.005614,0.061035,0.030518,0.091553
4.057428,-0.225132,-0.623903,10.044113,-0.013828,-0.002750,-0.009207,0.061035,0.000000,0.091553
4.067520,-0.220342,-0.622705,10.050699,-0.009038,-0.001552,-0.002620,0.061035,0.061035,0.061035
4.077688,-0.211360,-0.617316,10.062076,-0.000057,0.003837,0.008756,0.061035,0.030518,0.091553
4.087777,-0.207768,-0.613724,10.053094,0.003536,0.007429,-0.000225,0.061035,0.061035,0.061035
4.097864,-0.211360,-0.625699,10.044113,-0.000057,-0.004546,-0.009207,0.030518,0.061035,0.091553
4.107951,-0.213157,-0.631686,10.047107,-0.001853,-0.010534,-0.006213,0.030518,0.091553,0.091553
4.118040,-0.213157,-0.631088,10.054891,-0.001853,-0.009935,0.001571,0.030518,0.122070,0.122070
4.128126,-0.219144,-0.636476,10.053693,-0.007841,-0.015324,0.000373,0.061035,0.122070,0.091553
4.138215,-0.218546,-0.639470,10.050699,-0.007242,-0.018317,-0.002620,0.030518,0.091553,0.061035
4.148302,-0.222138,-0.636476,10.030941,-0.010834,-0.015324,-0.022379,0.000000,0.091553,0.061035
4.158391,-0.227527,-0.637674,10.032737,-0.016223,-0.016521,-0.020583,0.061035,0.091553,0.030518
4.168477,-0.223934,-0.637075,10.050101,-0.012631,-0.015922,-0.003219,0.030518,0.122070,0.030518
4.178639,-0.223934,-0.641266,10.051298,-0.012631,-0.020114,-0.002022,0.061035,0.122070,0.061035
4.188735,-0.218546,-0.625100,10.044113,-0.007242,-0.003947,-0.009207,0.030518,0.122070,0.091553
4.198830,-0.216151,-0.626298,10.038126,-0.004847,-0.005145,-0.015194,0.061035,0.122070,0.061035
4.208923,-0.211360,-0.619711,10.039323,-0.000057,0.001442,-0.013997,0.061035,0.122070,0.030518
4.219018,-0.208965,-0.619113,10.047107,0.002338,0.002040,-0.006213,0.091553,0.091553,0.030518
4.229113,-0.213157,-0.616718,10.048304,-0.001853,0.004435,-0.005015,0.091553,0.122070,0.061035
4.239205,-0.216749,-0.610131,10.045909,-0.005446,0.011022,-0.007410,0.091553,0.091553,0.091553
4.249300,-0.211959,-0.608335,10.047107,-0.000656,0.012818,-0.006213,0.091553,0.091553,0.091553
4.259394,-0.216151,-0.610131,10.049502,-0.004847,0.011022,-0.003818,0.061035,0.122070,0.091553
4.269489,-0.219743,-0.617915,10.050699,-0.008439,0.003238,-0.002620,0.061035,0.091553,0.091553
4.279652,-0.216749,-0.629890,10.042916,-0.005446,-0.008737,-0.010404,0.091553,0.122070,0.061035
4.289740,-0.206570,-0.631088,10.039922,0.004733,-0.009935,-0.013398,0.061035,0.152588,0.030518
4.299827,-0.200583,-0.631088,10.037527,0.010721,-0.009935,-0.015793,0.091553,0.152588,0.061035
4.309915,-0.197589,-0.625699,10.039323,0.013714,-0.004546,-0.013997,0.091553,0.152588,0.061035
4.320003,-0.199984,-0.629291,10.043514,0.011319,-0.008139,-0.009805,0.061035,0.152588,0.030518
4.330091,-0.202379,-0.621508,10.051298,0.008924,-0.000355,-0.002022,0.061035,0.122070,0.030518
4.340182,-0.207169,-0.621508,10.045909,0.004134,-0.000355,-0.007410,0.061035,0.152588,0.030518
4.350271,-0.211360,-0.616119,10.043514,-0.000057,0.005034,-0.009805,0.122070,0.152588,0.061035
4.360360,-0.213755,-0.620310,10.045311,-0.002452,0.000843,-0.008009,0.152588,0.152588,0.030518
4.370449,-0.215552,-0.619113,10.046508,-0.004248,0.002040,-0.006812,0.122070,0.122070,0.091553
4.380612,-0.212558,-0.625100,10.046508,-0.001254,-0.003947,-0.006812,0.091553,0.122070,0.091553
4.390708,-0.206570,-0.620909,10.045909,0.004733,0.000244,-0.007410,0.091553,0.122070,0.061035
4.400803,-0.208367,-0.613724,10.050101,0.002937,0.007429,-0.003219,0.091553,0.122070,0.030518
4.410903,-0.208367,-0.617915,10.047107,0.002937,0.003238,-0.006213,0.091553,0.122070,0.000000
4.421001,-0.208367,-0.619711,10.048903,0.002937,0.001442,-0.004417,0.091553,0.122070,0.000000
4.431098,-0.208367,-0.616718,10.048304,0.002937,0.004435,-0.005015,0.061035,0.152588,0.000000
4.441195,-0.212558,-0.611329,10.047107,-0.001254,0.009824,-0.006213,0.030518,0.152588,0.000000
4.451288,-0.214953,-0.623903,10.041718,-0.003649,-0.002750,-0.011602,0.000000,0.152588,0.000000
4.461387,-0.210762,-0.623304,10.042317,0.000542,-0.002151,-0.011003,0.000000,0.122070,0.030518
4.471484,-0.207768,-0.625699,10.050699,0.003536,-0.004546,-0.002620,0.000000,0.091553,0.061035
4.481664,-0.208965,-0.626298,10.049502,0.002338,-0.005145,-0.003818,0.030518,0.091553,0.061035
4.491755,-0.206570,-0.635279,10.053094,0.004733,-0.014126,-0.000225,0.061035,0.091553,0.061035
4.501845,-0.212558,-0.631686,10.050101,-0.001254,-0.010534,-0.003219,0.091553,0.091553,0.030518
4.511937,-0.207169,-0.627495,10.044113,0.004134,-0.006342,-0.009207,0.061035,0.061035,0.061035
4.522027,-0.210163,-0.622705,10.057286,0.001141,-0.001552,0.003966,0.061035,0.091553,0.030518
4.532117,-0.205373,-0.628693,10.052496,0.005931,-0.007540,-0.000824,0.061035,0.061035,0.000000
4.542208,-0.213157,-0.632285,10.036329,-0.001853,-0.011132,-0.016990,0.061035,0.122070,0.000000
4.552299,-0.217348,-0.635279,10.036928,-0.006044,-0.014126,-0.016392,0.061035,0.152588,0.030518
4.562389,-0.225132,-0.631088,10.045909,-0.013828,-0.009935,-0.007410,0.091553,0.152588,0.030518
4.572477,-0.220941,-0.629291,10.047107,-0.009637,-0.008139,-0.006213,0.061035,0.122070,0.061035
4.582652,-0.217947,-0.631088,10.048304,-0.006643,-0.009935,-0.005015,0.091553,0.122070,0.061035
4.592748,-0.214953,-0.624501,10.046508,-0.003649,-0.003349,-0.006812,0.061035,0.122070,0.061035
4.602845,-0.215552,-0.621508,10.045909,-0.004248,-0.000355,-0.007410,0.091553,0.091553,0.030518
4.612941,-0.207768,-0.615520,10.050699,0.003536,0.005633,-0.002620,0.091553,0.091553,0.000000
4.623034,-0.211360,-0.623304,10.059082,-0.000057,-0.002151,0.005762,0.122070,0.091553,0.030518
4.633131,-0.214354,-0.622106,10.053693,-0.003051,-0.000954,0.000373,0.091553,0.122070,0.030518
4.643228,-0.220342,-0.629291,10.059082,-0.009038,-0.008139,0.005762,0.122070,0.122070,0.061035
4.653324,-0.222737,-0.627495,10.052496,-0.011433,-0.006342,-0.000824,0.122070,0.091553,0.091553
4.663421,-0.220342,-0.629890,10.059681,-0.009038,-0.008737,0.006361,0.091553,0.091553,0.091553
4.673517,-0.217947,-0.632285,10.056088,-0.006643,-0.011132,0.002768,0.061035,0.061035,0.030518
4.683696,-0.204774,-0.632285,10.048304,0.006529,-0.011132,-0.005015,0.061035,0.122070,0.030518
4.693785,-0.202379,-0.627495,10.047107,0.008924,-0.006342,-0.006213,0.061035,0.122070,0.000000
4.703873,-0.199385,-0.633483,10.039922,0.011918,-0.012330,-0.013398,0.061035,0.091553,0.030518
4.713962,-0.200583,-0.633483,10.041718,0.010721,-0.012330,-0.011602,0.061035,0.122070,0.061035
4.724052,-0.194595,-0.629890,10.048903,0.016708,-0.008737,-0.004417,0.091553,0.091553,0.061035
4.734141,-0.193398,-0.627495,10.048903,0.017906,-0.006342,-0.004417,0.061035,0.122070,0.061035
4.744232,-0.199984,-0.625699,10.047107,0.011319,-0.004546,-0.006213,0.091553,0.122070,0.061035
4.754322,-0.218546,-0.619113,10.042916,-0.007242,0.002040,-0.010404,0.091553,0.091553,0.030518
4.764411,-0.219743,-0.617316,10.044113,-0.008439,0.003837,-0.009207,0.061035,0.122070,0.030518
4.774501,-0.228724,-0.617316,10.053693,-0.017421,0.003837,0.000373,0.061035,0.091553,0.030518
4.784610,-0.234113,-0.611927,10.056088,-0.022810,0.009225,0.002768,0.091553,0.152588,0.061035
4.794706,-0.229922,-0.610730,10.050699,-0.018618,0.010423,-0.002620,0.061035,0.152588,0.061035
4.804804,-0.229323,-0.610131,10.048903,-0.018020,0.011022,-0.004417,0.030518,0.122070,0.061035
4.814901,-0.220342,-0.610730,10.043514,-0.009038,0.010423,-0.009805,0.030518,0.122070,0.030518
4.824997,-0.222138,-0.618514,10.048903,-0.010834,0.002639,-0.004417,0.061035,0.091553,0.030518
4.835093,-0.218546,-0.620310,10.047706,-0.007242,0.000843,-0.005614,0.030518,0.122070,0.030518
4.845190,-0.221539,-0.629291,10.041119,-0.010236,-0.008139,-0.012200,0.030518,0.122070,0.030518
4.855286,-0.219144,-0.634081,10.038126,-0.007841,-0.012929,-0.015194,0.061035,0.061035,0.061035
4.865380,-0.219743,-0.636476,10.041119,-0.008439,-0.015324,-0.012200,0.030518,0.061035,0.061035
4.875476,-0.216749,-0.640668,10.048304,-0.005446,-0.019515,-0.005015,0.030518,0.122070,0.000000
4.885568,-0.220941,-0.631088,10.045909,-0.009637,-0.009935,-0.007410,0.030518,0.091553,0.000000
4.895656,-0.223336,-0.629291,10.044113,-0.012032,-0.008139,-0.009207,0.030518,0.091553,0.000000
4.905743,-0.223336,-0.625699,10.039922,-0.012032,-0.004546,-0.013398,0.061035,0.091553,0.030518
4.915830,-0.220941,-0.622705,10.048903,-0.009637,-0.001552,-0.004417,0.091553,0.091553,0.000000
4.925916,-0.228126,-0.625699,10.045909,-0.016822,-0.004546,-0.007410,0.091553,0.122070,0.030518
4.937186,-0.226928,-0.625699,10.050699,-0.015625,-0.004546,-0.002620,0.030518,0.091553,0.030518
4.947278,-0.221539,-0.621508,10.047706,-0.010236,-0.000355,-0.005614,0.030518,0.152588,0.061035
4.957369,-0.220342,-0.619711,10.039323,-0.009038,0.001442,-0.013997,0.000000,0.152588,0.091553
4.967456,-0.220941,-0.620909,10.047107,-0.009637,0.000244,-0.006213,0.000000,0.152588,0.091553
4.977546,-0.225731,-0.632285,10.052496,-0.014427,-0.011132,-0.000824,0.030518,0.152588,0.091553
4.987724,-0.224533,-0.630489,10.050101,-0.013229,-0.009336,-0.003219,0.030518,0.183105,0.091553
4.997816,-0.222737,-0.635279,10.046508,-0.011433,-0.014126,-0.006812,0.061035,0.152588,0.091553
5.007910,-0.219144,-0.635279,10.047706,-0.007841,-0.014126,-0.005614,0.030518,0.152588,0.091553
5.018001,-0.220342,-0.640069,10.049502,-0.009038,-0.018916,-0.003818,0.061035,0.122070,0.091553
5.028102,-0.217947,-0.638273,10.050699,-0.006643,-0.017120,-0.002620,0.030518,0.091553,0.061035
5.038197,-0.216151,-0.640668,10.054891,-0.004847,-0.019515,0.001571,0.061035,0.122070,0.091553
5.048348,-0.217947,-0.635878,10.049502,-0.006643,-0.014725,-0.003818,0.091553,0.091553,0.061035
5.058443,-0.219144,-0.636476,10.050101,-0.007841,-0.015324,-0.003219,0.061035,0.122070,0.030518
5.068545,-0.220342,-0.627495,10.057885,-0.009038,-0.006342,0.004565,0.061035,0.122070,0.030518
5.078640,-0.216749,-0.626298,10.057286,-0.005446,-0.005145,0.003966,0.061035,0.091553,0.030518
5.088734,-0.217947,-0.618514,10.057286,-0.006643,0.002639,0.003966,0.061035,0.122070,0.030518
5.098819,-0.217947,-0.616119,10.059681,-0.006643,0.005034,0.006361,0.091553,0.091553,0.030518
5.108908,-0.217947,-0.616718,10.055490,-0.006643,0.004435,0.002170,0.091553,0.091553,0.030518
5.118995,-0.216749,-0.615520,10.060280,-0.005446,0.005633,0.006960,0.091553,0.091553,0.061035
5.129085,-0.213157,-0.618514,10.059681,-0.001853,0.002639,0.006361,0.061035,0.091553,0.061035
5.139173,-0.211959,-0.624501,10.054891,-0.000656,-0.003349,0.001571,0.061035,0.091553,0.030518
5.149260,-0.208965,-0.622705,10.051897,0.002338,-0.001552,-0.001423,0.030518,0.061035,0.030518
5.159350,-0.213157,-0.627495,10.045311,-0.001853,-0.006342,-0.008009,0.061035,0.030518,0.030518
5.169439,-0.204774,-0.623304,10.054292,0.006529,-0.002151,0.000972,0.030518,0.061035,0.030518
5.179525,-0.210762,-0.625699,10.049502,0.000542,-0.004546,-0.003818,0.061035,0.122070,0.061035
5.189647,-0.207768,-0.622705,10.049502,0.003536,-0.001552,-0.003818,0.091553,0.122070,0.061035
5.199735,-0.212558,-0.625100,10.051897,-0.001254,-0.003947,-0.001423,0.091553,0.122070,0.091553
5.209827,-0.204774,-0.628094,10.052496,0.006529,-0.006941,-0.000824,0.091553,0.122070,0.091553
5.219916,-0.207169,-0.628094,10.059681,0.004134,-0.006941,0.006361,0.061035,0.122070,0.091553
5.230004,-0.210762,-0.627495,10.057885,0.000542,-0.006342,0.004565,0.061035,0.122070,0.091553
5.240090,-0.206570,-0.619711,10.061477,0.004733,0.001442,0.008157,0.030518,0.122070,0.061035
5.250180,-0.207768,-0.622106,10.060878,0.003536,-0.000954,0.007559,0.000000,0.122070,0.091553
5.260292,-0.213157,-0.629291,10.054292,-0.001853,-0.008139,0.000972,0.000000,0.091553,0.091553
5.270383,-0.208367,-0.631088,10.057286,0.002937,-0.009935,0.003966,0.091553,0.091553,0.061035
5.280473,-0.214354,-0.629890,10.054891,-0.003051,-0.008737,0.001571,0.061035,0.091553,0.061035
5.290576,-0.214953,-0.628094,10.053094,-0.003649,-0.006941,-0.000225,0.091553,0.122070,0.061035
5.300662,-0.213755,-0.623304,10.056687,-0.002452,-0.002151,0.003367,0.061035,0.091553,0.061035
5.310752,-0.214953,-0.611927,10.062675,-0.003649,0.009225,0.009355,0.091553,0.061035,0.091553
5.320842,-0.210762,-0.607736,10.068662,0.000542,0.013417,0.015342,0.061035,0.061035,0.061035
5.330932,-0.208367,-0.598156,10.073452,0.002937,0.022997,0.020132,0.030518,0.122070,0.061035
5.341021,-0.213157,-0.598156,10.073452,-0.001853,0.022997,0.020132,0.061035,0.091553,0.000000
5.351110,-0.213157,-0.606539,10.069261,-0.001853,0.014614,0.015941,0.000000,0.091553,0.000000
5.361200,-0.208965,-0.614921,10.063273,0.002338,0.006232,0.009954,0.061035,0.122070,0.030518
5.371289,-0.217348,-0.621508,10.062076,-0.006044,-0.000355,0.008756,0.030518,0.122070,0.061035
5.381378,-0.213755,-0.632884,10.055490,-0.002452,-0.011731,0.002170,0.061035,0.091553,0.061035
5.391547,-0.208367,-0.638273,10.051897,0.002937,-0.017120,-0.001423,0.061035,0.061035,0.091553
5.401644,-0.203577,-0.637075,10.056687,0.007727,-0.015922,0.003367,0.030518,0.091553,0.091553
5.411741,-0.207169,-0.638871,10.056088,0.004134,-0.017719,0.002768,0.030518,0.152588,0.061035
5.421851,-0.200583,-0.630489,10.056088,0.010721,-0.009336,0.002768,0.030518,0.152588,0.061035
5.431949,-0.204175,-0.631088,10.049502,0.007128,-0.009935,-0.003818,0.030518,0.122070,0.030518
5.442044,-0.210163,-0.616718,10.041718,0.001141,0.004435,-0.011602,0.030518,0.122070,0.030518
5.452141,-0.216151,-0.613125,10.035132,-0.004847,0.008028,-0.018188,0.061035,0.091553,0.061035
5.462238,-0.217348,-0.611329,10.047107,-0.006044,0.009824,-0.006213,0.061035,0.091553,0.030518
5.472332,-0.223336,-0.610131,10.054891,-0.012032,0.011022,0.001571,0.061035,0.091553,0.061035
5.482427,-0.223336,-0.608934,10.051298,-0.012032,0.012219,-0.002022,0.061035,0.091553,0.000000
5.492537,-0.224533,-0.615520,10.053094,-0.013229,0.005633,-0.000225,0.061035,0.061035,0.000000
5.502623,-0.224533,-0.608934,10.053693,-0.013229,0.012219,0.000373,0.061035,0.061035,0.030518
5.512714,-0.227527,-0.612526,10.057885,-0.016223,0.008627,0.004565,0.061035,0.030518,0.030518
5.522804,-0.223336,-0.615520,10.057286,-0.012032,0.005633,0.003966,0.061035,0.061035,0.030518
5.532907,-0.219144,-0.616718,10.058483,-0.007841,0.004435,0.005164,0.091553,0.061035,0.061035
5.542999,-0.223336,-0.625100,10.059082,-0.012032,-0.003947,0.005762,0.061035,0.091553,0.091553
5.553088,-0.212558,-0.625699,10.057286,-0.001254,-0.004546,0.003966,0.061035,0.061035,0.091553
5.563178,-0.211360,-0.638273,10.060878,-0.000057,-0.017120,0.007559,0.061035,0.061035,0.091553
5.573268,-0.210163,-0.637674,10.062076,0.001141,-0.016521,0.008756,0.061035,0.091553,0.030518
5.583600,-0.214953,-0.646057,10.061477,-0.003649,-0.024904,0.008157,0.091553,0.091553,0.061035
5.593769,-0.216749,-0.644260,10.059681,-0.005446,-0.023107,0.006361,0.091553,0.091553,0.061035
5.603866,-0.215552,-0.637674,10.053094,-0.004248,-0.016521,-0.000225,0.061035,0.122070,0.091553
5.613962,-0.217947,-0.635279,10.052496,-0.006643,-0.014126,-0.000824,0.091553,0.152588,0.061035
5.624057,-0.220342,-0.632285,10.054292,-0.009038,-0.011132,0.000972,0.091553,0.122070,0.030518
5.634154,-0.222138,-0.627495,10.057885,-0.010834,-0.006342,0.004565,0.091553,0.122070,0.030518
5.644251,-0.226928,-0.629890,10.058483,-0.015625,-0.008737,0.005164,0.061035,0.091553,-0.030518
5.654348,-0.228724,-0.624501,10.048903,-0.017421,-0.003349,-0.004417,0.061035,0.091553,0.030518
5.664452,-0.231718,-0.619113,10.053693,-0.020415,0.002040,0.000373,0.091553,0.061035,0.000000
5.674550,-0.231119,-0.610730,10.056088,-0.019816,0.010423,0.002768,0.091553,0.091553,-0.030518
5.684646,-0.227527,-0.608335,10.056088,-0.016223,0.012818,0.002768,0.091553,0.091553,0.000000
5.694834,-0.217348,-0.607736,10.052496,-0.006044,0.013417,-0.000824,0.061035,0.122070,-0.030518
5.704918,-0.210762,-0.616718,10.051897,0.000542,0.004435,-0.001423,0.061035,0.091553,0.000000
5.715009,-0.205373,-0.615520,10.056687,0.005931,0.005633,0.003367,0.091553,0.091553,0.030518
5.725098,-0.196392,-0.623304,10.066267,0.014912,-0.002151,0.012947,0.091553,0.091553,0.030518
5.735185,-0.194595,-0.627495,10.065668,0.016708,-0.006342,0.012349,0.061035,0.091553,0.030518
5.745275,-0.202978,-0.629291,10.057885,0.008326,-0.008139,0.004565,0.091553,0.091553,0.061035
5.755364,-0.205972,-0.625100,10.054891,0.005332,-0.003947,0.001571,0.091553,0.061035,0.030518
5.765449,-0.204175,-0.625100,10.059082,0.007128,-0.003947,0.005762,0.061035,0.030518,0.061035
5.775538,-0.208367,-0.622106,10.063273,0.002937,-0.000954,0.009954,0.091553,0.030518,0.061035
5.785653,-0.210762,-0.619711,10.065668,0.000542,0.001442,0.012349,0.091553,0.091553,0.030518
5.795753,-0.217348,-0.625100,10.061477,-0.006044,-0.003947,0.008157,0.061035,0.091553,0.030518
5.805842,-0.211959,-0.617915,10.058483,-0.000656,0.003238,0.005164,0.091553,0.122070,0.061035
5.815931,-0.206570,-0.605940,10.060878,0.004733,0.015213,0.007559,0.061035,0.122070,0.061035
5.826017,-0.210163,-0.611329,10.060280,0.001141,0.009824,0.006960,0.061035,0.122070,0.030518
5.836103,-0.211360,-0.613724,10.060878,-0.000057,0.007429,0.007559,0.091553,0.122070,0.030518
5.846190,-0.214354,-0.615520,10.058483,-0.003051,0.005633,0.005164,0.091553,0.091553,0.030518
5.856277,-0.216151,-0.615520,10.054292,-0.004847,0.005633,0.000972,0.091553,0.122070,0.030518
5.866364,-0.215552,-0.627495,10.067465,-0.004248,-0.006342,0.014145,0.091553,0.122070,0.061035
5.876452,-0.222737,-0.635878,10.070458,-0.011433,-0.014725,0.017139,0.091553,0.122070,0.061035
5.886537,-0.217947,-0.626298,10.068063,-0.006643,-0.005145,0.014744,0.061035,0.122070,0.061035
5.896645,-0.217348,-0.625699,10.061477,-0.006044,-0.004546,0.008157,0.000000,0.091553,0.091553
5.906734,-0.213755,-0.630489,10.059082,-0.002452,-0.009336,0.005762,0.030518,0.091553,0.061035
5.916827,-0.211360,-0.628693,10.063872,-0.000057,-0.007540,0.010552,0.030518,0.091553,0.061035
5.926922,-0.215552,-0.627495,10.067465,-0.004248,-0.006342,0.014145,0.000000,0.091553,0.000000
5.937015,-0.215552,-0.622705,10.061477,-0.004248,-0.001552,0.008157,0.030518,0.091553,0.030518
5.947106,-0.216151,-0.620310,10.062675,-0.004847,0.000843,0.009355,0.030518,0.061035,0.030518
5.957196,-0.223934,-0.625100,10.050699,-0.012631,-0.003947,-0.002620,0.030518,0.061035,0.030518
5.967289,-0.220342,-0.620310,10.053693,-0.009038,0.000843,0.000373,0.030518,0.091553,0.061035
5.977383,-0.222138,-0.616119,10.054292,-0.010834,0.005034,0.000972,0.030518,0.091553,0.061035
5.987476,-0.221539,-0.618514,10.050699,-0.010236,0.002639,-0.002620,0.061035,0.061035,0.061035
5.997605,-0.222138,-0.616718,10.053094,-0.010834,0.004435,-0.000225,0.061035,0.091553,0.091553
6.007695,-0.228724,-0.623903,10.050101,-0.017421,-0.002750,-0.003219,0.061035,0.091553,0.091553
6.017786,-0.225731,-0.625699,10.056687,-0.014427,-0.004546,0.003367,0.061035,0.091553,0.061035
6.027880,-0.226329,-0.623304,10.060280,-0.015026,-0.002151,0.006960,0.091553,0.122070,0.061035
6.037975,-0.227527,-0.625699,10.059082,-0.016223,-0.004546,0.005762,0.061035,0.122070,0.030518
6.048069,-0.228126,-0.626298,10.059681,-0.016822,-0.005145,0.006361,0.061035,0.091553,0.061035
6.058166,-0.224533,-0.628693,10.054292,-0.013229,-0.007540,0.000972,0.030518,0.091553,0.030518
6.068296,-0.218546,-0.629890,10.058483,-0.007242,-0.008737,0.005164,0.030518,0.091553,0.030518
6.078387,-0.212558,-0.631088,10.056687,-0.001254,-0.009935,0.003367,0.030518,0.091553,0.030518
6.088484,-0.214953,-0.626298,10.049502,-0.003649,-0.005145,-0.003818,0.000000,0.091553,0.030518
6.098666,-0.212558,-0.625699,10.048903,-0.001254,-0.004546,-0.004417,0.030518,0.091553,0.030518
6.108757,-0.207768,-0.629890,10.047706,0.003536,-0.008737,-0.005614,0.000000,0.152588,0.000000
6.118847,-0.214354,-0.634081,10.057885,-0.003051,-0.012929,0.004565,0.030518,0.122070,0.000000
6.128938,-0.214953,-0.634081,10.057885,-0.003649,-0.012929,0.004565,0.061035,0.061035,0.000000
6.139024,-0.214953,-0.627495,10.048304,-0.003649,-0.006342,-0.005015,0.061035,0.091553,0.000000
6.149113,-0.213755,-0.626896,10.049502,-0.002452,-0.005744,-0.003818,0.061035,0.091553,0.000000
6.159198,-0.213755,-0.625699,10.047107,-0.002452,-0.004546,-0.006213,0.091553,0.061035,0.061035
6.169289,-0.210163,-0.622106,10.062675,0.001141,-0.000954,0.009355,0.091553,0.091553,0.061035
6.179376,-0.207169,-0.625100,10.068662,0.004134,-0.003947,0.015342,0.122070,0.030518,0.030518
6.189464,-0.215552,-0.613724,10.065070,-0.004248,0.007429,0.011750,0.091553,0.061035,0.030518
6.199632,-0.210163,-0.611329,10.056687,0.001141,0.009824,0.003367,0.091553,0.122070,0.061035
6.209729,-0.202978,-0.612526,10.059681,0.008326,0.008627,0.006361,0.122070,0.122070,0.061035
6.219824,-0.202978,-0.612526,10.060280,0.008326,0.008627,0.006960,0.091553,0.091553,0.030518
6.229920,-0.207169,-0.616718,10.061477,0.004134,0.004435,0.008157,0.061035,0.122070,0.030518
6.240016,-0.210163,-0.624501,10.047706,0.001141,-0.003349,-0.005614,0.091553,0.091553,0.030518
6.250113,-0.208367,-0.634081,10.048304,0.002937,-0.012929,-0.005015,0.061035,0.061035,0.030518
6.260415,-0.210163,-0.640069,10.048304,0.001141,-0.018916,-0.005015,0.030518,0.030518,0.030518
6.270515,-0.208367,-0.634680,10.057286,0.002937,-0.013527,0.003966,0.030518,0.030518,0.030518
6.280612,-0.202379,-0.644859,10.055490,0.008924,-0.023706,0.002170,0.000000,0.061035,0.000000
6.290707,-0.203577,-0.642464,10.053094,0.007727,-0.021311,-0.000225,0.000000,0.061035,0.030518
6.300801,-0.207169,-0.632285,10.051298,0.004134,-0.011132,-0.002022,-0.030518,0.061035,0.000000
6.310891,-0.213755,-0.626298,10.049502,-0.002452,-0.005145,-0.003818,0.000000,0.091553,0.000000
6.320982,-0.208367,-0.620310,10.056088,0.002937,0.000843,0.002768,0.030518,0.122070,-0.030518
6.331071,-0.202978,-0.611329,10.055490,0.008326,0.009824,0.002170,0.000000,0.122070,-0.030518
6.341161,-0.205972,-0.610131,10.057286,0.005332,0.011022,0.003966,0.030518,0.091553,0.030518
6.351251,-0.225132,-0.622106,10.052496,-0.013828,-0.000954,-0.000824,0.030518,0.122070,0.000000
6.361341,-0.232317,-0.624501,10.056088,-0.021013,-0.003349,0.002768,0.030518,0.061035,-0.030518
6.371431,-0.241298,-0.635279,10.057286,-0.029995,-0.014126,0.003966,0.030518,0.091553,0.000000
6.381519,-0.246088,-0.637075,10.059681,-0.034785,-0.015922,0.006361,0.030518,0.061035,-0.030518
6.391609,-0.248483,-0.635279,10.051897,-0.037180,-0.014126,-0.001423,0.061035,0.030518,-0.030518
6.401764,-0.226928,-0.634081,10.055490,-0.015625,-0.012929,0.002170,0.061035,0.030518,-0.030518
6.411861,-0.211959,-0.622705,10.054292,-0.000656,-0.001552,0.000972,0.091553,0.030518,-0.030518
6.421970,-0.165855,-0.585582,10.059082,0.045448,0.035571,0.005762,0.091553,0.030518,-0.030518
6.432068,-0.150287,-0.572410,10.054292,0.061016,0.048743,0.000972,0.091553,0.061035,0.061035
6.442164,-0.147294,-0.587379,10.042916,0.064010,0.033774,-0.010404,0.061035,0.061035,0.091553
6.452301,-0.161664,-0.598156,10.045311,0.049640,0.022997,-0.008009,0.061035,0.091553,0.122070
6.462396,-0.182021,-0.607137,10.050101,0.029282,0.014015,-0.003219,0.061035,0.091553,0.122070
6.472503,-0.217348,-0.637674,10.053693,-0.006044,-0.016521,0.000373,0.030518,0.091553,0.122070
6.483226,-0.234712,-0.647853,10.053094,-0.023408,-0.026700,-0.000225,0.061035,0.091553,0.091553
6.493344,-0.263452,-0.662223,10.055490,-0.052149,-0.041070,0.002170,0.061035,0.091553,0.061035
6.503536,-0.273032,-0.664618,10.048304,-0.061729,-0.043465,-0.005015,0.061035,0.091553,-0.030518
6.513622,-0.267045,-0.655637,10.057286,-0.055741,-0.034484,0.003966,0.000000,0.061035,-0.030518
6.523708,-0.251477,-0.641865,10.056687,-0.040173,-0.020712,0.003367,0.061035,0.030518,-0.030518
6.533792,-0.231718,-0.617915,10.054891,-0.020415,0.003238,0.001571,0.061035,0.061035,0.000000
6.543877,-0.217348,-0.606539,10.054292,-0.006044,0.014614,0.000972,0.030518,0.030518,0.030518
6.553971,-0.215552,-0.597557,10.050699,-0.004248,0.023595,-0.002620,0.030518,0.061035,0.091553
6.564068,-0.214953,-0.595162,10.062675,-0.003649,0.025990,0.009355,0.030518,0.091553,0.091553
6.574154,-0.220342,-0.599354,10.063273,-0.009038,0.021799,0.009954,0.000000,0.061035,0.091553
6.584239,-0.218546,-0.607736,10.060878,-0.007242,0.013417,0.007559,0.000000,0.061035,0.122070
6.594325,-0.216151,-0.617316,10.050699,-0.004847,0.003837,-0.002620,0.030518,0.061035,0.091553
6.604475,-0.217348,-0.634680,10.047706,-0.006044,-0.013527,-0.005614,0.030518,0.061035,0.091553
6.614580,-0.215552,-0.641865,10.046508,-0.004248,-0.020712,-0.006812,0.030518,0.061035,0.030518
6.624677,-0.191003,-0.641266,10.037527,0.020301,-0.020114,-0.015793,0.061035,0.061035,-0.030518
6.634775,-0.177830,-0.640668,10.036928,0.033473,-0.019515,-0.016392,0.061035,0.030518,-0.061035
6.644871,-0.168849,-0.640069,10.039922,0.042455,-0.018916,-0.013398,0.030518,0.061035,-0.030518
6.654968,-0.162263,-0.636476,10.037527,0.049041,-0.015324,-0.015793,0.000000,0.091553,-0.030518
6.665064,-0.164658,-0.634081,10.039323,0.046646,-0.012929,-0.013997,0.000000,0.091553,0.061035
6.675161,-0.183818,-0.634680,10.042317,0.027486,-0.013527,-0.011003,-0.030518,0.122070,0.091553
6.685258,-0.201182,-0.640069,10.040521,0.010122,-0.018916,-0.012799,0.030518,0.091553,0.091553
6.695368,-0.240101,-0.642464,10.045311,-0.028797,-0.021311,-0.008009,0.030518,0.091553,0.122070
6.705552,-0.253273,-0.645458,10.045311,-0.041970,-0.024305,-0.008009,0.030518,0.061035,0.091553
6.715642,-0.257465,-0.638871,10.039922,-0.046161,-0.017719,-0.013398,0.061035,0.030518,0.061035
6.725732,-0.265847,-0.626896,10.045311,-0.054544,-0.005744,-0.008009,0.061035,0.061035,0.030518
6.735822,-0.255070,-0.613724,10.044712,-0.043766,0.007429,-0.008608,0.061035,0.061035,-0.030518
6.745912,-0.228126,-0.592169,10.041718,-0.016822,0.028984,-0.011602,0.061035,0.061035,0.000000
6.756002,-0.208965,-0.584984,10.039323,0.002338,0.036169,-0.013997,0.030518,0.061035,-0.030518
6.766093,-0.182620,-0.574805,10.044113,0.028683,0.046348,-0.009207,0.030518,0.061035,0.000000
6.776183,-0.175435,-0.578996,10.042916,0.035868,0.042157,-0.010404,0.030518,0.061035,0.030518
6.786325,-0.170645,-0.590971,10.042916,0.040658,0.030182,-0.010404,0.061035,0.061035,0.091553
6.796414,-0.181423,-0.611329,10.041119,0.029881,0.009824,-0.012200,0.061035,0.091553,0.091553
6.806542,-0.195194,-0.624501,10.038126,0.016110,-0.003349,-0.015194,0.122070,0.122070,0.091553
6.816632,-0.217947,-0.649649,10.046508,-0.006643,-0.028496,-0.006812,0.122070,0.152588,0.091553
6.826722,-0.227527,-0.664019,10.042916,-0.016223,-0.042866,-0.010404,0.122070,0.122070,0.061035
6.836812,-0.244891,-0.670007,10.041718,-0.033587,-0.048854,-0.011602,0.091553,0.122070,0.030518
6.846901,-0.250878,-0.671803,10.044113,-0.039575,-0.050650,-0.009207,0.091553,0.091553,0.030518
6.856992,-0.249681,-0.660427,10.046508,-0.038377,-0.039274,-0.006812,0.061035,0.061035,0.000000
6.867085,-0.236508,-0.642464,10.056687,-0.025205,-0.021311,0.003367,0.061035,0.091553,-0.030518
6.877177,-0.228724,-0.632285,10.057885,-0.017421,-0.011132,0.004565,0.122070,0.091553,0.030518
6.887266,-0.208367,-0.610131,10.056687,0.002937,0.011022,0.003367,0.091553,0.091553,0.030518
6.897364,-0.207768,-0.602347,10.050699,0.003536,0.018805,-0.002620,0.122070,0.030518,0.061035
6.907480,-0.190404,-0.605940,10.046508,0.020900,0.015213,-0.006812,0.091553,0.030518,0.091553
6.917571,-0.190404,-0.611329,10.051897,0.020900,0.009824,-0.001423,0.030518,0.061035,0.091553
6.927661,-0.195793,-0.619113,10.042916,0.015511,0.002040,-0.010404,0.030518,0.061035,0.091553
6.937751,-0.204774,-0.625699,10.038724,0.006529,-0.004546,-0.014595,0.061035,0.061035,0.091553
6.947843,-0.203577,-0.634081,10.039323,0.007727,-0.012929,-0.013997,0.030518,0.091553,0.061035
6.957933,-0.214354,-0.656235,10.042916,-0.003051,-0.035083,-0.010404,0.030518,0.122070,0.030518
6.968021,-0.213157,-0.657433,10.051298,-0.001853,-0.036280,-0.002022,0.030518,0.152588,0.030518
6.978116,-0.214953,-0.658032,10.037527,-0.003649,-0.036879,-0.015793,0.061035,0.152588,0.030518
6.988208,-0.219743,-0.651445,10.036329,-0.008439,-0.030293,-0.016990,0.030518,0.152588,0.030518
6.998307,-0.228126,-0.635878,10.040521,-0.016822,-0.014725,-0.012799,0.030518,0.122070,0.030518
7.008435,-0.226329,-0.629291,10.036329,-0.015026,-0.008139,-0.016990,0.061035,0.122070,0.030518
7.018523,-0.226329,-0.620909,10.046508,-0.015026,0.000244,-0.006812,0.061035,0.122070,0.030518
7.028613,-0.231718,-0.609532,10.053693,-0.020415,0.011620,0.000373,0.061035,0.122070,0.091553
7.038703,-0.235311,-0.604742,10.055490,-0.024007,0.016410,0.002170,0.091553,0.091553,0.061035
7.048791,-0.234712,-0.599354,10.056088,-0.023408,0.021799,0.002768,0.061035,0.091553,0.061035
7.058881,-0.240699,-0.595761,10.063273,-0.029396,0.025392,0.009954,0.061035,0.061035,0.061035
7.068971,-0.237706,-0.593965,10.068063,-0.026402,0.027188,0.014744,0.061035,0.061035,0.061035
7.079062,-0.231718,-0.598156,10.069261,-0.020415,0.022997,0.015941,0.061035,0.061035,0.061035
7.089151,-0.229323,-0.599354,10.065070,-0.018020,0.021799,0.011750,0.030518,0.122070,0.030518
7.099236,-0.213157,-0.599354,10.048903,-0.001853,0.021799,-0.004417,0.030518,0.122070,0.000000
7.109422,-0.202978,-0.602946,10.045311,0.008326,0.018207,-0.008009,0.030518,0.152588,0.000000
7.119519,-0.201182,-0.622106,10.054292,0.010122,-0.000954,0.000972,0.061035,0.122070,0.030518
7.129615,-0.198188,-0.628693,10.056088,0.013116,-0.007540,0.002768,0.030518,0.091553,0.000000
7.139709,-0.195194,-0.637075,10.043514,0.016110,-0.015922,-0.009805,-0.030518,0.122070,0.030518
7.149805,-0.192799,-0.638273,10.047107,0.018505,-0.017120,-0.006213,-0.030518,0.122070,0.030518
7.159900,-0.200583,-0.652643,10.044113,0.010721,-0.031490,-0.009207,0.030518,0.122070,0.061035
7.169999,-0.210762,-0.652044,10.052496,0.000542,-0.030891,-0.000824,0.030518,0.122070,0.061035
7.180093,-0.211360,-0.649649,10.056088,-0.000057,-0.028496,0.002768,0.061035,0.091553,0.061035
7.190189,-0.208965,-0.642464,10.050699,0.002338,-0.021311,-0.002620,0.061035,0.091553,0.091553
7.200285,-0.209564,-0.635878,10.047107,0.001739,-0.014725,-0.006213,0.091553,0.091553,0.061035
7.210413,-0.210163,-0.617915,10.047107,0.001141,0.003238,-0.006213,0.091553,0.122070,0.061035
7.220510,-0.208367,-0.603545,10.053094,0.002937,0.017608,-0.000225,0.122070,0.091553,0.061035
7.230606,-0.216749,-0.584984,10.059082,-0.005446,0.036169,0.005762,0.152588,0.122070,0.000000
7.240703,-0.217348,-0.578996,10.053693,-0.006044,0.042157,0.000373,0.091553,0.091553,0.030518
7.250799,-0.223934,-0.576601,10.053693,-0.012631,0.044552,0.000373,0.061035,0.091553,0.030518
7.260896,-0.232317,-0.580193,10.056088,-0.021013,0.040959,0.002768,0.061035,0.122070,0.030518
7.270993,-0.237107,-0.590372,10.060878,-0.025803,0.030780,0.007559,0.061035,0.091553,0.030518
7.281090,-0.241298,-0.606539,10.064471,-0.029995,0.014614,0.011151,0.061035,0.091553,0.030518
7.291186,-0.237107,-0.620310,10.059681,-0.025803,0.000843,0.006361,0.030518,0.061035,0.061035
7.301277,-0.232317,-0.643063,10.053094,-0.021013,-0.021910,-0.000225,0.000000,0.091553,0.061035
7.311463,-0.226329,-0.646057,10.054891,-0.015026,-0.024904,0.001571,-0.030518,0.091553,0.030518
7.321554,-0.216151,-0.661025,10.060280,-0.004847,-0.039873,0.006960,0.000000,0.122070,0.030518
7.331643,-0.192200,-0.673599,10.050699,0.019103,-0.052446,-0.002620,0.000000,0.091553,-0.030518
7.341733,-0.183219,-0.664019,10.044113,0.028085,-0.042866,-0.009207,0.030518,0.091553,-0.061035
7.351824,-0.165256,-0.644260,10.044712,0.046047,-0.023107,-0.008608,0.091553,0.091553,-0.030518
7.361913,-0.162263,-0.627495,10.045311,0.049041,-0.006342,-0.008009,0.061035,0.122070,0.000000
7.372003,-0.162263,-0.608934,10.052496,0.049041,0.012219,-0.000824,0.030518,0.091553,0.000000
7.382093,-0.171843,-0.605940,10.053693,0.039461,0.015213,0.000373,0.061035,0.091553,0.061035
7.392180,-0.181423,-0.603545,10.050699,0.029881,0.017608,-0.002620,0.030518,0.091553,0.061035
7.402270,-0.216151,-0.603545,10.050101,-0.004847,0.017608,-0.003219,0.030518,0.091553,0.061035
7.412440,-0.238903,-0.613125,10.051298,-0.027600,0.008028,-0.002022,0.030518,0.122070,0.000000
7.422548,-0.258662,-0.613724,10.060280,-0.047359,0.007429,0.006960,0.030518,0.122070,0.000000
7.432645,-0.262255,-0.614323,10.059681,-0.050951,0.006830,0.006361,0.061035,0.091553,-0.030518
7.442742,-0.253872,-0.613724,10.062675,-0.042568,0.007429,0.009355,0.091553,0.091553,-0.030518
7.452839,-0.237706,-0.609532,10.061477,-0.026402,0.011620,0.008157,0.061035,0.091553,-0.061035
7.462948,-0.214354,-0.607137,10.059681,-0.003051,0.014015,0.006361,0.061035,0.091553,-0.030518
7.473048,-0.201780,-0.606539,10.053693,0.009523,0.014614,0.000373,0.061035,0.091553,-0.030518
7.483145,-0.193398,-0.608934,10.048903,0.017906,0.012219,-0.004417,0.030518,0.061035,0.030518
7.493259,-0.176633,-0.623903,10.035132,0.034671,-0.002750,-0.018188,0.061035,0.091553,0.061035
7.503353,-0.193398,-0.644859,10.054292,0.017906,-0.023706,0.000972,0.030518,0.122070,0.030518
7.513539,-0.191602,-0.644859,10.045311,0.019702,-0.023706,-0.008009,0.061035,0.152588,0.091553
7.523627,-0.188608,-0.629890,10.031539,0.022696,-0.008737,-0.021780,0.091553,0.122070,0.091553
7.533717,-0.204175,-0.634680,10.043514,0.007128,-0.013527,-0.009805,0.091553,0.122070,0.091553
7.543836,-0.212558,-0.628094,10.052496,-0.001254,-0.006941,-0.000824,0.091553,0.122070,0.061035
7.553924,-0.219144,-0.623304,10.044113,-0.007841,-0.002151,-0.009207,0.091553,0.152588,0.000000
7.564013,-0.226329,-0.605341,10.054292,-0.015026,0.015812,0.000972,0.091553,0.152588,-0.030518
7.574103,-0.227527,-0.600551,10.062675,-0.016223,0.020602,0.009355,0.091553,0.152588,0.000000
7.584192,-0.232317,-0.592767,10.052496,-0.021013,0.028385,-0.000824,0.122070,0.122070,0.000000
7.594282,-0.231718,-0.597557,10.042317,-0.020415,0.023595,-0.011003,0.091553,0.091553,0.030518
7.604372,-0.240101,-0.608335,10.043514,-0.028797,0.012818,-0.009805,0.061035,0.091553,0.000000
7.614532,-0.246088,-0.611329,10.050699,-0.034785,0.009824,-0.002620,0.061035,0.091553,0.030518
7.624625,-0.253273,-0.632884,10.054891,-0.041970,-0.011731,0.001571,0.091553,0.061035,0.061035
7.634721,-0.246687,-0.636476,10.050699,-0.035383,-0.015324,-0.002620,0.061035,0.061035,0.030518
7.644817,-0.237706,-0.639470,10.048304,-0.026402,-0.018317,-0.005015,0.061035,0.061035,0.030518
7.654913,-0.219144,-0.646655,10.048903,-0.007841,-0.025502,-0.004417,0.030518,0.091553,0.000000
7.665009,-0.204774,-0.644859,10.051897,0.006529,-0.023706,-0.001423,0.000000,0.122070,-0.030518
7.675104,-0.191003,-0.638273,10.054891,0.020301,-0.017120,0.001571,0.030518,0.091553,0.000000
7.685200,-0.180824,-0.632884,10.051298,0.030480,-0.011731,-0.002022,0.091553,0.061035,0.000000
7.695310,-0.173639,-0.622106,10.044712,0.037665,-0.000954,-0.008608,0.091553,0.091553,-0.030518
7.705402,-0.173040,-0.626298,10.042916,0.038263,-0.005145,-0.010404,0.061035,0.091553,-0.030518
7.715589,-0.178429,-0.625100,10.042916,0.032875,-0.003947,-0.010404,0.061035,0.061035,0.030518
7.725680,-0.191602,-0.619113,10.039323,0.019702,0.002040,-0.013997,0.061035,0.091553,0.061035
7.735770,-0.199984,-0.619113,10.037527,0.011319,0.002040,-0.015793,0.061035,0.122070,0.061035
7.745857,-0.214953,-0.618514,10.039323,-0.003649,0.002639,-0.013997,0.061035,0.152588,0.091553
7.755945,-0.224533,-0.623903,10.033336,-0.013229,-0.002750,-0.019984,0.030518,0.122070,0.091553
7.766035,-0.231119,-0.633483,10.042317,-0.019816,-0.012330,-0.011003,0.000000,0.122070,0.091553
7.776124,-0.231718,-0.634081,10.041718,-0.020415,-0.012929,-0.011602,0.030518,0.122070,0.091553
7.786279,-0.232317,-0.641266,10.042317,-0.021013,-0.020114,-0.011003,0.030518,0.122070,0.061035
7.796365,-0.221539,-0.643063,10.036928,-0.010236,-0.021910,-0.016392,0.061035,0.091553,0.061035
7.806454,-0.218546,-0.647254,10.036928,-0.007242,-0.026101,-0.016392,0.000000,0.122070,0.061035
7.816579,-0.196392,-0.641865,10.049502,0.014912,-0.020712,-0.003818,0.030518,0.122070,0.030518
7.826669,-0.191003,-0.638273,10.047706,0.020301,-0.017120,-0.005614,0.030518,0.122070,0.030518
7.836759,-0.182021,-0.629890,10.046508,0.029282,-0.008737,-0.006812,0.000000,0.122070,0.030518
7.846848,-0.190404,-0.623903,10.047107,0.020900,-0.002750,-0.006213,0.030518,0.152588,0.030518
7.856940,-0.190404,-0.624501,10.042317,0.020900,-0.003349,-0.011003,0.030518,0.152588,0.061035
7.867029,-0.200583,-0.626896,10.054891,0.010721,-0.005744,0.001571,0.030518,0.122070,0.061035
7.877118,-0.202978,-0.628693,10.050699,0.008326,-0.007540,-0.002620,0.061035,0.152588,0.030518
7.887208,-0.215552,-0.625100,10.049502,-0.004248,-0.003947,-0.003818,0.061035,0.122070,0.030518
7.897306,-0.213755,-0.629890,10.047706,-0.002452,-0.008737,-0.005614,0.091553,0.122070,0.061035
7.907392,-0.216749,-0.634081,10.044113,-0.005446,-0.012929,-0.009207,0.091553,0.122070,0.061035
7.917569,-0.214953,-0.628094,10.047107,-0.003649,-0.006941,-0.006213,0.091553,0.091553,0.000000
7.927668,-0.222737,-0.614921,10.046508,-0.011433,0.006232,-0.006812,0.091553,0.091553,0.030518
7.937765,-0.222737,-0.619711,10.047706,-0.011433,0.001442,-0.005614,0.091553,0.091553,0.030518
7.947862,-0.222138,-0.614323,10.045909,-0.010834,0.006830,-0.007410,0.061035,0.091553,0.030518
7.957958,-0.214354,-0.605341,10.048304,-0.003051,0.015812,-0.005015,0.030518,0.122070,0.061035
7.968054,-0.217348,-0.607137,10.053094,-0.006044,0.014015,-0.000225,0.030518,0.122070,0.061035
7.978150,-0.217348,-0.610131,10.057885,-0.006044,0.011022,0.004565,0.030518,0.091553,0.061035
7.988246,-0.225132,-0.611329,10.062675,-0.013828,0.009824,0.009355,0.030518,0.122070,0.061035
7.998342,-0.230521,-0.614323,10.052496,-0.019217,0.006830,-0.000824,0.000000,0.091553,0.061035
8.008439,-0.225132,-0.617915,10.050101,-0.013828,0.003238,-0.003219,0.000000,0.122070,0.061035
8.018562,-0.222138,-0.614921,10.056687,-0.010834,0.006232,0.003367,0.030518,0.091553,0.091553
8.028658,-0.224533,-0.613125,10.053693,-0.013229,0.008028,0.000373,0.061035,0.091553,0.030518
8.038754,-0.217947,-0.614323,10.053693,-0.006643,0.006830,0.000373,0.061035,0.091553,0.061035
8.048850,-0.207768,-0.617316,10.043514,0.003536,0.003837,-0.009805,0.091553,0.091553,0.091553
8.058946,-0.207169,-0.623304,10.044712,0.004134,-0.002151,-0.008608,0.061035,0.091553,0.030518
8.069045,-0.199385,-0.634081,10.047706,0.011918,-0.012929,-0.005614,0.061035,0.122070,0.030518
8.079142,-0.196392,-0.637674,10.048903,0.014912,-0.016521,-0.004417,0.091553,0.122070,0.061035
8.089239,-0.195793,-0.644260,10.044712,0.015511,-0.023107,-0.008608,0.030518,0.091553,0.091553
8.099331,-0.195194,-0.636476,10.032737,0.016110,-0.015324,-0.020583,0.030518,0.091553,0.091553
8.109424,-0.195793,-0.636476,10.036329,0.015511,-0.015324,-0.016990,0.061035,0.061035,0.091553
8.119606,-0.198188,-0.634081,10.048903,0.013116,-0.012929,-0.004417,0.061035,0.061035,0.061035
8.129696,-0.204774,-0.633483,10.048304,0.006529,-0.012330,-0.005015,0.030518,0.061035,0.061035
8.139786,-0.202379,-0.635878,10.053094,0.008924,-0.014725,-0.000225,0.061035,0.091553,0.030518
8.149875,-0.198188,-0.641865,10.054292,0.013116,-0.020712,0.000972,0.030518,0.091553,0.000000
8.159963,-0.200583,-0.631686,10.047706,0.010721,-0.010534,-0.005614,0.030518,0.061035,0.000000
8.170053,-0.196392,-0.628094,10.048304,0.014912,-0.006941,-0.005015,0.030518,0.091553,0.000000
8.180143,-0.195793,-0.625100,10.053094,0.015511,-0.003947,-0.000225,0.061035,0.091553,0.000000
8.190232,-0.199984,-0.626896,10.052496,0.011319,-0.005744,-0.000824,0.030518,0.122070,0.000000
8.200322,-0.200583,-0.626298,10.051897,0.010721,-0.005145,-0.001423,0.061035,0.091553,0.000000
8.210411,-0.223934,-0.629291,10.045909,-0.012631,-0.008139,-0.007410,0.061035,0.091553,0.000000
8.220561,-0.225731,-0.624501,10.053693,-0.014427,-0.003349,0.000373,0.061035,0.152588,0.030518
8.230657,-0.235311,-0.622106,10.054292,-0.024007,-0.000954,0.000972,0.030518,0.152588,0.061035
8.240750,-0.241298,-0.626896,10.057286,-0.029995,-0.005744,0.003966,0.000000,0.122070,0.061035
8.250846,-0.240101,-0.631686,10.055490,-0.028797,-0.010534,0.002170,0.030518,0.122070,0.061035
8.260942,-0.225132,-0.626896,10.056088,-0.013828,-0.005744,0.002768,0.030518,0.091553,0.061035
8.271038,-0.219144,-0.621508,10.062076,-0.007841,-0.000355,0.008756,0.091553,0.122070,0.030518
8.281134,-0.210163,-0.610730,10.061477,0.001141,0.010423,0.008157,0.091553,0.122070,0.000000
8.291230,-0.210163,-0.610131,10.061477,0.001141,0.011022,0.008157,0.122070,0.091553,0.000000
8.301322,-0.202978,-0.603545,10.055490,0.008326,0.017608,0.002170,0.122070,0.091553,0.030518
8.311412,-0.198188,-0.605940,10.050101,0.013116,0.015213,-0.003219,0.091553,0.091553,0.030518
8.321593,-0.198787,-0.601150,10.054292,0.012517,0.020003,0.000972,0.091553,0.030518,0.030518
8.331682,-0.193997,-0.616718,10.054292,0.017307,0.004435,0.000972,0.122070,0.030518,0.030518
8.341771,-0.203577,-0.620310,10.051897,0.007727,0.000843,-0.001423,0.091553,0.061035,0.061035
8.351861,-0.209564,-0.629890,10.055490,0.001739,-0.008737,0.002170,0.061035,0.061035,0.061035
8.361951,-0.216749,-0.629890,10.053693,-0.005446,-0.008737,0.000373,0.061035,0.122070,0.030518
8.372040,-0.215552,-0.629291,10.053094,-0.004248,-0.008139,-0.000225,0.030518,0.122070,0.030518
8.382130,-0.216749,-0.628693,10.052496,-0.005446,-0.007540,-0.000824,0.030518,0.122070,0.000000
8.392219,-0.216749,-0.625100,10.050699,-0.005446,-0.003947,-0.002620,0.030518,0.091553,0.030518
8.402308,-0.213755,-0.620909,10.039922,-0.002452,0.000244,-0.013398,0.061035,0.091553,0.000000
8.412398,-0.216151,-0.618514,10.045909,-0.004847,0.002639,-0.007410,0.091553,0.091553,0.000000
8.422612,-0.223934,-0.615520,10.059082,-0.012631,0.005633,0.005762,0.091553,0.122070,0.000000
8.432709,-0.216749,-0.614323,10.065668,-0.005446,0.006830,0.012349,0.061035,0.122070,0.030518
8.442805,-0.225132,-0.611329,10.056687,-0.013828,0.009824,0.003367,0.091553,0.122070,0.030518
8.452902,-0.229922,-0.610131,10.053094,-0.018618,0.011022,-0.000225,0.000000,0.091553,0.061035
8.462998,-0.229323,-0.623304,10.062675,-0.018020,-0.002151,0.009355,0.000000,0.061035,0.000000
8.473094,-0.233514,-0.625100,10.064471,-0.022211,-0.003947,0.011151,0.000000,0.061035,0.030518
8.483189,-0.224533,-0.625100,10.068662,-0.013229,-0.003947,0.015342,0.000000,0.122070,0.030518
8.493299,-0.208367,-0.620909,10.060280,0.002937,0.000244,0.006960,0.030518,0.122070,0.030518
8.503392,-0.202978,-0.617915,10.055490,0.008326,0.003238,0.002170,0.000000,0.091553,0.030518
8.513481,-0.199984,-0.611927,10.054891,0.011319,0.009225,0.001571,0.061035,0.122070,0.030518
8.523663,-0.201182,-0.614921,10.056088,0.010122,0.006232,0.002768,0.030518,0.122070,0.030518
8.533754,-0.201182,-0.620909,10.053094,0.010122,0.000244,-0.000225,0.030518,0.122070,0.030518
8.543841,-0.199385,-0.625699,10.050101,0.011918,-0.004546,-0.003219,0.030518,0.091553,0.061035
8.553931,-0.204175,-0.624501,10.048903,0.007128,-0.003349,-0.004417,0.030518,0.091553,0.030518
8.564021,-0.213157,-0.622106,10.054292,-0.001853,-0.000954,0.000972,0.030518,0.122070,0.061035
8.574110,-0.213157,-0.623903,10.053693,-0.001853,-0.002750,0.000373,0.061035,0.122070,0.091553
8.584431,-0.226329,-0.629890,10.057885,-0.015026,-0.008737,0.004565,0.030518,0.122070,0.061035
8.594524,-0.222737,-0.625100,10.055490,-0.011433,-0.003947,0.002170,0.061035,0.091553,0.030518
8.604625,-0.222737,-0.621508,10.048304,-0.011433,-0.000355,-0.005015,0.061035,0.091553,0.061035
8.614725,-0.223336,-0.618514,10.054292,-0.012032,0.002639,0.000972,0.091553,0.091553,0.030518
8.624898,-0.211360,-0.614921,10.059681,-0.000057,0.006232,0.006361,0.091553,0.061035,0.030518
8.634985,-0.206570,-0.608335,10.057286,0.004733,0.012818,0.003966,0.091553,0.061035,0.030518
8.645075,-0.205972,-0.613125,10.055490,0.005332,0.008028,0.002170,0.122070,0.091553,0.030518
8.655164,-0.203577,-0.619113,10.049502,0.007727,0.002040,-0.003818,0.091553,0.091553,0.000000
8.665270,-0.202978,-0.623903,10.056687,0.008326,-0.002750,0.003367,0.061035,0.091553,0.061035
8.675357,-0.207768,-0.629291,10.065668,0.003536,-0.008139,0.012349,0.061035,0.091553,0.061035
8.685449,-0.210762,-0.631686,10.065668,0.000542,-0.010534,0.012349,0.091553,0.122070,0.030518
8.695552,-0.219144,-0.641266,10.058483,-0.007841,-0.020114,0.005164,0.091553,0.122070,0.030518
8.705639,-0.228724,-0.650248,10.055490,-0.017421,-0.029095,0.002170,0.030518,0.091553,0.030518
8.715724,-0.225731,-0.649649,10.057885,-0.014427,-0.028496,0.004565,0.030518,0.091553,-0.030518
8.725845,-0.226928,-0.641266,10.058483,-0.015625,-0.020114,0.005164,0.000000,0.091553,-0.030518
8.735936,-0.219144,-0.635878,10.056687,-0.007841,-0.014725,0.003367,0.000000,0.091553,-0.030518
8.746025,-0.206570,-0.623903,10.057286,0.004733,-0.002750,0.003966,0.000000,0.091553,-0.030518
8.756114,-0.196990,-0.617316,10.056687,0.014313,0.003837,0.003367,0.030518,0.091553,-0.030518
8.766202,-0.188009,-0.608934,10.052496,0.023295,0.012219,-0.000824,0.030518,0.091553,-0.030518
8.776293,-0.186812,-0.610730,10.048903,0.024492,0.010423,-0.004417,0.061035,0.091553,0.000000
8.786381,-0.195194,-0.613724,10.053693,0.016110,0.007429,0.000373,0.061035,0.122070,0.061035
8.796467,-0.202379,-0.616718,10.046508,0.008924,0.004435,-0.006812,0.091553,0.091553,0.030518
8.806554,-0.212558,-0.622106,10.039922,-0.001254,-0.000954,-0.013398,0.061035,0.122070,0.030518
8.816644,-0.216151,-0.626298,10.052496,-0.004847,-0.005145,-0.000824,0.091553,0.091553,0.030518
8.826862,-0.216749,-0.633483,10.051897,-0.005446,-0.012330,-0.001423,0.061035,0.091553,0.000000
8.836960,-0.221539,-0.635878,10.053693,-0.010236,-0.014725,0.000373,0.030518,0.091553,0.000000
8.847056,-0.220342,-0.629890,10.048903,-0.009038,-0.008737,-0.004417,0.030518,0.122070,0.030518
8.857153,-0.213157,-0.622106,10.048903,-0.001853,-0.000954,-0.004417,0.061035,0.122070,-0.030518
8.867249,-0.201780,-0.614921,10.050699,0.009523,0.006232,-0.002620,0.061035,0.091553,-0.030518
8.877345,-0.200583,-0.610730,10.054292,0.010721,0.010423,0.000972,0.091553,0.091553,0.000000
8.887442,-0.186812,-0.607736,10.053094,0.024492,0.013417,-0.000225,0.061035,0.061035,0.030518
8.897555,-0.193997,-0.612526,10.051897,0.017307,0.008627,-0.001423,0.122070,0.030518,0.061035
8.907647,-0.206570,-0.623304,10.038724,0.004733,-0.002151,-0.014595,0.091553,0.061035,0.091553
8.917744,-0.217947,-0.636476,10.044712,-0.006643,-0.015324,-0.008608,0.091553,0.061035,0.091553
8.927930,-0.230521,-0.646057,10.044712,-0.019217,-0.024904,-0.008608,0.061035,0.091553,0.091553
8.938021,-0.234712,-0.651445,10.045909,-0.023408,-0.030293,-0.007410,0.122070,0.061035,0.091553
8.948111,-0.232317,-0.647853,10.045909,-0.021013,-0.026700,-0.007410,0.030518,0.091553,0.030518
8.958201,-0.227527,-0.640069,10.042317,-0.016223,-0.018916,-0.011003,0.030518,0.091553,0.000000
8.968291,-0.220941,-0.629890,10.047107,-0.009637,-0.008737,-0.006213,0.091553,0.091553,-0.030518
8.978380,-0.214354,-0.620909,10.056088,-0.003051,0.000244,0.002768,0.122070,0.122070,-0.030518
8.988469,-0.209564,-0.620909,10.047706,0.001739,0.000244,-0.005614,0.061035,0.091553,0.030518
8.998559,-0.206570,-0.616718,10.042916,0.004733,0.004435,-0.010404,0.091553,0.091553,0.061035
9.008649,-0.202379,-0.619711,10.045311,0.008924,0.001442,-0.008009,0.061035,0.091553,0.030518
9.018739,-0.203577,-0.617316,10.046508,0.007727,0.003837,-0.006812,0.091553,0.091553,0.091553
9.028887,-0.210762,-0.613724,10.042916,0.000542,0.007429,-0.010404,0.030518,0.091553,0.061035
9.038983,-0.210762,-0.613724,10.040521,0.000542,0.007429,-0.012799,0.061035,0.122070,0.091553
9.049080,-0.212558,-0.617316,10.038724,-0.001254,0.003837,-0.014595,0.061035,0.091553,0.091553
9.059176,-0.217947,-0.616119,10.041718,-0.006643,0.005034,-0.011602,0.091553,0.061035,0.030518
9.069272,-0.209564,-0.620310,10.043514,0.001739,0.000843,-0.009805,0.061035,0.061035,0.000000
9.079368,-0.214354,-0.619711,10.044113,-0.003051,0.001442,-0.009207,0.061035,0.030518,0.030518
9.089464,-0.218546,-0.613125,10.048304,-0.007242,0.008028,-0.005015,0.061035,0.061035,0.061035
9.099575,-0.217947,-0.615520,10.044113,-0.006643,0.005633,-0.009207,0.030518,0.061035,0.061035
9.109666,-0.213157,-0.612526,10.043514,-0.001853,0.008627,-0.009805,0.061035,0.091553,0.061035
9.119764,-0.208965,-0.600551,10.050101,0.002338,0.020602,-0.003219,0.061035,0.122070,0.091553
9.129951,-0.208965,-0.606539,10.051298,0.002338,0.014614,-0.002022,0.000000,0.122070,0.091553
9.140043,-0.218546,-0.614323,10.042317,-0.007242,0.006830,-0.011003,0.030518,0.122070,0.091553
9.150133,-0.220342,-0.616718,10.041718,-0.009038,0.004435,-0.011602,0.061035,0.122070,0.061035
9.160222,-0.221539,-0.615520,10.042317,-0.010236,0.005633,-0.011003,0.061035,0.122070,0.061035
9.170313,-0.226329,-0.620909,10.037527,-0.015026,0.000244,-0.015793,0.091553,0.091553,0.061035
9.180403,-0.222138,-0.620310,10.045909,-0.010834,0.000843,-0.007410,0.091553,0.061035,0.091553
9.190494,-0.211360,-0.621508,10.036329,-0.000057,-0.000355,-0.016990,0.061035,0.091553,0.061035
9.200583,-0.217348,-0.619113,10.040521,-0.006044,0.002040,-0.012799,0.091553,0.091553,0.091553
9.210673,-0.208367,-0.622106,10.046508,0.002937,-0.000954,-0.006812,0.091553,0.122070,0.061035
9.220763,-0.205972,-0.620310,10.048903,0.005332,0.000843,-0.004417,0.091553,0.122070,0.061035
9.230918,-0.199385,-0.615520,10.052496,0.011918,0.005633,-0.000824,0.061035,0.152588,0.091553
9.241014,-0.200583,-0.618514,10.054292,0.010721,0.002639,0.000972,0.030518,0.152588,0.091553
9.251111,-0.203577,-0.619113,10.056687,0.007727,0.002040,0.003367,0.061035,0.122070,0.091553
9.261208,-0.210762,-0.626896,10.059082,0.000542,-0.005744,0.005762,0.030518,0.091553,0.061035
9.271308,-0.213157,-0.625100,10.056088,-0.001853,-0.003947,0.002768,0.061035,0.091553,0.030518
9.281407,-0.217348,-0.629291,10.053693,-0.006044,-0.008139,0.000373,0.061035,0.122070,0.061035
9.291504,-0.220342,-0.635878,10.057885,-0.009038,-0.014725,0.004565,0.030518,0.122070,0.030518
9.301594,-0.210163,-0.627495,10.048304,0.001141,-0.006342,-0.005015,0.061035,0.152588,0.030518
9.311683,-0.212558,-0.619711,10.048903,-0.001254,0.001442,-0.004417,0.091553,0.122070,0.030518
9.321780,-0.210163,-0.623304,10.050699,0.001141,-0.002151,-0.002620,0.061035,0.122070,0.030518
9.331966,-0.211360,-0.623903,10.048903,-0.000057,-0.002750,-0.004417,0.061035,0.122070,0.030518
9.342056,-0.205972,-0.621508,10.048304,0.005332,-0.000355,-0.005015,0.061035,0.122070,0.061035
9.352146,-0.207768,-0.616718,10.049502,0.003536,0.004435,-0.003818,0.030518,0.152588,0.091553
9.362236,-0.204774,-0.612526,10.050699,0.006529,0.008627,-0.002620,0.030518,0.122070,0.061035
9.372326,-0.213157,-0.606539,10.060878,-0.001853,0.014614,0.007559,0.061035,0.122070,0.091553
9.382416,-0.218546,-0.610131,10.057286,-0.007242,0.011022,0.003966,0.030518,0.091553,0.091553
9.392506,-0.234113,-0.613724,10.030941,-0.022810,0.007429,-0.022379,0.061035,0.091553,0.061035
9.402596,-0.214354,-0.626298,10.052496,-0.003051,-0.005145,-0.000824,0.152588,0.091553,0.030518
9.412689,-0.210762,-0.626896,10.046508,0.000542,-0.005744,-0.006812,0.091553,0.061035,0.061035
9.422778,-0.207768,-0.625699,10.051897,0.003536,-0.004546,-0.001423,0.061035,0.030518,0.061035
9.432944,-0.216151,-0.622106,10.050101,-0.004847,-0.000954,-0.003219,0.000000,0.091553,0.061035
9.443041,-0.210163,-0.622705,10.050101,0.001141,-0.001552,-0.003219,0.000000,0.091553,0.030518
9.453137,-0.208367,-0.621508,10.041119,0.002937,-0.000355,-0.012200,0.061035,0.091553,0.061035
9.463233,-0.206570,-0.625100,10.045909,0.004733,-0.003947,-0.007410,0.091553,0.061035,0.061035
9.473329,-0.205373,-0.629291,10.044113,0.005931,-0.008139,-0.009207,0.091553,0.091553,0.061035
9.483425,-0.201182,-0.632285,10.033336,0.010122,-0.011132,-0.019984,0.091553,0.152588,0.061035
9.493534,-0.205972,-0.625100,10.032138,0.005332,-0.003947,-0.021182,0.091553,0.152588,0.091553
9.503624,-0.210163,-0.620909,10.036928,0.001141,0.000244,-0.016392,0.091553,0.152588,0.061035
9.513718,-0.210163,-0.615520,10.042916,0.001141,0.005633,-0.010404,0.061035,0.152588,0.061035
9.523844,-0.210762,-0.613724,10.048304,0.000542,0.007429,-0.005015,0.030518,0.122070,0.030518
9.534023,-0.220342,-0.620909,10.044113,-0.009038,0.000244,-0.009207,0.061035,0.152588,0.030518
9.544113,-0.221539,-0.617915,10.048304,-0.010236,0.003238,-0.005015,0.061035,0.122070,0.030518
9.554205,-0.220941,-0.610131,10.047107,-0.009637,0.011022,-0.006213,0.061035,0.122070,0.030518
9.564296,-0.223934,-0.608335,10.057286,-0.012631,0.012818,0.003966,0.061035,0.091553,0.030518
9.574386,-0.226928,-0.604144,10.061477,-0.015625,0.017009,0.008157,0.061035,0.152588,0.030518
9.584476,-0.228724,-0.605940,10.055490,-0.017421,0.015213,0.002170,0.061035,0.122070,0.030518
9.594565,-0.228724,-0.607137,10.051897,-0.017421,0.014015,-0.001423,0.061035,0.122070,0.061035
9.604655,-0.242496,-0.614921,10.051298,-0.031192,0.006232,-0.002022,0.061035,0.122070,0.061035
9.614743,-0.244292,-0.625699,10.053094,-0.032988,-0.004546,-0.000225,0.061035,0.091553,0.061035
9.624882,-0.228724,-0.638273,10.049502,-0.017421,-0.017120,-0.003818,0.061035,0.091553,0.091553
9.635049,-0.225731,-0.646057,10.047107,-0.014427,-0.024904,-0.006213,0.061035,0.091553,0.091553
9.645147,-0.219743,-0.649050,10.048903,-0.008439,-0.027897,-0.004417,0.061035,0.091553,0.061035
9.655244,-0.198787,-0.647853,10.042916,0.012517,-0.026700,-0.010404,0.061035,0.091553,0.061035
9.665341,-0.189207,-0.643661,10.038724,0.022097,-0.022509,-0.014595,0.030518,0.122070,0.030518
9.675437,-0.182620,-0.641865,10.047107,0.028683,-0.020712,-0.006213,0.030518,0.122070,0.091553
9.685533,-0.180225,-0.638273,10.040521,0.031078,-0.017120,-0.012799,0.091553,0.152588,0.091553
9.695629,-0.186812,-0.646057,10.044113,0.024492,-0.024904,-0.009207,0.091553,0.183105,0.091553
9.705721,-0.195194,-0.646057,10.036928,0.016110,-0.024904,-0.016392,0.091553,0.152588,0.091553
9.715841,-0.205972,-0.643661,10.036928,0.005332,-0.022509,-0.016392,0.091553,0.091553,0.091553
9.725937,-0.216151,-0.639470,10.049502,-0.004847,-0.018317,-0.003818,0.061035,0.152588,0.091553
9.736115,-0.219743,-0.634081,10.049502,-0.008439,-0.012929,-0.003818,0.061035,0.152588,0.061035
9.746283,-0.217947,-0.626298,10.041718,-0.006643,-0.005145,-0.011602,0.061035,0.152588,0.030518
9.756372,-0.219144,-0.622705,10.042916,-0.007841,-0.001552,-0.010404,0.091553,0.122070,0.030518
9.766461,-0.213755,-0.615520,10.057286,-0.002452,0.005633,0.003966,0.091553,0.122070,0.000000
9.776550,-0.213157,-0.610730,10.056687,-0.001853,0.010423,0.003367,0.091553,0.122070,0.000000
9.786640,-0.209564,-0.608335,10.054292,0.001739,0.012818,0.000972,0.091553,0.122070,0.030518
9.796725,-0.205972,-0.605341,10.056088,0.005332,0.015812,0.002768,0.091553,0.122070,0.061035
9.806813,-0.203577,-0.604144,10.054292,0.007727,0.017009,0.000972,0.091553,0.122070,0.061035
9.816903,-0.205972,-0.613125,10.054292,0.005332,0.008028,0.000972,0.061035,0.152588,0.091553
9.826993,-0.210762,-0.623903,10.057286,0.000542,-0.002750,0.003966,0.061035,0.122070,0.091553
9.837169,-0.216151,-0.626298,10.053094,-0.004847,-0.005145,-0.000225,0.061035,0.091553,0.122070
9.847265,-0.214354,-0.625699,10.053094,-0.003051,-0.004546,-0.000225,0.030518,0.061035,0.091553
9.857358,-0.212558,-0.633483,10.045311,-0.001254,-0.012330,-0.008009,0.061035,0.030518,0.061035
9.867467,-0.213755,-0.636476,10.052496,-0.002452,-0.015324,-0.000824,0.091553,0.061035,0.030518
9.877566,-0.214354,-0.640668,10.055490,-0.003051,-0.019515,0.002170,0.091553,0.061035,0.030518
9.887663,-0.224533,-0.642464,10.045909,-0.013229,-0.021311,-0.007410,0.091553,0.061035,0.030518
9.897773,-0.222138,-0.638273,10.040521,-0.010834,-0.017120,-0.012799,0.061035,0.091553,0.061035
9.907896,-0.217947,-0.630489,10.041119,-0.006643,-0.009336,-0.012200,0.061035,0.091553,0.091553
9.918013,-0.211959,-0.628693,10.046508,-0.000656,-0.007540,-0.006812,0.061035,0.091553,0.061035
9.928126,-0.216151,-0.625100,10.048903,-0.004847,-0.003947,-0.004417,0.000000,0.122070,0.061035
9.938328,-0.208367,-0.623903,10.047107,0.002937,-0.002750,-0.006213,0.000000,0.122070,0.091553
9.948419,-0.205972,-0.624501,10.049502,0.005332,-0.003349,-0.003818,0.030518,0.152588,0.061035
9.958509,-0.214953,-0.613125,10.048304,-0.003649,0.008028,-0.005015,0.030518,0.152588,0.091553
9.968599,-0.214953,-0.611927,10.050699,-0.003649,0.009225,-0.002620,0.030518,0.152588,0.091553
9.978688,-0.222138,-0.611329,10.052496,-0.010834,0.009824,-0.000824,0.030518,0.152588,0.091553
9.988779,-0.222138,-0.611927,10.044712,-0.010834,0.009225,-0.008608,0.030518,0.122070,0.091553
9.998868,-0.225731,-0.617316,10.045909,-0.014427,0.003837,-0.007410,0.030518,0.091553,0.091553
10.008958,-0.225731,-0.615520,10.047107,-0.014427,0.005633,-0.006213,0.061035,0.091553,0.122070
10.019047,-0.223934,-0.617316,10.053693,-0.012631,0.003837,0.000373,0.091553,0.091553,0.091553
10.029142,-0.218546,-0.623304,10.057286,-0.007242,-0.002151,0.003966,0.091553,0.061035,0.061035
10.039319,-0.214354,-0.619113,10.056687,-0.003051,0.002040,0.003367,0.061035,0.091553,0.030518
10.049445,-0.210163,-0.623304,10.050101,0.001141,-0.002151,-0.003219,0.061035,0.091553,0.030518
10.059546,-0.206570,-0.625699,10.050101,0.004733,-0.004546,-0.003219,0.030518,0.091553,0.030518
10.069643,-0.208965,-0.635878,10.054292,0.002338,-0.014725,0.000972,0.061035,0.091553,0.061035
10.079740,-0.212558,-0.636476,10.048903,-0.001254,-0.015324,-0.004417,0.061035,0.152588,0.091553
10.089833,-0.212558,-0.640069,10.043514,-0.001254,-0.018916,-0.009805,0.030518,0.183105,0.091553
10.099941,-0.213755,-0.631686,10.045909,-0.002452,-0.010534,-0.007410,0.061035,0.152588,0.091553
10.110033,-0.214953,-0.635878,10.048903,-0.003649,-0.014725,-0.004417,0.061035,0.122070,0.061035
10.120131,-0.220941,-0.620909,10.059681,-0.009637,0.000244,0.006361,0.061035,0.122070,0.091553
10.130227,-0.216749,-0.613724,10.057885,-0.005446,0.007429,0.004565,0.030518,0.122070,0.061035
10.140422,-0.215552,-0.609532,10.059082,-0.004248,0.011620,0.005762,0.061035,0.122070,0.061035
10.150513,-0.215552,-0.607736,10.066267,-0.004248,0.013417,0.012947,0.122070,0.091553,0.030518
10.160603,-0.207768,-0.604144,10.068662,0.003536,0.017009,0.015342,0.152588,0.091553,0.030518
10.170694,-0.210762,-0.598755,10.066866,0.000542,0.022398,0.013546,0.122070,0.091553,0.030518
10.180783,-0.210163,-0.602946,10.060280,0.001141,0.018207,0.006960,0.122070,0.091553,0.030518
10.190873,-0.205972,-0.618514,10.054891,0.005332,0.002639,0.001571,0.091553,0.122070,0.061035
10.200963,-0.208367,-0.626298,10.053094,0.002937,-0.005145,-0.000225,0.061035,0.122070,0.061035
10.211051,-0.210762,-0.631686,10.053094,0.000542,-0.010534,-0.000225,0.061035,0.122070,0.030518
10.221141,-0.207169,-0.632884,10.057885,0.004134,-0.011731,0.004565,0.030518,0.122070,0.000000
10.231229,-0.207768,-0.640668,10.055490,0.003536,-0.019515,0.002170,0.061035,0.122070,0.030518
10.241400,-0.201780,-0.638273,10.051298,0.009523,-0.017120,-0.002022,0.091553,0.122070,0.030518
10.251494,-0.208367,-0.635279,10.047107,0.002937,-0.014126,-0.006213,0.091553,0.091553,0.030518
10.261587,-0.206570,-0.632884,10.054891,0.004733,-0.011731,0.001571,0.061035,0.122070,0.030518
10.271683,-0.213157,-0.619113,10.066267,-0.001853,0.002040,0.012947,0.061035,0.122070,0.030518
10.281780,-0.214354,-0.609532,10.063872,-0.003051,0.011620,0.010552,0.061035,0.152588,0.061035
10.291877,-0.220342,-0.607137,10.059082,-0.009038,0.014015,0.005762,0.061035,0.183105,0.061035
10.301982,-0.225132,-0.609532,10.054891,-0.013828,0.011620,0.001571,0.061035,0.152588,0.061035
10.312077,-0.226329,-0.605341,10.059082,-0.015026,0.015812,0.005762,0.091553,0.122070,0.030518
10.322174,-0.228126,-0.616119,10.064471,-0.016822,0.005034,0.011151,0.091553,0.122070,0.030518
10.332269,-0.231718,-0.625699,10.059681,-0.020415,-0.004546,0.006361,0.061035,0.122070,0.000000
10.342453,-0.226329,-0.630489,10.059082,-0.015026,-0.009336,0.005762,0.030518,0.091553,0.030518
10.352542,-0.218546,-0.638871,10.054292,-0.007242,-0.017719,0.000972,0.030518,0.122070,0.061035
10.362633,-0.214354,-0.640069,10.057885,-0.003051,-0.018916,0.004565,0.000000,0.091553,0.030518
10.372723,-0.213755,-0.635279,10.063872,-0.002452,-0.014126,0.010552,0.000000,0.122070,0.030518
10.382812,-0.202379,-0.632884,10.059681,0.008924,-0.011731,0.006361,0.030518,0.122070,0.000000
10.392902,-0.199385,-0.622705,10.047107,0.011918,-0.001552,-0.006213,0.061035,0.091553,0.030518
10.402992,-0.198188,-0.626896,10.047706,0.013116,-0.005744,-0.005614,0.091553,0.091553,0.061035
10.413081,-0.201182,-0.627495,10.050699,0.010122,-0.006342,-0.002620,0.091553,0.061035,0.030518
10.423171,-0.208367,-0.623903,10.056088,0.002937,-0.002750,0.002768,0.091553,0.091553,0.091553
10.433263,-0.207169,-0.620310,10.053693,0.004134,0.000843,0.000373,0.091553,0.122070,0.061035
10.443432,-0.215552,-0.609532,10.056687,-0.004248,0.011620,0.003367,0.091553,0.122070,0.061035
10.453529,-0.219743,-0.610730,10.063872,-0.008439,0.010423,0.010552,0.061035,0.122070,0.061035
10.463625,-0.230521,-0.606539,10.060280,-0.019217,0.014614,0.006960,0.061035,0.122070,0.091553
10.473725,-0.232916,-0.614921,10.068662,-0.021612,0.006232,0.015342,0.061035,0.152588,0.091553
10.483822,-0.228126,-0.615520,10.066267,-0.016822,0.005633,0.012947,0.061035,0.122070,0.091553
10.493915,-0.234712,-0.607736,10.065070,-0.023408,0.013417,0.011750,0.091553,0.091553,0.091553
10.504006,-0.233514,-0.608934,10.059681,-0.022211,0.012219,0.006361,0.061035,0.122070,0.091553
10.514100,-0.227527,-0.611927,10.059082,-0.016223,0.009225,0.005762,0.061035,0.122070,0.091553
10.524196,-0.217348,-0.611927,10.059082,-0.006044,0.009225,0.005762,0.030518,0.091553,0.091553
10.534292,-0.195793,-0.618514,10.051897,0.015511,0.002639,-0.001423,0.061035,0.122070,0.091553
10.544478,-0.194595,-0.619711,10.055490,0.016708,0.001442,0.002170,0.030518,0.091553,0.091553
10.554568,-0.185614,-0.622705,10.047107,0.025690,-0.001552,-0.006213,0.061035,0.091553,0.122070
10.564658,-0.188608,-0.624501,10.056088,0.022696,-0.003349,0.002768,0.091553,0.091553,0.091553
10.574748,-0.189805,-0.626896,10.057885,0.021498,-0.005744,0.004565,0.061035,0.091553,0.122070
10.584848,-0.199385,-0.629890,10.058483,0.011918,-0.008737,0.005164,0.061035,0.091553,0.091553
10.594937,-0.204774,-0.627495,10.059681,0.006529,-0.006342,0.006361,0.061035,0.091553,0.061035
10.605026,-0.216151,-0.620310,10.059082,-0.004847,0.000843,0.005762,0.091553,0.091553,0.091553
10.615130,-0.223336,-0.624501,10.066267,-0.012032,-0.003349,0.012947,0.091553,0.091553,0.061035
10.625216,-0.238903,-0.619113,10.068662,-0.027600,0.002040,0.015342,0.122070,0.122070,0.061035
10.635299,-0.235909,-0.620909,10.069261,-0.024606,0.000244,0.015941,0.061035,0.122070,0.030518
10.645417,-0.228126,-0.611927,10.066267,-0.016822,0.009225,0.012947,0.091553,0.030518,0.000000
10.655507,-0.225731,-0.615520,10.059681,-0.014427,0.005633,0.006361,0.091553,0.061035,0.030518
10.665596,-0.215552,-0.614921,10.063273,-0.004248,0.006232,0.009954,0.061035,0.061035,0.030518
10.675685,-0.204774,-0.605940,10.061477,0.006529,0.015213,0.008157,0.030518,0.091553,0.061035
10.685776,-0.201182,-0.607137,10.062675,0.010122,0.014015,0.009355,0.061035,0.061035,0.061035
10.695865,-0.200583,-0.610131,10.057286,0.010721,0.011022,0.003966,0.061035,0.061035,0.061035
10.705950,-0.198787,-0.608335,10.055490,0.012517,0.012818,0.002170,0.061035,0.091553,0.061035
10.716039,-0.193997,-0.610131,10.063273,0.017307,0.011022,0.009954,0.091553,0.152588,0.091553
10.726129,-0.195793,-0.619711,10.069860,0.015511,0.001442,0.016540,0.091553,0.152588,0.091553
10.736218,-0.201780,-0.616119,10.068063,0.009523,0.005034,0.014744,0.061035,0.122070,0.061035
10.746386,-0.205972,-0.626298,10.058483,0.005332,-0.005145,0.005164,0.091553,0.122070,0.061035
10.756483,-0.211959,-0.628094,10.054292,-0.000656,-0.006941,0.000972,0.061035,0.152588,0.061035
10.766579,-0.212558,-0.629890,10.064471,-0.001254,-0.008737,0.011151,0.061035,0.152588,0.000000
10.776675,-0.216151,-0.626298,10.065668,-0.004847,-0.005145,0.012349,0.061035,0.152588,0.030518
10.786771,-0.220342,-0.626896,10.062076,-0.009038,-0.005744,0.008756,0.000000,0.122070,0.030518
10.796869,-0.217348,-0.618514,10.060280,-0.006044,0.002639,0.006960,0.000000,0.122070,0.030518
10.806964,-0.213755,-0.620310,10.059681,-0.002452,0.000843,0.006361,0.030518,0.091553,0.061035
10.817063,-0.199984,-0.612526,10.060280,0.011319,0.008627,0.006960,0.000000,0.091553,0.091553
10.827159,-0.198188,-0.604144,10.065070,0.013116,0.017009,0.011750,0.030518,0.122070,0.061035
10.837256,-0.175435,-0.607137,10.071656,0.035868,0.014015,0.018336,0.030518,0.122070,0.061035
10.847393,-0.186213,-0.608335,10.071656,0.025091,0.012818,0.018336,0.061035,0.091553,0.030518
10.857489,-0.186812,-0.613724,10.038126,0.024492,0.007429,-0.015194,0.030518,0.091553,0.030518
10.867586,-0.184417,-0.610131,10.054292,0.026887,0.011022,0.000972,0.030518,0.122070,0.030518
10.877682,-0.177830,-0.619113,10.047706,0.033473,0.002040,-0.005614,0.000000,0.152588,0.061035
10.887779,-0.202379,-0.619113,10.056088,0.008924,0.002040,0.002768,0.000000,0.152588,0.030518
10.897876,-0.211959,-0.610131,10.053693,-0.000656,0.011022,0.000373,0.030518,0.152588,0.030518
10.907971,-0.217947,-0.613724,10.053094,-0.006643,0.007429,-0.000225,0.091553,0.122070,0.030518
10.918064,-0.234712,-0.616718,10.060280,-0.023408,0.004435,0.006960,0.061035,0.091553,0.030518
10.928160,-0.243693,-0.630489,10.052496,-0.032390,-0.009336,-0.000824,0.061035,0.091553,0.030518
10.938256,-0.244891,-0.634081,10.048903,-0.033587,-0.012929,-0.004417,0.061035,0.091553,0.030518
10.948383,-0.252076,-0.634081,10.046508,-0.040772,-0.012929,-0.006812,0.122070,0.061035,0.061035
10.958480,-0.232916,-0.637075,10.042916,-0.021612,-0.015922,-0.010404,0.061035,0.061035,0.061035
10.968577,-0.237706,-0.644260,10.062675,-0.026402,-0.023107,0.009355,0.061035,0.122070,0.030518
10.978674,-0.219743,-0.631088,10.052496,-0.008439,-0.009935,-0.000824,0.061035,0.091553,0.000000
10.988771,-0.213157,-0.629291,10.052496,-0.001853,-0.008139,-0.000824,0.091553,0.091553,0.000000
10.998868,-0.192799,-0.613724,10.033934,0.018505,0.007429,-0.019385,0.091553,0.122070,0.030518
11.008965,-0.192200,-0.611927,10.047706,0.019103,0.009225,-0.005614,0.091553,0.091553,0.000000
11.019061,-0.188009,-0.610730,10.048304,0.023295,0.010423,-0.005015,0.091553,0.122070,0.030518
