time,ax_raw,ay_raw,az_raw,ax,ay,az,gx,gy,gz
0.001865,-0.148491,-0.814905,10.047706,-0.001809,-0.001947,-0.013367,0.030518,0.030518,0.000000
0.011958,-0.142504,-0.814307,10.049502,0.004179,-0.001349,-0.011571,0.030518,0.061035,0.000000
0.022046,-0.138911,-0.811912,10.051298,0.007771,0.001046,-0.009775,0.061035,0.091553,0.000000
0.032132,-0.131726,-0.814307,10.058483,0.014956,-0.001349,-0.002590,0.030518,0.091553,0.000000
0.042218,-0.130529,-0.815504,10.059082,0.016154,-0.002546,-0.001991,0.030518,0.091553,0.000000
0.052304,-0.136516,-0.810714,10.062076,0.010166,0.002244,0.001003,0.030518,0.122070,0.000000
0.062389,-0.141905,-0.811912,10.059082,0.004777,0.001046,-0.001991,0.000000,0.122070,0.000000
0.072474,-0.149689,-0.810714,10.054891,-0.003006,0.002244,-0.006182,0.000000,0.091553,0.030518
0.082560,-0.146096,-0.810115,10.061477,0.000586,0.002843,0.000404,-0.061035,0.061035,0.030518
0.092646,-0.150886,-0.805924,10.065668,-0.004204,0.007034,0.004595,-0.091553,0.030518,0.000000
0.102731,-0.146096,-0.807720,10.066866,0.000586,0.005238,0.005793,0.000000,0.030518,0.000000
0.112817,-0.143102,-0.807122,10.066866,0.003580,0.005836,0.005793,-0.030518,0.030518,-0.030518
0.122908,-0.143701,-0.809517,10.064471,0.002981,0.003441,0.003398,-0.030518,0.061035,-0.030518
0.133006,-0.144899,-0.813109,10.065070,0.001784,-0.000151,0.003997,-0.030518,0.061035,-0.030518
0.143103,-0.146096,-0.813109,10.067465,0.000586,-0.000151,0.006392,-0.030518,0.091553,0.000000
0.153201,-0.147294,-0.824485,10.057885,-0.000611,-0.011528,-0.003188,-0.061035,0.061035,-0.030518
0.163304,-0.146695,-0.819695,10.052496,-0.000013,-0.006737,-0.008577,-0.030518,0.030518,-0.030518
0.173400,-0.149689,-0.817300,10.050101,-0.003006,-0.004342,-0.010972,0.000000,0.061035,-0.030518
0.183498,-0.155676,-0.814905,10.049502,-0.008994,-0.001947,-0.011571,0.000000,0.030518,-0.030518
0.193595,-0.152084,-0.815504,10.051897,-0.005402,-0.002546,-0.009176,0.000000,0.030518,0.030518
0.203693,-0.149090,-0.809517,10.048304,-0.002408,0.003441,-0.012768,0.000000,0.030518,0.061035
0.213789,-0.146695,-0.803529,10.046508,-0.000013,0.009429,-0.014565,0.000000,0.000000,0.000000
0.223886,-0.141905,-0.811912,10.054891,0.004777,0.001046,-0.006182,0.000000,-0.030518,0.000000
0.233983,-0.137714,-0.807720,10.060280,0.008969,0.005238,-0.000793,0.000000,0.000000,0.030518
0.244080,-0.128134,-0.805325,10.069261,0.018549,0.007633,0.008188,0.030518,0.030518,0.000000
0.254177,-0.133522,-0.809517,10.064471,0.013160,0.003441,0.003398,0.030518,0.030518,0.000000
0.264275,-0.144300,-0.809517,10.060878,0.002382,0.003441,-0.000195,0.000000,0.030518,0.000000
0.274372,-0.148491,-0.804727,10.048903,-0.001809,0.008231,-0.012170,0.000000,0.030518,0.000000
0.284469,-0.157473,-0.807720,10.059681,-0.010790,0.005238,-0.001392,0.030518,0.030518,0.000000
0.294566,-0.160466,-0.811912,10.054292,-0.013784,0.001046,-0.006781,0.030518,0.061035,0.000000
0.304663,-0.162263,-0.816103,10.053094,-0.015580,-0.003145,-0.007978,0.000000,0.061035,0.030518
0.314761,-0.162861,-0.820294,10.044712,-0.016179,-0.007336,-0.016361,-0.030518,0.030518,0.030518
0.324858,-0.154479,-0.822689,10.047107,-0.007797,-0.009731,-0.013966,0.000000,0.061035,0.030518
0.334955,-0.149090,-0.825084,10.052496,-0.002408,-0.012126,-0.008577,0.030518,0.000000,-0.030518
0.345047,-0.150287,-0.824485,10.043514,-0.003605,-0.011528,-0.017558,0.061035,0.000000,-0.061035
0.355144,-0.147892,-0.822689,10.047107,-0.001210,-0.009731,-0.013966,0.000000,0.030518,-0.030518
0.365239,-0.146695,-0.822689,10.047706,-0.000013,-0.009731,-0.013367,0.061035,0.000000,-0.061035
0.375339,-0.150287,-0.814905,10.051298,-0.003605,-0.001947,-0.009775,0.061035,0.000000,-0.061035
0.385437,-0.156275,-0.823887,10.056687,-0.009593,-0.010929,-0.004386,0.000000,0.000000,-0.030518
0.395535,-0.160466,-0.820893,10.059082,-0.013784,-0.007935,-0.001991,0.030518,0.030518,-0.030518
0.405633,-0.155676,-0.819097,10.050699,-0.008994,-0.006139,-0.010373,0.030518,0.000000,-0.061035
0.415731,-0.148491,-0.819097,10.048903,-0.001809,-0.006139,-0.012170,0.000000,0.030518,-0.061035
0.425829,-0.143701,-0.807122,10.048903,0.002981,0.005836,-0.012170,0.000000,0.030518,0.000000
0.435926,-0.140109,-0.808918,10.053693,0.006574,0.004040,-0.007380,0.030518,0.061035,0.030518
0.446023,-0.149689,-0.808319,10.048903,-0.003006,0.004639,-0.012170,0.061035,0.061035,0.000000
0.456121,-0.147294,-0.811912,10.051897,-0.000611,0.001046,-0.009176,0.061035,0.061035,0.030518
0.466218,-0.147294,-0.812510,10.053094,-0.000611,0.000448,-0.007978,0.091553,0.091553,0.030518
0.476315,-0.149689,-0.812510,10.048903,-0.003006,0.000448,-0.012170,0.061035,0.030518,0.000000
0.486413,-0.148491,-0.811912,10.057286,-0.001809,0.001046,-0.003787,0.091553,0.030518,0.030518
0.496510,-0.149689,-0.818498,10.053094,-0.003006,-0.005540,-0.007978,0.061035,0.030518,0.061035
0.506606,-0.146096,-0.816702,10.058483,0.000586,-0.003744,-0.002590,0.030518,0.061035,0.030518
0.516704,-0.152682,-0.815504,10.053693,-0.006000,-0.002546,-0.007380,0.061035,0.091553,-0.061035
0.526802,-0.146695,-0.813109,10.048903,-0.000013,-0.000151,-0.012170,0.030518,0.091553,0.000000
0.536898,-0.143102,-0.808918,10.053693,0.003580,0.004040,-0.007380,0.061035,0.061035,0.061035
0.546995,-0.149090,-0.815504,10.054891,-0.002408,-0.002546,-0.006182,0.061035,0.030518,0.061035
0.557093,-0.144899,-0.818498,10.050101,0.001784,-0.005540,-0.010972,0.061035,0.030518,0.030518
0.567190,-0.148491,-0.817899,10.044113,-0.001809,-0.004941,-0.016960,0.091553,0.030518,0.030518
0.577288,-0.154479,-0.818498,10.040521,-0.007797,-0.005540,-0.020552,0.061035,0.030518,0.000000
0.587385,-0.147294,-0.819097,10.050699,-0.000611,-0.006139,-0.010373,0.061035,0.000000,0.030518
0.597482,-0.151485,-0.820294,10.051897,-0.004803,-0.007336,-0.009176,0.061035,0.000000,0.030518
0.607579,-0.154479,-0.820893,10.051897,-0.007797,-0.007935,-0.009176,0.030518,-0.030518,0.000000
0.617675,-0.164059,-0.821492,10.045311,-0.017377,-0.008534,-0.015762,0.030518,0.000000,0.000000
0.627772,-0.162263,-0.822090,10.048903,-0.015580,-0.009133,-0.012170,0.030518,0.030518,0.000000
0.637869,-0.156874,-0.817899,10.056687,-0.010192,-0.004941,-0.004386,0.030518,0.091553,-0.030518
0.647965,-0.147294,-0.822090,10.051897,-0.000611,-0.009133,-0.009176,0.030518,0.091553,-0.030518
0.658063,-0.152084,-0.817300,10.050101,-0.005402,-0.004342,-0.010972,0.061035,0.061035,-0.030518
0.668159,-0.146695,-0.817899,10.048304,-0.000013,-0.004941,-0.012768,0.030518,0.030518,-0.030518
0.678253,-0.143701,-0.814905,10.050101,0.002981,-0.001947,-0.010972,0.030518,0.000000,0.000000
0.688351,-0.144899,-0.808319,10.060878,0.001784,0.004639,-0.000195,0.030518,0.030518,-0.030518
0.698444,-0.145497,-0.810714,10.057286,0.001185,0.002244,-0.003787,0.030518,0.061035,-0.030518
0.708541,-0.140707,-0.812510,10.053693,0.005975,0.000448,-0.007380,0.061035,0.030518,-0.030518
0.718638,-0.138312,-0.813109,10.050699,0.008370,-0.000151,-0.010373,0.030518,0.000000,-0.030518
0.728735,-0.145497,-0.817899,10.054292,0.001185,-0.004941,-0.006781,0.000000,-0.030518,-0.030518
0.738834,-0.142504,-0.821492,10.049502,0.004179,-0.008534,-0.011571,0.030518,0.000000,-0.030518
0.748931,-0.144899,-0.816702,10.050101,0.001784,-0.003744,-0.010972,0.000000,0.000000,-0.030518
0.759028,-0.158071,-0.815504,10.046508,-0.011389,-0.002546,-0.014565,0.030518,0.000000,-0.030518
0.769125,-0.156275,-0.817300,10.044113,-0.009593,-0.004342,-0.016960,0.000000,0.030518,0.000000
0.779222,-0.155676,-0.821492,10.047706,-0.008994,-0.008534,-0.013367,0.000000,0.061035,0.030518
0.789320,-0.154479,-0.815504,10.053094,-0.007797,-0.002546,-0.007978,0.030518,0.061035,0.000000
0.799417,-0.143701,-0.817899,10.048903,0.002981,-0.004941,-0.012170,0.030518,0.030518,0.000000
0.809515,-0.143102,-0.819097,10.047706,0.003580,-0.006139,-0.013367,0.030518,0.030518,0.000000
0.819612,-0.143102,-0.807122,10.043514,0.003580,0.005836,-0.017558,0.030518,0.030518,0.000000
0.829709,-0.144899,-0.804727,10.052496,0.001784,0.008231,-0.008577,0.061035,0.030518,-0.030518
0.839807,-0.148491,-0.813109,10.066267,-0.001809,-0.000151,0.005194,0.061035,-0.030518,-0.030518
0.849904,-0.140707,-0.804727,10.052496,0.005975,0.008231,-0.008577,0.061035,-0.030518,0.000000
0.860003,-0.138911,-0.804128,10.053094,0.007771,0.008830,-0.007978,0.061035,0.000000,-0.030518
0.870100,-0.135319,-0.804128,10.054891,0.011364,0.008830,-0.006182,0.061035,0.061035,0.000000
0.880200,-0.136516,-0.802930,10.057286,0.010166,0.010028,-0.003787,0.030518,0.030518,0.030518
0.890299,-0.144300,-0.804128,10.065668,0.002382,0.008830,0.004595,0.030518,0.030518,0.030518
0.900395,-0.142504,-0.805924,10.068662,0.004179,0.007034,0.007589,0.030518,0.000000,0.030518
0.910493,-0.143102,-0.807720,10.062675,0.003580,0.005238,0.001602,0.000000,0.000000,0.030518
0.920589,-0.146096,-0.812510,10.059681,0.000586,0.000448,-0.001392,-0.030518,0.000000,0.030518
0.930679,-0.149689,-0.812510,10.059681,-0.003006,0.000448,-0.001392,0.000000,0.000000,0.030518
0.940769,-0.146096,-0.809517,10.066267,0.000586,0.003441,0.005194,-0.030518,0.000000,0.030518
0.950860,-0.146695,-0.811912,10.065070,-0.000013,0.001046,0.003997,-0.030518,0.030518,0.000000
0.960951,-0.140707,-0.809517,10.055490,0.005975,0.003441,-0.005583,0.000000,0.061035,0.000000
0.971041,-0.138312,-0.808319,10.053693,0.008370,0.004639,-0.007380,-0.030518,0.061035,0.000000
0.981131,-0.142504,-0.810714,10.048304,0.004179,0.002244,-0.012768,0.000000,0.030518,-0.030518
0.991219,-0.136516,-0.819097,10.051298,0.010166,-0.006139,-0.009775,-0.030518,0.000000,0.000000
1.001309,-0.138312,-0.819695,10.054891,0.008370,-0.006737,-0.006182,-0.030518,0.000000,0.030518
1.011399,-0.137115,-0.819097,10.047706,0.009567,-0.006139,-0.013367,-0.030518,0.030518,0.000000
1.021490,-0.140707,-0.815504,10.050101,0.005975,-0.002546,-0.010972,0.000000,0.030518,0.000000
1.031587,-0.140109,-0.816702,10.059681,0.006574,-0.003744,-0.001392,-0.030518,0.000000,0.000000
1.041685,-0.140109,-0.811313,10.064471,0.006574,0.001645,0.003398,0.000000,0.000000,0.000000
1.051783,-0.141905,-0.811313,10.063273,0.004777,0.001645,0.002200,0.000000,0.061035,0.030518
1.061880,-0.144300,-0.812510,10.054891,0.002382,0.000448,-0.006182,0.000000,0.030518,0.061035
1.071977,-0.149090,-0.808918,10.050101,-0.002408,0.004040,-0.010972,0.030518,0.061035,0.061035
1.082074,-0.143701,-0.805325,10.063872,0.002981,0.007633,0.002799,0.000000,0.000000,0.000000
1.092170,-0.139510,-0.807122,10.060280,0.007172,0.005836,-0.000793,0.000000,0.000000,0.061035
1.102267,-0.147294,-0.810714,10.051298,-0.000611,0.002244,-0.009775,0.000000,0.030518,0.000000
1.112365,-0.149090,-0.803529,10.051897,-0.002408,0.009429,-0.009176,0.000000,0.030518,0.000000
1.122462,-0.155676,-0.803529,10.051298,-0.008994,0.009429,-0.009775,0.000000,0.030518,0.000000
1.132560,-0.153281,-0.807122,10.052496,-0.006599,0.005836,-0.008577,-0.030518,0.030518,-0.061035
1.142657,-0.147294,-0.805325,10.057885,-0.000611,0.007633,-0.003188,-0.061035,0.061035,-0.030518
1.152755,-0.148491,-0.803529,10.056088,-0.001809,0.009429,-0.004985,-0.061035,0.061035,0.000000
1.162856,-0.149689,-0.800535,10.049502,-0.003006,0.012423,-0.011571,-0.061035,0.061035,0.000000
1.172955,-0.143102,-0.798140,10.046508,0.003580,0.014818,-0.014565,-0.030518,0.091553,0.030518
1.183049,-0.142504,-0.798140,10.057286,0.004179,0.014818,-0.003787,-0.030518,0.091553,0.000000
1.193148,-0.141905,-0.802332,10.057885,0.004777,0.010626,-0.003188,-0.030518,0.030518,0.030518
1.203244,-0.136516,-0.801733,10.060280,0.010166,0.011225,-0.000793,-0.061035,0.030518,0.061035
1.213341,-0.134720,-0.805325,10.058483,0.011962,0.007633,-0.002590,-0.061035,0.061035,0.030518
1.223439,-0.142504,-0.803529,10.057286,0.004179,0.009429,-0.003787,-0.030518,0.030518,0.030518
1.233537,-0.141306,-0.801134,10.057885,0.005376,0.011824,-0.003188,0.000000,0.030518,0.061035
1.243634,-0.143102,-0.806523,10.060878,0.003580,0.006435,-0.000195,-0.030518,0.000000,0.061035
1.253731,-0.144300,-0.802332,10.056088,0.002382,0.010626,-0.004985,0.000000,0.000000,0.061035
1.263828,-0.143102,-0.803529,10.050699,0.003580,0.009429,-0.010373,0.000000,0.030518,0.000000
1.273921,-0.138312,-0.804128,10.048903,0.008370,0.008830,-0.012170,0.000000,0.030518,0.000000
1.284019,-0.137714,-0.800535,10.050699,0.008969,0.012423,-0.010373,0.000000,0.030518,0.000000
1.294116,-0.141905,-0.806523,10.055490,0.004777,0.006435,-0.005583,-0.030518,0.030518,0.030518
1.304212,-0.141905,-0.805924,10.057885,0.004777,0.007034,-0.003188,-0.030518,0.030518,0.030518
1.314308,-0.145497,-0.804727,10.050101,0.001185,0.008231,-0.010972,-0.030518,0.030518,0.030518
1.324405,-0.152682,-0.808319,10.044113,-0.006000,0.004639,-0.016960,0.030518,0.030518,0.030518
1.334502,-0.159868,-0.816103,10.059681,-0.013185,-0.003145,-0.001392,0.030518,0.000000,0.030518
1.344599,-0.159868,-0.811313,10.054891,-0.013185,0.001645,-0.006182,0.000000,0.000000,0.030518
1.354696,-0.156275,-0.811912,10.048304,-0.009593,0.001046,-0.012768,0.000000,0.000000,0.000000
1.364792,-0.165256,-0.813109,10.047706,-0.018574,-0.000151,-0.013367,0.000000,0.000000,-0.030518
1.374892,-0.159269,-0.813708,10.051897,-0.012587,-0.000750,-0.009176,0.030518,0.030518,0.000000
1.384990,-0.155676,-0.814307,10.061477,-0.008994,-0.001349,0.000404,0.061035,0.000000,0.000000
1.395088,-0.152084,-0.807720,10.057286,-0.005402,0.005238,-0.003787,0.030518,0.000000,-0.030518
1.405186,-0.149090,-0.808319,10.060280,-0.002408,0.004639,-0.000793,0.030518,0.000000,0.030518
1.415283,-0.147892,-0.810115,10.056687,-0.001210,0.002843,-0.004386,0.030518,0.000000,0.000000
1.425381,-0.150287,-0.804128,10.054891,-0.003605,0.008830,-0.006182,0.000000,0.000000,0.000000
1.435500,-0.147892,-0.801134,10.054292,-0.001210,0.011824,-0.006781,0.030518,0.000000,0.000000
1.445592,-0.144300,-0.802332,10.055490,0.002382,0.010626,-0.005583,0.000000,0.030518,0.000000
1.455683,-0.144300,-0.805924,10.048304,0.002382,0.007034,-0.012768,0.030518,0.030518,0.000000
1.465774,-0.145497,-0.807122,10.052496,0.001185,0.005836,-0.008577,0.030518,0.000000,0.000000
1.475866,-0.158071,-0.804128,10.050699,-0.011389,0.008830,-0.010373,0.030518,0.000000,0.000000
1.485956,-0.155078,-0.803529,10.055490,-0.008395,0.009429,-0.005583,0.030518,0.000000,0.000000
1.496047,-0.153281,-0.804128,10.046508,-0.006599,0.008830,-0.014565,0.030518,0.030518,0.030518
1.506138,-0.149689,-0.807720,10.047107,-0.003006,0.005238,-0.013966,0.000000,0.000000,0.000000
1.516228,-0.152682,-0.805924,10.048903,-0.006000,0.007034,-0.012170,0.030518,0.000000,0.061035
1.526318,-0.150287,-0.812510,10.050699,-0.003605,0.000448,-0.010373,0.061035,0.000000,0.030518
1.536413,-0.150886,-0.814307,10.053094,-0.004204,-0.001349,-0.007978,0.030518,0.030518,0.061035
1.546511,-0.147294,-0.808319,10.058483,-0.000611,0.004639,-0.002590,0.000000,0.000000,0.030518
1.556609,-0.149689,-0.811313,10.053094,-0.003006,0.001645,-0.007978,0.030518,0.030518,0.030518
1.566707,-0.150287,-0.811912,10.053094,-0.003605,0.001046,-0.007978,0.000000,0.030518,0.030518
1.576804,-0.146695,-0.812510,10.051298,-0.000013,0.000448,-0.009775,0.000000,0.000000,0.000000
1.586901,-0.144300,-0.809517,10.056687,0.002382,0.003441,-0.004386,0.000000,0.030518,-0.030518
1.596998,-0.150287,-0.815504,10.063872,-0.003605,-0.002546,0.002799,0.000000,0.000000,-0.030518
1.607095,-0.150886,-0.821492,10.059082,-0.004204,-0.008534,-0.001991,0.000000,0.030518,0.030518
1.617192,-0.152084,-0.827479,10.053094,-0.005402,-0.014521,-0.007978,0.000000,0.000000,0.030518
1.627286,-0.155078,-0.826282,10.055490,-0.008395,-0.013324,-0.005583,-0.030518,0.030518,0.000000
1.637384,-0.156275,-0.818498,10.058483,-0.009593,-0.005540,-0.002590,-0.030518,0.000000,0.030518
1.647512,-0.156874,-0.814905,10.060280,-0.010192,-0.001947,-0.000793,0.000000,0.000000,0.030518
1.657610,-0.146096,-0.820294,10.048903,0.000586,-0.007336,-0.012170,0.000000,-0.030518,0.030518
1.667708,-0.148491,-0.816702,10.047107,-0.001809,-0.003744,-0.013966,0.000000,0.000000,0.000000
1.677802,-0.134720,-0.813109,10.048304,0.011962,-0.000151,-0.012768,0.000000,-0.030518,0.030518
1.687897,-0.147294,-0.821492,10.050101,-0.000611,-0.008534,-0.010972,0.000000,-0.030518,0.061035
1.697994,-0.146096,-0.817899,10.048304,0.000586,-0.004941,-0.012768,0.000000,0.000000,0.061035
1.708091,-0.143701,-0.817899,10.048304,0.002981,-0.004941,-0.012768,0.000000,0.030518,0.061035
1.718189,-0.149090,-0.818498,10.041718,-0.002408,-0.005540,-0.019355,-0.030518,0.000000,0.030518
1.728288,-0.163460,-0.818498,10.055490,-0.016778,-0.005540,-0.005583,0.000000,0.030518,0.061035
1.738387,-0.161065,-0.820294,10.060280,-0.014383,-0.007336,-0.000793,0.000000,0.030518,0.030518
1.748486,-0.157473,-0.819695,10.059082,-0.010790,-0.006737,-0.001991,0.000000,0.030518,0.061035
1.758585,-0.153281,-0.823887,10.054891,-0.006599,-0.010929,-0.006182,0.000000,0.030518,0.030518
1.768682,-0.149090,-0.822090,10.053094,-0.002408,-0.009133,-0.007978,0.000000,0.000000,0.030518
1.778780,-0.141905,-0.822090,10.057286,0.004777,-0.009133,-0.003787,-0.030518,-0.030518,0.000000
1.788878,-0.141306,-0.823288,10.059681,0.005376,-0.010330,-0.001392,-0.061035,-0.030518,0.000000
1.798975,-0.140707,-0.820893,10.060280,0.005975,-0.007935,-0.000793,-0.061035,-0.030518,0.000000
1.809072,-0.142504,-0.823288,10.059681,0.004179,-0.010330,-0.001392,-0.061035,-0.030518,0.000000
1.819169,-0.137115,-0.811912,10.059082,0.009567,0.001046,-0.001991,-0.061035,-0.030518,-0.030518
1.829267,-0.132924,-0.817300,10.057286,0.013759,-0.004342,-0.003787,-0.030518,0.000000,-0.030518
1.839365,-0.137115,-0.814307,10.053693,0.009567,-0.001349,-0.007380,-0.030518,0.030518,0.000000
1.849463,-0.141905,-0.813708,10.053094,0.004777,-0.000750,-0.007978,0.030518,0.061035,-0.030518
1.859560,-0.139510,-0.814307,10.053693,0.007172,-0.001349,-0.007380,0.030518,0.030518,-0.030518
1.869657,-0.142504,-0.813708,10.057286,0.004179,-0.000750,-0.003787,0.000000,0.030518,-0.030518
1.879750,-0.143102,-0.816103,10.062675,0.003580,-0.003145,0.001602,0.030518,0.000000,0.000000
1.889848,-0.143701,-0.816702,10.063273,0.002981,-0.003744,0.002200,0.030518,0.000000,0.000000
1.899945,-0.151485,-0.820294,10.059681,-0.004803,-0.007336,-0.001392,0.030518,0.030518,0.030518
1.910043,-0.155676,-0.814905,10.051298,-0.008994,-0.001947,-0.009775,0.000000,0.061035,0.030518
1.920140,-0.136516,-0.818498,10.050699,0.010166,-0.005540,-0.010373,0.030518,0.030518,0.000000
1.930238,-0.141306,-0.818498,10.059082,0.005376,-0.005540,-0.001991,0.030518,0.030518,0.000000
1.940336,-0.143701,-0.813109,10.069860,0.002981,-0.000151,0.008787,0.000000,0.030518,0.061035
1.950433,-0.141306,-0.813708,10.068662,0.005376,-0.000750,0.007589,0.000000,0.030518,0.061035
1.960531,-0.140707,-0.805325,10.059082,0.005975,0.007633,-0.001991,-0.030518,0.061035,0.061035
1.970628,-0.137714,-0.802332,10.054891,0.008969,0.010626,-0.006182,0.000000,0.030518,0.061035
1.980725,-0.142504,-0.801134,10.058483,0.004179,0.011824,-0.002590,0.000000,0.030518,0.061035
1.990819,-0.135917,-0.814307,10.065070,0.010765,-0.001349,0.003997,0.030518,0.061035,0.030518
2.000916,-0.141306,-0.808918,10.065070,0.005376,0.004040,0.003997,0.030518,0.030518,0.030518
2.011013,-0.142504,-0.809517,10.063872,0.004179,0.003441,0.002799,0.000000,0.030518,0.000000
2.021111,-0.141306,-0.811313,10.060280,0.005376,0.001645,-0.000793,0.000000,0.030518,-0.030518
2.031208,-0.147294,-0.815504,10.065070,-0.000611,-0.002546,0.003997,-0.030518,0.061035,-0.030518
2.041304,-0.156275,-0.816103,10.066267,-0.009593,-0.003145,0.005194,-0.030518,0.061035,0.000000
2.051401,-0.156275,-0.814905,10.062076,-0.009593,-0.001947,0.001003,-0.030518,0.061035,0.030518
2.061498,-0.150287,-0.808918,10.059082,-0.003605,0.004040,-0.001991,-0.030518,0.061035,0.000000
2.071595,-0.144899,-0.807122,10.054292,0.001784,0.005836,-0.006781,-0.030518,0.061035,0.000000
2.081692,-0.152084,-0.805325,10.062076,-0.005402,0.007633,0.001003,0.000000,0.061035,0.000000
2.091789,-0.151485,-0.807122,10.060280,-0.004803,0.005836,-0.000793,0.000000,0.061035,0.030518
2.101887,-0.141905,-0.802332,10.063872,0.004777,0.010626,0.002799,0.000000,0.061035,0.000000
2.111983,-0.145497,-0.810714,10.060878,0.001185,0.002244,-0.000195,-0.030518,0.061035,-0.030518
2.122081,-0.142504,-0.807122,10.059681,0.004179,0.005836,-0.001392,-0.030518,0.030518,-0.061035
2.132177,-0.140707,-0.816702,10.066267,0.005975,-0.003744,0.005194,-0.061035,0.000000,-0.061035
2.142275,-0.143701,-0.814905,10.060878,0.002981,-0.001947,-0.000195,-0.030518,0.000000,-0.030518
2.152373,-0.144300,-0.816103,10.052496,0.002382,-0.003145,-0.008577,0.000000,0.030518,-0.061035
2.162470,-0.148491,-0.818498,10.051897,-0.001809,-0.005540,-0.009176,0.030518,0.030518,-0.061035
2.172566,-0.141306,-0.809517,10.057286,0.005376,0.003441,-0.003787,0.030518,0.061035,-0.061035
2.182660,-0.140109,-0.813708,10.063273,0.006574,-0.000750,0.002200,0.061035,0.030518,-0.061035
2.192757,-0.148491,-0.808918,10.057885,-0.001809,0.004040,-0.003188,0.030518,0.030518,0.000000
2.202856,-0.146096,-0.814905,10.062675,0.000586,-0.001947,0.001602,0.030518,0.030518,-0.030518
2.212953,-0.143701,-0.807720,10.063872,0.002981,0.005238,0.002799,0.030518,0.030518,0.000000
2.223050,-0.146695,-0.806523,10.060280,-0.000013,0.006435,-0.000793,0.030518,0.030518,0.030518
2.233146,-0.142504,-0.809517,10.066267,0.004179,0.003441,0.005194,0.000000,0.030518,0.030518
2.243244,-0.144300,-0.802930,10.065668,0.002382,0.010028,0.004595,-0.030518,0.030518,0.030518
2.253342,-0.145497,-0.809517,10.060878,0.001185,0.003441,-0.000195,-0.030518,0.000000,0.030518
2.263439,-0.153281,-0.804727,10.060878,-0.006599,0.008231,-0.000195,-0.030518,0.061035,0.030518
2.273537,-0.147294,-0.811313,10.053693,-0.000611,0.001645,-0.007380,-0.030518,0.030518,-0.030518
2.283635,-0.146695,-0.805924,10.056088,-0.000013,0.007034,-0.004985,-0.030518,0.030518,-0.030518
2.293744,-0.144300,-0.813708,10.062675,0.002382,-0.000750,0.001602,-0.030518,0.030518,-0.030518
2.303842,-0.146096,-0.812510,10.058483,0.000586,0.000448,-0.002590,-0.061035,0.030518,-0.030518
2.313939,-0.145497,-0.810714,10.059082,0.001185,0.002244,-0.001991,-0.061035,0.030518,0.000000
2.324037,-0.137714,-0.808918,10.062076,0.008969,0.004040,0.001003,-0.030518,0.030518,-0.030518
2.334133,-0.138312,-0.810714,10.066267,0.008370,0.002244,0.005194,-0.030518,0.061035,0.000000
2.344229,-0.128732,-0.808918,10.068662,0.017950,0.004040,0.007589,0.000000,0.030518,0.000000
2.354326,-0.134121,-0.814307,10.072255,0.012561,-0.001349,0.011182,0.030518,0.061035,-0.061035
2.364424,-0.134121,-0.807720,10.057885,0.012561,0.005238,-0.003188,0.061035,0.030518,-0.061035
2.374523,-0.138312,-0.808918,10.054891,0.008370,0.004040,-0.006182,0.061035,0.030518,-0.030518
2.384620,-0.144899,-0.810115,10.068063,0.001784,0.002843,0.006990,0.030518,0.030518,-0.030518
2.394715,-0.147892,-0.807720,10.065668,-0.001210,0.005238,0.004595,0.030518,0.030518,-0.030518
2.404813,-0.140109,-0.804128,10.066267,0.006574,0.008830,0.005194,0.030518,0.000000,-0.030518
2.414910,-0.142504,-0.808918,10.056687,0.004179,0.004040,-0.004386,0.061035,0.000000,-0.030518
2.425004,-0.138911,-0.807720,10.059082,0.007771,0.005238,-0.001991,0.091553,0.000000,0.030518
2.435103,-0.138312,-0.807720,10.059681,0.008370,0.005238,-0.001392,0.122070,0.030518,0.000000
2.445199,-0.142504,-0.803529,10.061477,0.004179,0.009429,0.000404,0.091553,0.061035,0.000000
2.455296,-0.148491,-0.817300,10.061477,-0.001809,-0.004342,0.000404,0.091553,0.030518,0.000000
2.465393,-0.142504,-0.816103,10.066267,0.004179,-0.003145,0.005194,0.061035,0.030518,0.000000
2.475492,-0.141905,-0.813708,10.067465,0.004777,-0.000750,0.006392,0.061035,0.061035,-0.030518
2.485589,-0.138911,-0.805325,10.067465,0.007771,0.007633,0.006392,0.061035,0.061035,0.000000
2.495687,-0.150287,-0.805924,10.068662,-0.003605,0.007034,0.007589,0.030518,0.091553,-0.030518
2.505785,-0.149689,-0.808319,10.068662,-0.003006,0.004639,0.007589,0.000000,0.061035,0.000000
2.515881,-0.152682,-0.814905,10.065070,-0.006000,-0.001947,0.003997,0.000000,0.091553,0.030518
2.525979,-0.150287,-0.820294,10.062675,-0.003605,-0.007336,0.001602,-0.030518,0.061035,0.030518
2.536076,-0.152682,-0.822689,10.068063,-0.006000,-0.009731,0.006990,0.000000,0.061035,-0.030518
2.546175,-0.158071,-0.818498,10.063872,-0.011389,-0.005540,0.002799,-0.030518,0.061035,0.000000
2.556272,-0.154479,-0.818498,10.059082,-0.007797,-0.005540,-0.001991,-0.030518,0.061035,0.000000
2.566368,-0.156874,-0.811912,10.060878,-0.010192,0.001046,-0.000195,-0.061035,0.030518,0.030518
2.576465,-0.159269,-0.808918,10.064471,-0.012587,0.004040,0.003398,-0.061035,0.061035,0.061035
2.586562,-0.156275,-0.811313,10.068063,-0.009593,0.001645,0.006990,-0.030518,0.030518,0.030518
2.596662,-0.149090,-0.815504,10.068063,-0.002408,-0.002546,0.006990,0.000000,0.030518,0.000000
2.606760,-0.150287,-0.813109,10.069261,-0.003605,-0.000151,0.008188,0.030518,0.061035,0.000000
2.616858,-0.156275,-0.813708,10.057885,-0.009593,-0.000750,-0.003188,0.061035,0.030518,0.000000
2.626951,-0.152682,-0.814905,10.057885,-0.006000,-0.001947,-0.003188,0.061035,0.000000,-0.030518
2.637049,-0.150287,-0.814905,10.060878,-0.003605,-0.001947,-0.000195,0.030518,0.061035,0.000000
2.647146,-0.151485,-0.813109,10.056687,-0.004803,-0.000151,-0.004386,0.000000,0.061035,0.030518
2.657244,-0.148491,-0.811313,10.052496,-0.001809,0.001645,-0.008577,0.000000,0.030518,0.030518
2.667341,-0.244891,-0.810714,10.053094,-0.098209,0.002244,-0.007978,0.000000,0.030518,0.030518
2.677435,-1.147813,-0.708926,10.079440,-1.001131,0.104032,0.018367,0.000000,0.061035,-2.563477
2.687532,-0.913700,-0.735870,10.053693,-0.767018,0.077088,-0.007380,-0.305176,0.183105,-5.371094
2.697629,-0.384401,-0.804727,10.048903,-0.237718,0.008231,-0.012170,-0.915527,0.213623,-8.605957
2.707726,-0.118553,-0.913700,10.056687,0.028129,-0.100742,-0.004386,-0.793457,0.396729,-11.962891
2.717823,-0.222737,-0.902922,10.059082,-0.076055,-0.089964,-0.001991,-0.640869,0.427246,-11.474609
2.727951,-0.640668,-0.907712,10.053094,-0.493986,-0.094754,-0.007978,-0.366211,0.396729,-9.948730
2.738046,-0.714913,-0.962199,10.071656,-0.568231,-0.149241,0.010583,-0.152588,0.457764,-9.735107
2.748142,-0.693957,-1.011297,10.065070,-0.547275,-0.198339,0.003997,0.091553,0.518799,-10.437012
2.758240,-0.419727,-0.939446,10.005793,-0.273045,-0.126488,-0.055280,1.190186,0.823975,-10.681152
2.768337,-0.249681,-0.828078,10.023157,-0.102999,-0.015120,-0.037916,0.335693,0.701904,-10.162354
2.778434,-0.307161,-0.712518,10.060878,-0.160479,0.100440,-0.000195,-0.274658,0.518799,-7.965088
2.788532,-0.507744,-0.705333,10.051298,-0.361062,0.107625,-0.009775,-0.335693,0.396729,-7.080078
2.798629,-0.687371,-0.769999,10.063273,-0.540688,0.042959,0.002200,-0.335693,0.457764,-7.293701
2.808725,-0.678988,-0.811912,10.061477,-0.532306,0.001046,0.000404,-0.610352,0.518799,-7.507324
2.818823,-0.632285,-0.855621,10.047706,-0.485603,-0.042663,-0.013367,-0.366211,0.823975,-7.965088
2.828919,-0.519120,-0.955613,10.044712,-0.372438,-0.142655,-0.016361,-0.305176,1.007080,-8.697510
2.839016,-0.504750,-0.593366,10.104587,-0.358068,0.219592,0.043515,-0.610352,0.915527,-8.666992
2.849113,-0.552052,-0.936453,10.120754,-0.405370,-0.123495,0.059681,-1.831055,0.640869,-7.141113
2.859210,-0.670605,-0.995131,10.076446,-0.523923,-0.182173,0.015373,-1.770020,0.793457,-7.934570
2.869308,-0.633483,-0.996328,10.030941,-0.486800,-0.183370,-0.030132,-1.342773,1.068115,-9.857178
2.879405,-0.431104,-1.032253,10.040521,-0.284421,-0.219295,-0.020552,-0.946045,0.946045,-9.918213
2.889502,-0.392184,-1.065185,10.065070,-0.245502,-0.252227,0.003997,0.000000,0.579834,-7.354736
2.899600,-0.420925,-0.860411,10.016570,-0.274242,-0.047453,-0.044502,0.213623,0.427246,-6.134033
2.909696,-0.341889,-0.867596,10.054292,-0.195207,-0.054638,-0.006781,-0.152588,0.091553,-5.004883
2.919793,-0.341290,-0.891546,10.048304,-0.194608,-0.078588,-0.012768,-0.030518,0.000000,-4.180908
2.929889,-0.312550,-0.742456,10.040521,-0.165868,0.070502,-0.020552,0.000000,-0.091553,-3.784180
2.939986,-0.194595,-0.873583,10.112371,-0.047913,-0.060625,0.051298,0.061035,-0.213623,-2.899170
2.950083,-0.261656,-0.883762,10.031539,-0.114974,-0.070804,-0.029534,0.335693,-0.091553,-3.143311
2.960181,-0.328716,-0.858016,10.095007,-0.182034,-0.045058,0.033934,0.915527,0.061035,-3.356934
2.970277,-0.136516,-0.720302,10.065070,0.010166,0.092656,0.003997,0.640869,0.274658,-3.265381
2.980372,-0.010778,-0.738265,10.052496,0.135905,0.074693,-0.008577,-0.213623,0.518799,-3.845215
2.990468,0.058678,-0.672402,10.075847,0.205360,0.140556,0.014774,-0.183105,0.640869,-4.150391
3.000561,-0.011376,-0.698148,10.093810,0.135306,0.114810,0.032737,-0.305176,0.579834,-3.967285
3.010659,0.017364,-0.693358,10.032138,0.164046,0.119600,-0.028935,-0.244141,0.762939,-2.868652
3.020756,0.025746,-0.769999,10.068063,0.172429,0.042959,0.006990,-0.274658,0.732422,-2.227783
3.030853,-0.026345,-0.735271,10.092014,0.120337,0.077687,0.030941,0.244141,0.701904,-1.922607
3.040950,-0.120350,-0.778980,10.080637,0.026332,0.033978,0.019564,0.488281,0.610352,-2.014160
3.051047,-0.079634,-0.840053,10.060878,0.067048,-0.027095,-0.000195,0.915527,0.488281,-2.563477
3.061143,0.096998,-0.790955,10.083631,0.243681,0.022003,0.022558,0.549316,0.640869,-2.685547
3.071240,-0.017364,-0.794548,10.114167,0.129318,0.018410,0.053095,0.457764,0.671387,-2.899170
3.081337,-0.141306,-0.791554,10.064471,0.005376,0.021404,0.003398,0.122070,0.762939,-2.807617
3.091433,-0.161065,-0.869991,10.036329,-0.014383,-0.057033,-0.024744,0.030518,0.793457,-2.990723
3.101529,-0.320933,-0.893941,10.071656,-0.174250,-0.080983,0.010583,0.152588,0.549316,-3.509521
3.111625,-0.286205,-0.880768,10.063872,-0.139523,-0.067810,0.002799,0.213623,0.457764,-3.326416
3.121721,-0.268841,-0.762814,10.052496,-0.122159,0.050144,-0.008577,0.122070,0.091553,-1.739502
3.131818,0.018561,-0.731080,10.069261,0.165244,0.081878,0.008188,0.305176,-0.030518,-0.885010
3.141914,-0.004191,-0.805924,10.080038,0.142491,0.007034,0.018966,0.640869,-0.396729,-0.183105
3.152010,-0.344883,-0.758622,10.035132,-0.198201,0.054336,-0.025941,0.823975,-0.366211,0.000000
3.162107,-0.305964,-0.748444,10.051298,-0.159282,0.064514,-0.009775,0.518799,-0.305176,0.305176
3.172204,-0.389789,-0.715512,10.059681,-0.243107,0.097446,-0.001392,0.213623,-0.152588,0.518799
3.182298,-0.340692,-0.727487,10.054292,-0.194009,0.085471,-0.006781,0.030518,-0.274658,1.007080
3.192396,-0.377216,-0.803529,10.144105,-0.230533,0.009429,0.083032,0.610352,-0.061035,2.410889
3.202493,-0.441282,-0.847238,10.042916,-0.294600,-0.034280,-0.018157,-0.183105,-0.183105,2.655029
3.212590,-0.449066,-0.802930,10.083631,-0.302384,0.010028,0.022558,-0.610352,-0.427246,2.716064
3.222685,-0.238304,-0.687371,10.065070,-0.091622,0.125587,0.003997,-0.518799,-0.396729,2.319336
3.232783,-0.132325,-0.705333,10.069860,0.014357,0.107625,0.008787,-0.946045,-0.122070,1.831055
3.242880,-0.398771,-0.794548,10.033934,-0.252089,0.018410,-0.027139,-0.793457,0.091553,0.610352
3.252975,-0.531096,-0.817899,10.048903,-0.384413,-0.004941,-0.012170,-0.030518,0.122070,-0.061035
3.263068,-0.437091,-0.853226,10.056687,-0.290409,-0.040268,-0.004386,0.732422,0.335693,0.030518
3.273159,-0.270038,-0.920286,10.025552,-0.123356,-0.107328,-0.035521,0.335693,0.366211,0.030518
3.283250,-0.226329,-0.970582,10.068662,-0.079647,-0.157624,0.007589,-0.701904,0.122070,0.457764
3.293342,-0.544268,-0.847837,10.035731,-0.397586,-0.034879,-0.025342,-0.610352,0.061035,0.915527
3.303434,-0.481399,-0.907114,10.063872,-0.334717,-0.094156,0.002799,-0.244141,0.061035,1.342773
3.313525,-0.394579,-0.950823,9.984836,-0.247897,-0.137865,-0.076236,0.061035,0.091553,0.762939
3.323616,-0.470023,-0.990341,9.980046,-0.323340,-0.177383,-0.081027,-0.396729,-0.030518,0.488281
3.333708,-0.664019,-1.104703,10.126143,-0.517337,-0.291745,0.065070,-0.701904,-0.610352,-0.518799
3.343799,-0.672402,-1.127455,10.085427,-0.525720,-0.314497,0.024354,-0.488281,-0.732422,-0.274658
3.353894,-0.325723,-1.176553,10.101594,-0.179040,-0.363595,0.040521,0.152588,-1.037598,0.549316
3.363991,-0.144300,-1.136437,10.148895,0.002382,-0.323479,0.087822,2.105713,-1.708984,1.403809
3.374090,-0.529898,-1.064586,10.171648,-0.383216,-0.251628,0.110575,2.410889,-1.739502,1.556396
3.384187,-0.349673,-0.987946,9.968670,-0.202991,-0.174988,-0.092403,1.739502,-1.403809,2.593994
3.394285,-0.126936,-0.998124,10.016570,0.019746,-0.185166,-0.044502,1.037598,-1.098633,1.831055
3.404383,-0.495170,-0.941243,9.979448,-0.348488,-0.128285,-0.081625,0.457764,-0.274658,0.061035
3.414481,-0.549657,-0.523312,9.938732,-0.402975,0.289646,-0.122341,1.586914,0.152588,-0.030518
3.424580,-0.284409,-0.947230,9.960886,-0.137726,-0.134272,-0.100187,-0.823975,0.152588,-0.152588
3.434677,-0.077239,-0.819695,10.083032,0.069443,-0.006737,0.021959,-0.885010,0.274658,-0.427246
3.444776,-0.182021,-0.804128,9.989626,-0.035339,0.008830,-0.071446,-0.915527,0.305176,-0.488281
3.454865,-0.435295,-0.923280,10.026151,-0.288613,-0.110322,-0.034922,-0.976562,0.152588,-0.732422
3.464957,-0.299976,-0.907114,10.014175,-0.153294,-0.094156,-0.046897,-1.007080,0.183105,-0.701904
3.475048,-0.138911,-0.807122,10.011780,0.007771,0.005836,-0.049292,-0.793457,0.091553,-0.244141
3.485139,-0.120948,-0.539478,10.096205,0.025734,0.273480,0.035132,-1.007080,0.152588,0.213623
3.495229,-0.231718,-0.878972,10.029743,-0.085036,-0.066014,-0.031330,-2.838135,-0.274658,1.342773
3.505320,-0.115560,-0.808319,10.132130,0.031123,0.004639,0.071057,-2.502441,-0.579834,0.061035
3.515410,-0.152682,-0.878373,10.069261,-0.006000,-0.065415,0.008188,-1.403809,-0.793457,-2.624512
3.525501,-0.460443,-0.681982,9.984836,-0.313760,0.130976,-0.076236,0.335693,-0.579834,-5.584717
3.535590,-0.284409,-0.793949,9.887838,-0.137726,0.019009,-0.173235,1.068115,-0.091553,-5.676270
3.545680,-0.235311,-0.876577,10.034533,-0.088628,-0.063619,-0.026540,0.518799,0.579834,-5.737305
3.555973,-0.277822,-0.963995,10.021959,-0.131140,-0.151037,-0.039114,-0.183105,1.037598,-4.882812
3.566072,-0.298180,-1.040037,10.036329,-0.151498,-0.227079,-0.024744,-0.122070,1.983643,-4.760742
3.576168,-0.192200,-0.869392,10.029743,-0.045518,-0.056434,-0.031330,0.396729,2.044678,-4.760742
3.586265,-0.254471,-0.917292,10.121353,-0.107789,-0.104335,0.060280,-0.274658,1.831055,-3.387451
3.596362,-0.244891,-0.878373,10.150692,-0.098209,-0.065415,0.089619,0.305176,1.281738,-3.387451
3.606458,-0.375419,-0.904719,10.042916,-0.228737,-0.091761,-0.018157,0.518799,1.159668,-3.173828
3.616554,-0.319136,-0.858615,9.973460,-0.172454,-0.045657,-0.087613,1.190186,0.885010,-2.960205
3.626664,-0.330513,-0.783770,10.226135,-0.183830,0.029188,0.165062,0.091553,0.457764,-2.380371
3.636764,-0.226928,-0.652643,10.096804,-0.080246,0.160315,0.035731,1.312256,0.427246,-1.739502
3.646861,-0.232916,-0.627495,10.003398,-0.086233,0.185463,-0.057675,1.434326,0.244141,-1.892090
3.656954,-0.324525,-0.602946,10.015972,-0.177843,0.210012,-0.045101,0.549316,-0.335693,-1.312256
3.667045,-0.331710,-0.523312,10.021360,-0.185028,0.289646,-0.039712,0.488281,-0.396729,-1.281738
3.677135,-0.457449,-0.591570,10.057885,-0.310767,0.221388,-0.003188,0.396729,-0.396729,-1.068115
3.687227,-0.436492,-0.723296,10.048903,-0.289810,0.089662,-0.012170,-0.457764,-0.366211,-1.617432
3.697317,-0.193398,-0.635279,10.024953,-0.046716,0.177679,-0.036120,-0.244141,-0.244141,-3.021240
3.707405,-0.356259,-0.619711,9.923763,-0.209577,0.193247,-0.137309,0.823975,0.732422,-5.096436
3.717496,-0.196392,-0.601749,10.020762,-0.049709,0.211209,-0.040311,0.457764,0.823975,-5.645752
3.727587,-0.085622,-0.655637,10.130334,0.061060,0.157321,0.069261,0.762939,0.732422,-7.019043
3.737675,-0.443079,-0.648452,10.012379,-0.296396,0.164506,-0.048694,1.739502,1.068115,-6.835938
3.747767,-0.519120,-0.678988,10.061477,-0.372438,0.133970,0.000404,0.854492,0.854492,-6.896973
3.757859,-0.198188,-0.704136,10.080637,-0.051506,0.108822,0.019564,1.220703,1.220703,-7.781982
3.767957,-0.387394,-0.429906,10.015373,-0.240712,0.383052,-0.045700,2.746582,2.075195,-7.659912
3.778055,-0.106578,-0.669408,10.057885,0.040104,0.143550,-0.003188,0.732422,1.678467,-5.493164
3.788157,-0.140109,-0.688568,10.042317,0.006574,0.124390,-0.018756,-0.518799,1.739502,-3.906250
3.798255,-0.220941,-0.826282,10.092612,-0.074258,-0.013324,0.031539,-0.915527,1.586914,-3.601074
3.808353,-0.332908,-0.708327,10.038724,-0.186225,0.104631,-0.022349,-0.518799,1.617432,-4.791260
3.818450,-0.434097,-0.618514,10.058483,-0.287415,0.194444,-0.002590,-1.281738,1.373291,-7.080078
3.828548,-0.329914,-1.010698,10.065668,-0.183232,-0.197740,0.004595,-0.305176,1.068115,-7.873535
3.838646,-0.329315,-0.869392,10.065070,-0.182633,-0.056434,0.003997,0.091553,0.732422,-8.422852
3.848744,-0.116158,-0.568817,10.018367,0.030524,0.244141,-0.042706,1.251221,0.305176,-8.453369
3.858842,-0.435295,-0.476609,10.105785,-0.288613,0.336349,0.044712,0.366211,-0.122070,-7.568359
3.868941,-0.731678,-0.817300,9.935140,-0.584996,-0.004342,-0.125933,-0.366211,0.671387,-8.728027
3.879038,-0.517923,-0.858615,10.096804,-0.371241,-0.045657,0.035731,1.007080,0.671387,-9.948730
3.889135,-0.393382,-0.680784,10.038724,-0.246700,0.132174,-0.022349,1.098633,0.396729,-8.880615
3.899232,-0.367037,-0.737666,10.175839,-0.220355,0.075292,0.114766,0.885010,0.213623,-9.460449
3.909330,-0.603545,-0.637674,10.084230,-0.456863,0.175284,0.023157,-1.495361,0.244141,-9.857178
3.919428,-0.903521,-0.922083,9.969868,-0.756839,-0.109125,-0.091205,-3.570557,0.549316,-8.911133
3.929521,-0.426313,-1.028661,10.011182,-0.279631,-0.215703,-0.049891,-3.204346,0.671387,-7.934570
3.939619,-0.407153,-0.752036,10.077643,-0.260471,0.060922,0.016571,-1.953125,-0.396729,-6.774902
3.949715,-0.402962,-0.704136,10.100396,-0.256280,0.108822,0.039323,-0.396729,-1.586914,-4.882812
3.959814,-0.334704,-0.816103,10.032737,-0.188022,-0.003145,-0.028336,-1.708984,-1.983643,-3.540039
3.969912,-0.482596,-0.834664,10.109377,-0.335914,-0.021706,0.048305,-1.190186,-1.647949,-3.479004
3.980008,-0.023950,-0.768203,10.046508,0.122732,0.044755,-0.014565,-0.732422,-1.647949,-3.631592
3.990106,-0.202978,-0.719105,10.020762,-0.056296,0.093853,-0.040311,0.274658,-1.312256,-4.913330
4.000205,-0.254471,-0.775388,10.030941,-0.107789,0.037570,-0.030132,0.762939,-2.014160,-4.272461
4.010303,-0.244891,-0.741857,9.963281,-0.098209,0.071101,-0.097792,1.373291,-0.976562,-3.173828
4.020401,-0.329315,-0.850232,10.086625,-0.182633,-0.037274,0.025552,1.068115,-0.671387,-3.082275
4.030492,-0.489781,-0.984952,10.209370,-0.343099,-0.171994,0.148297,2.105713,0.274658,-2.166748
4.040581,0.159269,-0.841849,9.977053,0.305951,-0.028891,-0.084020,1.953125,1.220703,-3.143311
4.050678,-0.881966,-0.784369,10.196796,-0.735284,0.028589,0.135723,0.366211,2.197266,2.532959
4.060771,-0.364642,-0.730481,10.072255,-0.217960,0.082477,0.011182,1.678467,2.136230,5.493164
4.070861,-0.017364,-0.877775,9.850117,0.129318,-0.064817,-0.210956,0.396729,1.220703,7.476807
4.080951,-0.107776,-0.895139,10.150692,0.038906,-0.082181,0.089619,0.396729,0.061035,8.850098
4.091042,-0.493973,-0.643661,10.127939,-0.347291,0.169296,0.066866,-0.274658,-0.518799,7.659912
4.101132,-0.632884,-1.054407,9.817784,-0.486202,-0.241449,-0.243289,0.183105,-1.281738,4.302979
4.111223,-0.338895,-1.144819,10.046508,-0.192213,-0.331861,-0.014565,-0.457764,-2.014160,2.349854
4.121314,-0.113763,-1.285527,10.042317,0.032919,-0.472569,-0.018756,0.396729,-1.312256,0.152588
4.131404,-0.118553,-1.170566,9.970466,0.028129,-0.357608,-0.090607,0.762939,-0.518799,0.671387
4.141494,-0.057480,-1.216670,10.004595,0.089202,-0.403712,-0.056478,0.396729,-0.213623,1.525879
4.151584,-0.068857,-1.176553,9.972263,0.077825,-0.363595,-0.088810,-0.640869,0.244141,1.525879
4.161682,-0.192799,-1.164578,10.033934,-0.046117,-0.351620,-0.027139,-1.678467,0.518799,0.122070
4.171775,-0.261656,-1.133443,9.984238,-0.114974,-0.320485,-0.076835,-2.105713,1.251221,-2.929688
4.181869,-0.280816,-1.131647,10.041119,-0.134134,-0.318689,-0.019954,-1.922607,1.708984,-3.356934
4.191966,-0.341889,-1.103505,10.082433,-0.195207,-0.290547,0.021361,0.122070,1.922607,-1.251221
4.202064,-0.638871,-0.941841,9.936936,-0.492189,-0.128883,-0.124137,-0.213623,1.800537,0.091553
4.212160,-0.600551,-1.090931,9.977053,-0.453869,-0.277973,-0.084020,-1.770020,1.220703,0.915527
4.222256,-0.593366,-0.919687,9.965078,-0.446684,-0.106730,-0.095995,-1.037598,0.854492,2.105713
4.232354,-0.531096,-0.873583,10.074650,-0.384413,-0.060625,0.013577,-0.396729,0.640869,2.288818
4.242450,-0.573607,-0.852627,10.136920,-0.426925,-0.039669,0.075847,0.335693,-0.305176,3.082275
4.252547,-0.648452,-0.710722,9.908795,-0.501769,0.102236,-0.152278,0.885010,-0.305176,3.906250
4.262636,-0.618514,-0.346679,10.237511,-0.471832,0.466279,0.176438,-0.122070,-0.274658,6.988525
4.272727,-0.506547,-1.016087,10.039922,-0.359864,-0.203129,-0.021151,-0.091553,0.000000,6.225586
4.282816,-0.299377,-0.708926,10.052496,-0.152695,0.104032,-0.008577,1.953125,1.098633,3.967285
4.292931,-0.311951,-0.873583,10.260264,-0.165269,-0.060625,0.199191,-0.976562,-0.427246,8.300781
4.303077,0.055684,-1.029260,10.335108,0.202366,-0.216302,0.274035,-1.129150,-0.823975,8.819580
4.313220,-0.322729,-0.796943,10.132729,-0.176047,0.016015,0.071656,-0.457764,-0.610352,7.171631
4.323320,-0.208367,-1.021476,9.845925,-0.061684,-0.208518,-0.215148,0.213623,-0.488281,6.652832
4.333433,-0.283211,-0.690963,10.151290,-0.136529,0.121995,0.090217,-0.762939,-2.441406,8.026123
4.343533,-0.456251,-0.900527,10.000404,-0.309569,-0.087569,-0.060669,-0.244141,-2.044678,6.896973
4.353630,-0.475411,-0.520917,9.946516,-0.328729,0.292041,-0.114557,-1.770020,-1.068115,5.615234
4.363713,-0.208367,-0.950823,10.203382,-0.061684,-0.137865,0.142309,-1.403809,-0.671387,4.455566
4.373788,-0.387993,-0.463436,9.777068,-0.241311,0.349522,-0.284004,-0.427246,-0.396729,4.821777
4.383855,-0.094603,-0.947829,10.106384,0.052079,-0.134871,0.045311,-0.762939,0.335693,7.354736
4.393919,-0.226329,-0.841849,10.161469,-0.079647,-0.028891,0.100396,-1.434326,0.030518,6.866455
4.403985,-0.493374,-0.775986,10.068063,-0.346692,0.036972,0.006990,0.274658,-0.518799,7.446289
4.414052,-0.293390,-0.876577,9.998608,-0.146708,-0.063619,-0.062465,0.671387,-0.976562,7.568359
4.424118,-0.419727,-0.821492,9.928553,-0.273045,-0.008534,-0.132519,1.190186,-0.518799,8.087158
4.434184,-0.265248,-0.838257,10.038724,-0.118566,-0.025299,-0.022349,1.403809,-0.366211,9.246826
4.444251,-0.634680,-0.705932,9.869875,-0.487998,0.107026,-0.191197,2.136230,0.122070,8.758545
4.454317,0.045505,-0.873583,9.850117,0.192188,-0.060625,-0.210956,0.061035,-1.373291,8.575439
4.464383,0.162861,-0.863405,10.003997,0.309544,-0.050447,-0.057076,0.274658,-1.342773,7.507324
4.474448,-0.250280,-0.840652,10.045311,-0.103597,-0.027694,-0.015762,-1.739502,-1.739502,6.225586
4.484514,-0.558638,-0.999921,10.041119,-0.411956,-0.186963,-0.019954,-1.281738,-2.105713,6.408691
4.494580,-0.453257,-1.087938,10.080637,-0.306575,-0.274980,0.019564,-0.183105,-1.068115,5.249023
4.504646,-0.181423,-1.001118,10.135723,-0.034741,-0.188160,0.074650,-0.793457,-0.671387,5.523682
4.514719,0.042512,-0.958607,10.152488,0.189194,-0.145649,0.091415,-0.793457,-0.671387,7.568359
4.524788,-0.120350,-0.616119,10.009984,0.026332,0.196839,-0.051089,-1.068115,-0.274658,10.864258
4.534855,-0.209564,-0.732277,10.044113,-0.062882,0.080681,-0.016960,-1.739502,-0.091553,11.840820
4.544921,-0.167053,-0.822090,10.176438,-0.020370,-0.009133,0.115365,0.183105,0.488281,8.544922
4.554987,-0.047900,-0.714315,10.162068,0.098782,0.098643,0.100995,1.068115,0.518799,7.049561
4.565054,-0.135319,-0.757425,10.063273,0.011364,0.055533,0.002200,2.410889,0.091553,6.042480
4.575119,0.037123,-0.580193,9.923763,0.183805,0.232764,-0.137309,0.732422,-0.885010,5.798340
4.585186,-0.320933,-0.811912,10.044113,-0.174250,0.001046,-0.016960,-1.464844,-1.068115,5.279541
4.595251,0.064067,-1.099314,10.136321,0.210749,-0.286356,0.075249,-1.892090,0.152588,2.624512
4.605317,0.119152,-0.970582,9.932745,0.265834,-0.157624,-0.128328,-1.190186,0.518799,0.915527
4.615384,0.131726,-0.801134,9.920171,0.278408,0.011824,-0.140902,-2.227783,0.335693,1.892090
4.625454,0.108973,-1.086141,10.208771,0.255656,-0.273183,0.147698,-1.373291,-0.244141,2.471924
4.635521,0.043110,-1.020278,9.965078,0.189793,-0.207320,-0.095995,0.732422,-0.701904,2.532959
4.645587,-0.083227,-1.089734,10.022558,0.063455,-0.276776,-0.038515,0.152588,-1.037598,3.143311
4.655653,-0.090412,-0.997526,9.936936,0.056270,-0.184568,-0.124137,0.518799,-0.732422,3.540039
4.665722,-0.061073,-1.046025,10.130933,0.085609,-0.233067,0.069860,-2.014160,-1.159668,3.906250
4.675787,0.062869,-0.956212,9.989626,0.209551,-0.143254,-0.071446,-2.380371,-1.678467,3.662109
4.685852,0.022753,-0.874182,9.994417,0.169435,-0.061224,-0.066656,-0.427246,-2.014160,1.495361
4.695918,0.132924,-0.602946,10.078841,0.279606,0.210012,0.017768,0.244141,-1.403809,0.213623
4.705984,0.278421,-0.659229,10.024354,0.425103,0.153729,-0.036719,1.495361,-0.213623,-1.098633
4.716050,-0.240699,-0.822090,9.941127,-0.094017,-0.009133,-0.119946,0.457764,0.701904,-0.549316
4.726115,0.101190,-0.904120,10.223740,0.247872,-0.091162,0.162667,-0.030518,1.007080,0.305176
4.736181,0.104183,-0.565225,10.199191,0.250866,0.247733,0.138118,-1.495361,1.586914,1.983643
4.746247,-0.099992,-0.659229,10.047706,0.046690,0.153729,-0.013367,-1.190186,0.915527,3.021240
4.756312,-0.114362,-0.974773,10.112371,0.032320,-0.161815,0.051298,-1.281738,0.396729,1.922607
4.766379,-0.200583,-0.983754,10.039922,-0.053901,-0.170796,-0.021151,-0.030518,0.152588,1.129150
4.776445,-0.239502,-0.967588,9.933344,-0.092820,-0.154630,-0.127729,0.152588,-0.396729,2.197266
4.786511,-0.164059,-0.926873,9.865085,-0.017377,-0.113915,-0.195987,-0.854492,-0.549316,1.434326
4.796577,-0.444276,-1.434018,10.121951,-0.297594,-0.621060,0.060878,-0.976562,-0.244141,0.579834
4.806647,-0.493973,-0.926873,9.910591,-0.347291,-0.113915,-0.150482,-0.946045,-1.770020,1.312256
4.816728,-0.074246,-0.933459,10.011182,0.072437,-0.120501,-0.049891,-0.823975,-1.831055,1.098633
4.826796,-0.013771,-0.810714,10.045311,0.132911,0.002244,-0.015762,-1.373291,-0.946045,0.061035
4.836863,-0.467029,-0.984353,10.178833,-0.320347,-0.171395,0.117760,-1.312256,-0.091553,-0.030518
4.846928,-0.419727,-1.043031,10.081236,-0.273045,-0.230073,0.020163,0.335693,-0.335693,1.373291
4.856995,0.525108,-0.844843,10.002200,0.671790,-0.031885,-0.058873,1.647949,0.122070,2.655029
4.867061,0.306563,-0.924478,9.998608,0.453245,-0.111520,-0.062465,0.000000,-0.091553,3.479004
4.877360,-0.247885,-0.955014,10.066866,-0.101202,-0.142056,0.005793,0.061035,-0.701904,5.432129
4.887504,0.419128,-0.898132,10.044113,0.565811,-0.085174,-0.016960,-0.183105,-0.793457,5.767822
4.898173,0.107776,-0.823887,10.057885,0.254458,-0.010929,-0.003188,-0.885010,-0.610352,5.981445
4.908285,-0.159868,-1.027463,10.169852,-0.013185,-0.214505,0.108779,-0.762939,-0.244141,6.195068
4.918410,-0.120350,-0.973575,9.884246,0.026332,-0.160617,-0.176827,0.152588,1.434326,4.577637
4.928520,-0.034728,-0.850831,9.858499,0.111954,-0.037873,-0.202574,-0.396729,1.098633,3.173828
4.938642,0.256866,-0.734672,10.017169,0.403548,0.078286,-0.043904,-2.685547,0.854492,-0.396729
4.948737,0.273032,-0.662223,10.056687,0.419714,0.150735,-0.004386,-2.380371,1.403809,-2.258301
4.958836,0.182620,-0.496368,9.974658,0.329302,0.316590,-0.086415,-2.319336,1.312256,-4.974365
4.968932,-0.102986,-0.452060,10.251282,0.043696,0.360898,0.190209,-3.356934,1.678467,-9.338379
4.979127,-0.344883,-0.601150,10.121353,-0.198201,0.211808,0.060280,-3.417969,1.251221,-10.101318
4.989197,0.423320,-0.900527,10.087822,0.570002,-0.087569,0.026749,-2.685547,0.183105,-15.747070
4.999269,0.350870,-0.667612,10.109377,0.497553,0.145346,0.048305,0.976562,0.244141,-16.601562
5.009336,-0.044907,-0.586181,10.114167,0.101776,0.226777,0.053095,3.112793,1.617432,-10.772705
5.019401,-0.375419,-0.855022,9.948312,-0.228737,-0.042064,-0.112761,1.342773,1.495361,-7.995605
5.029468,0.252675,-0.968785,10.074051,0.399357,-0.155827,0.012978,0.854492,0.305176,-7.720947
5.039541,0.013173,-0.481998,9.994417,0.159855,0.330960,-0.066656,4.180908,0.762939,-7.720947
5.049607,-0.114961,-0.483195,9.929152,0.031721,0.329763,-0.131921,2.807617,1.068115,-7.476807
5.059673,-0.313748,-0.901126,10.136920,-0.167065,-0.088168,0.075847,1.556396,1.190186,-7.507324
5.069738,-0.089813,-1.010698,10.027348,0.056869,-0.197740,-0.033725,2.075195,0.976562,-6.835938
5.079805,-0.120350,-0.998723,10.021959,0.026332,-0.185765,-0.039114,2.655029,1.678467,-4.821777
5.089871,0.009580,-0.762215,9.941726,0.156262,0.050743,-0.119347,1.129150,1.342773,-1.556396
5.099941,0.358654,-1.027463,10.420730,0.505336,-0.214505,0.359657,-2.044678,1.739502,3.601074
5.110019,-0.309556,-0.671204,10.028546,-0.162874,0.141754,-0.032527,2.197266,-0.762939,5.737305
5.120098,-0.422122,-0.614323,10.056088,-0.275440,0.198635,-0.004985,0.396729,-0.976562,6.988525
5.130165,-0.227527,-0.722098,10.103390,-0.080845,0.090860,0.042317,0.030518,-1.617432,10.650635
5.140232,0.013771,-0.655637,10.109377,0.160454,0.157321,0.048305,-0.213623,-1.342773,12.512207
5.150298,0.204774,-0.589175,10.112970,0.351456,0.223783,0.051897,0.000000,-0.732422,14.099121
5.160363,-0.313748,-0.454455,9.990225,-0.167065,0.358503,-0.070848,-0.091553,0.091553,15.411377
5.170445,-0.323926,-0.717308,10.005793,-0.177244,0.095650,-0.055280,-1.190186,0.274658,15.899658
5.180520,-0.204774,-0.634680,10.071656,-0.058092,0.178278,0.010583,-3.814697,-0.671387,15.869141
5.190585,0.129331,-0.978365,10.220147,0.276013,-0.165408,0.159074,-3.601074,-1.342773,14.984131
5.200807,-0.208367,-0.738864,10.026151,-0.061684,0.074094,-0.034922,0.000000,-0.915527,10.864258
5.210873,-0.084424,-0.796943,10.066866,0.062258,0.016015,0.005793,0.610352,-0.976562,9.796143
5.220939,0.149090,-0.818498,10.008188,0.295772,-0.005540,-0.052885,1.342773,-0.213623,7.690430
5.231100,-0.305964,-0.774789,9.966275,-0.159282,0.038169,-0.094798,1.159668,1.190186,7.324219
5.241166,0.524509,-0.828078,10.472822,0.671192,-0.015120,0.411749,-3.234863,0.457764,9.185791
5.251231,-0.442480,-0.555046,9.575887,-0.295798,0.257912,-0.485186,-1.342773,0.518799,8.026123
5.261297,-0.071851,-0.810115,9.944720,0.074832,0.002843,-0.116353,1.281738,0.030518,5.523682
5.271363,-0.085023,-0.868793,9.993818,0.061659,-0.055835,-0.067255,-0.732422,-0.305176,2.319336
5.281435,-0.273631,-0.918490,9.906400,-0.126949,-0.105532,-0.154673,0.152588,0.396729,1.037598
5.291501,-0.510738,-0.569416,10.186018,-0.364056,0.243542,0.124945,-1.037598,0.000000,2.380371
5.301567,-0.237706,-1.017285,9.920171,-0.091023,-0.204327,-0.140902,-0.640869,-0.396729,2.136230
5.311633,-0.269440,-1.003513,9.865684,-0.122757,-0.190555,-0.195389,-1.434326,-0.823975,1.373291
5.321698,-0.231718,-1.174757,10.107581,-0.085036,-0.361799,0.046508,-2.990723,-0.976562,2.319336
5.331763,-0.269440,-1.229244,10.078242,-0.122757,-0.416286,0.017169,-1.831055,-0.885010,2.960205
5.341828,-0.123344,-0.693358,9.981843,0.023339,0.119600,-0.079230,-0.274658,-0.579834,6.835938
5.351909,-0.111368,-1.056204,10.035731,0.035314,-0.243246,-0.025342,-0.854492,-0.915527,10.559082
5.361977,0.050894,-1.078956,9.970466,0.197576,-0.265998,-0.090607,0.427246,-1.037598,8.544922
5.372045,-0.050894,-1.135838,10.015373,0.095788,-0.322880,-0.045700,1.464844,-0.549316,7.202148
5.382111,0.071252,-1.192121,9.862092,0.217934,-0.379163,-0.198981,1.708984,0.732422,9.918213
5.392177,0.290396,-1.329835,10.174043,0.437078,-0.516877,0.112970,1.342773,0.213623,10.070801
5.402242,0.142504,-1.016087,9.946516,0.289186,-0.203129,-0.114557,3.356934,0.061035,8.483887
5.412316,0.256267,-1.368754,10.070458,0.402949,-0.555796,0.009385,1.586914,0.762939,4.913330
5.422382,0.010778,-1.075963,10.218950,0.157460,-0.263005,0.157877,-0.305176,0.793457,3.417969
5.432447,-0.343087,-0.683778,10.092014,-0.196404,0.129180,0.030941,1.739502,0.579834,3.387451
5.442512,-0.126936,-0.731080,10.086625,0.019746,0.081878,0.025552,0.183105,0.427246,5.218506
5.452578,-0.272433,-1.232238,10.009385,-0.125751,-0.419280,-0.051688,-2.746582,-1.220703,4.852295
5.462643,0.043110,-1.062790,10.015972,0.189793,-0.249832,-0.045101,0.305176,-1.129150,3.570557
5.472718,-0.195793,-0.986149,10.090816,-0.049111,-0.173191,0.029743,1.037598,-1.312256,2.288818
5.482785,0.032932,-0.984952,9.969269,0.179614,-0.171994,-0.091804,-0.457764,-1.617432,2.807617
5.492851,0.119751,-0.789159,9.954899,0.266433,0.023799,-0.106174,0.671387,-1.220703,3.112793
5.502917,-0.065264,-0.852627,10.005194,0.081418,-0.039669,-0.055879,-0.946045,0.396729,4.669189
5.512983,0.028141,-0.820294,9.996213,0.174824,-0.007336,-0.064860,-1.129150,0.305176,4.547119
5.523049,-0.086819,-0.819097,10.052496,0.059863,-0.006139,-0.008577,-0.671387,0.427246,1.373291
5.533122,-0.383203,-0.882565,10.192006,-0.236521,-0.069607,0.130933,-0.244141,0.000000,-0.488281
5.543188,-0.422122,-0.902324,10.089020,-0.275440,-0.089366,0.027947,1.983643,-0.549316,-1.586914
5.553253,-0.122146,-0.983754,10.068063,0.024536,-0.170796,0.006990,1.556396,-1.617432,-0.518799
5.563319,-0.083826,-0.905317,10.071057,0.062857,-0.092359,0.009984,1.892090,-1.373291,-0.061035
5.573385,-0.441881,-0.692759,10.039922,-0.295199,0.120199,-0.021151,1.800537,-1.098633,0.457764
5.583451,-0.342488,-0.787363,10.071057,-0.195806,0.025595,0.009984,2.014160,-1.129150,-0.213623
5.593516,-0.214953,-0.925076,10.069261,-0.068271,-0.112118,0.008188,-0.122070,-1.617432,-4.180908
5.603590,-0.402363,-0.601150,10.014175,-0.255681,0.211808,-0.046897,0.061035,-1.434326,-4.516602
5.613657,-0.545466,-0.581990,9.978250,-0.398783,0.230968,-0.082823,-0.274658,-1.312256,-2.441406
5.623723,-0.317939,-1.202300,10.077643,-0.171257,-0.389342,0.016571,-2.502441,-0.030518,-4.364014
5.633789,-0.087418,-1.095721,10.087822,0.059264,-0.282763,0.026749,-3.112793,0.732422,-6.103516
5.643854,-0.292791,-0.877176,10.103989,-0.146109,-0.064218,0.042916,-2.838135,2.044678,-5.584717
5.653919,-0.125739,-0.958008,10.018367,0.020944,-0.145050,-0.042706,-0.946045,2.868652,-6.347656
5.663991,0.232317,0.073647,9.797426,0.378999,0.886605,-0.263647,0.457764,2.563477,-4.730225
5.674057,-0.784968,-0.971779,9.947115,-0.638285,-0.158821,-0.113958,-3.112793,1.831055,-4.211426
5.684124,-0.665815,-1.109493,10.142309,-0.519133,-0.296535,0.081236,-2.868652,0.610352,-6.774902
5.694190,-0.251477,-0.939446,10.350077,-0.104795,-0.126488,0.289004,-0.671387,-0.183105,-8.300781
5.704256,-0.005389,-1.056204,10.205178,0.141293,-0.243246,0.144105,-0.061035,-0.762939,-6.591797
5.714322,-0.283211,-1.177751,9.947714,-0.136529,-0.364793,-0.113359,0.305176,-1.434326,-6.347656
5.724389,-0.330513,-0.913700,10.135723,-0.183830,-0.100742,0.074650,0.823975,-1.342773,-5.523682
5.734455,-0.123344,-1.117875,10.044113,0.023339,-0.304917,-0.016960,0.000000,-0.793457,-7.415771
5.744523,-0.269440,-0.941841,10.023755,-0.122757,-0.128883,-0.037317,1.342773,0.061035,-7.843018
5.754590,-0.208367,-0.909509,10.021360,-0.061684,-0.096551,-0.039712,0.915527,0.732422,-6.652832
5.764656,-0.309556,-1.007106,9.945319,-0.162874,-0.194148,-0.115754,0.854492,1.068115,-3.356934
5.774722,-0.291594,-0.905916,10.062076,-0.144911,-0.092958,0.001003,0.793457,0.793457,-1.617432
5.784790,-0.182620,-0.841849,9.913585,-0.035938,-0.028891,-0.147488,0.732422,0.122070,1.098633
5.794856,-0.236508,-0.460443,10.005194,-0.089826,0.352515,-0.055879,1.678467,-0.030518,0.427246
5.804922,-0.392783,-0.960403,9.977651,-0.246101,-0.147445,-0.083422,-0.701904,-0.793457,-2.014160
5.814988,-0.368234,-0.617316,10.057885,-0.221552,0.195642,-0.003188,0.152588,-0.427246,-2.227783
5.825058,-0.216151,-0.614921,10.055490,-0.069468,0.198037,-0.005583,-0.122070,-0.244141,-0.671387
5.835125,-0.557441,-0.780776,9.955497,-0.410759,0.032182,-0.105575,-0.396729,0.122070,-0.061035
5.845196,-0.604144,-0.800535,9.948312,-0.457461,0.012423,-0.112761,-1.068115,0.274658,-1.220703
5.855263,-0.303569,-0.881367,10.083631,-0.156887,-0.068409,0.022558,-2.288818,0.701904,-3.265381
5.865331,-0.037123,-0.796344,10.039323,0.109559,0.016614,-0.021750,-1.983643,1.190186,-3.540039
5.875398,-0.125140,-0.942440,10.181228,0.021542,-0.129482,0.120155,-1.831055,2.349854,-2.502441
5.885463,-0.630489,-0.750839,9.947714,-0.483807,0.062119,-0.113359,1.434326,2.990723,-2.655029
5.895530,-0.490979,-1.077759,9.972263,-0.344297,-0.264801,-0.088810,-0.732422,2.349854,-2.197266
5.905596,-0.187410,-0.998124,10.080038,-0.040728,-0.185166,0.018966,-3.204346,1.312256,-3.112793
5.915661,-0.356858,-1.014291,10.199789,-0.210176,-0.201333,0.138717,-3.509521,1.281738,-4.608154
5.925729,-0.649050,-1.138832,10.042916,-0.502368,-0.325874,-0.018157,-0.549316,-0.457764,-4.608154
5.935795,-0.200583,-1.160387,10.023157,-0.053901,-0.347429,-0.037916,-0.915527,-0.946045,-2.716064
5.945861,-0.171244,-1.119073,10.103989,-0.024562,-0.306115,0.042916,-0.518799,-0.427246,0.518799
5.955929,-0.207169,-1.019680,10.056088,-0.060487,-0.206722,-0.004985,-1.007080,0.671387,1.312256
5.965996,-0.236508,-1.060395,9.957294,-0.089826,-0.247437,-0.103779,-0.671387,1.770020,0.518799
5.976061,-0.311951,-1.159788,10.036928,-0.165269,-0.346830,-0.024145,3.021240,1.892090,-2.349854
5.986129,-0.093406,-0.792153,10.273436,0.053276,0.020805,0.212363,3.326416,1.556396,-3.326416
5.996196,-0.480800,-0.804128,10.009984,-0.334118,0.008830,-0.051089,-0.152588,1.159668,-3.784180
6.006260,-0.376018,-0.725691,10.160870,-0.229336,0.087267,0.099797,-0.518799,0.854492,-5.340576
6.016327,-0.325723,-0.754431,10.132729,-0.179040,0.058527,0.071656,2.868652,0.518799,-5.706787
6.026392,-0.205373,-0.872985,9.921967,-0.058691,-0.060027,-0.139106,1.129150,0.305176,-3.601074
6.036465,-0.276026,-0.843646,9.989626,-0.129344,-0.030688,-0.071446,-0.488281,0.122070,-3.204346
6.046542,-0.540676,-0.704136,9.948312,-0.393993,0.108822,-0.112761,-0.946045,0.946045,-5.493164
6.056611,-0.347278,-1.103505,10.047107,-0.200596,-0.290547,-0.013966,-1.098633,1.403809,-5.920410
6.066676,-0.641865,-1.060994,9.983639,-0.495183,-0.248036,-0.077434,-0.518799,0.701904,-4.608154
6.076741,-0.453856,-1.080753,9.944121,-0.307174,-0.267795,-0.116952,0.000000,0.427246,-3.936768
6.086805,-0.401166,-1.058599,10.032737,-0.254484,-0.245641,-0.028336,0.396729,0.183105,-4.150391
6.096871,-0.421523,-1.090333,10.113569,-0.274841,-0.277375,0.052496,-0.488281,-0.152588,-4.547119
6.106944,-0.666414,-1.102906,10.062675,-0.519732,-0.289949,0.001602,0.213623,0.427246,-4.547119
6.117009,-0.622705,-1.066981,10.036928,-0.476023,-0.254023,-0.024145,2.563477,0.305176,-5.432129
6.127074,-0.307161,-1.007106,9.899214,-0.160479,-0.194148,-0.161858,2.563477,-0.366211,-5.340576
6.137139,-0.531096,-1.156794,9.991423,-0.384413,-0.343836,-0.069650,0.152588,-2.136230,-3.173828
6.147204,-0.413740,-1.262774,9.986633,-0.267057,-0.449816,-0.074440,-0.152588,-0.427246,-2.471924
6.157269,-0.273631,-1.047821,10.090816,-0.126949,-0.234863,0.029743,-0.610352,0.000000,0.579834
6.167348,-0.211360,-0.840053,9.950109,-0.064678,-0.027095,-0.110964,0.976562,1.129150,0.976562
6.177415,-0.403561,-0.553250,10.071057,-0.256879,0.259708,0.009984,-0.457764,0.946045,-0.030518
6.187482,-0.562830,-0.841849,10.058483,-0.416147,-0.028891,-0.002590,-2.044678,0.823975,-4.699707
6.197549,0.005988,-0.832269,10.004595,0.152670,-0.019311,-0.056478,-0.732422,0.274658,-4.638672
6.207616,0.073048,-0.741259,9.959689,0.219730,0.071699,-0.101384,-0.274658,-0.274658,-1.739502
6.217679,-0.514330,-0.722697,10.133328,-0.367648,0.090261,0.072255,0.854492,0.061035,-1.831055
6.227754,-0.542472,-0.641865,9.920171,-0.395790,0.171093,-0.140902,3.784180,1.251221,-2.746582
6.237820,0.116158,-0.589774,10.160870,0.262841,0.223184,0.099797,0.946045,1.159668,-2.044678
6.247891,0.120948,-0.874182,10.081835,0.267631,-0.061224,0.020762,1.037598,1.098633,-1.220703
6.257957,-0.265248,-0.782573,9.953701,-0.118566,0.030385,-0.107372,2.441406,0.640869,0.610352
6.268023,-0.247885,-0.719105,10.026151,-0.101202,0.093853,-0.034922,3.784180,1.312256,-0.610352
6.278088,0.138312,-0.941841,10.171648,0.284995,-0.128883,0.110575,0.579834,0.885010,1.831055
6.288160,0.107177,-0.896336,10.033934,0.253859,-0.083378,-0.027139,3.814697,0.793457,2.655029
6.298225,-0.188608,-0.909509,9.971065,-0.041926,-0.096551,-0.090008,1.159668,-0.122070,4.943848
6.308291,0.026944,-0.799937,9.798025,0.173626,0.013021,-0.263048,-0.488281,-0.305176,6.225586
6.318356,-0.047302,0.474813,10.346484,0.099381,1.287771,0.285411,1.647949,-0.213623,7.873535
6.328422,-0.389789,-0.212558,9.980645,-0.243107,0.600400,-0.080428,0.793457,-0.122070,8.728027
6.338486,-0.042512,-0.984952,9.936936,0.104171,-0.171994,-0.124137,-0.762939,-1.220703,8.087158
6.348560,0.421523,-0.573607,10.375823,0.568206,0.239351,0.314750,-2.044678,-1.373291,6.378174
6.358624,-0.080233,-0.537682,9.932146,0.066449,0.275276,-0.128927,-1.831055,-0.366211,4.547119
6.368690,-0.079036,-0.118553,9.904603,0.067647,0.694404,-0.156470,-1.892090,0.183105,8.087158
6.378756,0.023351,-0.705333,9.810599,0.170034,0.107625,-0.250474,-4.119873,-0.366211,8.941650
6.388821,0.202978,-0.718506,10.112970,0.349660,0.094452,0.051897,-4.150391,-0.701904,6.408691
6.398886,0.271236,-1.084345,10.109377,0.417918,-0.271387,0.048305,-2.349854,0.091553,1.403809
6.408959,-0.025746,-1.106499,10.195598,0.120936,-0.293541,0.134525,-1.434326,0.610352,-0.762939
6.419023,-0.019759,-1.183140,10.041119,0.126923,-0.370182,-0.019954,1.434326,-0.274658,-5.889893
6.429088,0.020956,-1.125060,9.977053,0.167639,-0.312102,-0.084020,-0.457764,-0.640869,-6.652832
6.439153,-0.388592,-1.079555,10.045909,-0.241910,-0.266597,-0.015163,1.678467,0.244141,-7.202148
6.449219,-0.352068,-1.273552,10.045311,-0.205386,-0.460594,-0.015762,-1.129150,0.122070,-6.927490
6.459283,-0.552651,-1.237028,10.091415,-0.405969,-0.424070,0.030342,-3.143311,0.610352,-5.493164
6.469355,-0.279020,-0.999921,9.810599,-0.132338,-0.186963,-0.250474,0.640869,1.770020,-1.892090
6.479420,-0.373024,-1.239423,10.038724,-0.226342,-0.426465,-0.022349,-1.892090,0.213623,-2.868652
6.489485,-0.656834,-0.885558,10.101594,-0.510152,-0.072601,0.040521,-0.518799,0.030518,-0.579834
6.499552,-0.571212,-1.044229,9.927356,-0.424530,-0.231271,-0.133717,-1.434326,0.000000,0.640869
6.509617,-0.477208,-0.922681,9.948911,-0.330525,-0.109723,-0.112162,-1.464844,-0.701904,5.157471
6.519682,-0.319735,-0.800535,9.993818,-0.173053,0.012423,-0.067255,0.396729,-1.068115,7.202148
6.529755,-0.083826,-0.760419,9.988429,0.062857,0.052539,-0.072644,0.610352,-0.518799,8.636475
6.539821,-0.294587,-0.776585,10.015373,-0.147905,0.036373,-0.045700,-0.976562,-0.457764,8.239746
6.549887,-0.225132,-0.878373,10.055490,-0.078450,-0.065415,-0.005583,-0.946045,-0.244141,7.263184
6.559953,0.140109,-0.770598,9.924362,0.286791,0.042360,-0.136711,-0.762939,-0.061035,4.119873
6.570018,-0.098795,-0.920885,9.981244,0.047888,-0.107927,-0.079829,-0.579834,0.061035,2.136230
6.580083,-0.435894,-0.762215,9.898616,-0.289211,0.050743,-0.162457,0.061035,0.488281,0.640869
6.590149,-0.089813,-0.825084,10.270443,0.056869,-0.012126,0.209370,0.091553,1.190186,1.220703
6.600223,0.084424,-0.922083,10.100396,0.231107,-0.109125,0.039323,1.190186,0.946045,1.922607
6.610289,-0.283211,-0.613724,9.790241,-0.136529,0.199234,-0.270832,1.556396,1.159668,3.082275
6.620354,0.125140,-0.870590,10.080637,0.271822,-0.057632,0.019564,-0.457764,0.823975,3.906250
6.630420,0.004191,-0.889750,10.232721,0.150874,-0.076792,0.171648,-2.349854,0.488281,1.739502
6.640485,-0.230521,-0.459245,10.050101,-0.083838,0.353713,-0.010972,0.427246,0.671387,0.183105
6.650551,-0.101190,-0.658630,10.172247,0.045493,0.154328,0.111174,-0.396729,-0.427246,-0.762939
6.660623,0.102986,-0.704734,10.144105,0.249668,0.108223,0.083032,-0.274658,-0.732422,-0.122070
6.670689,0.004191,-0.812510,10.021959,0.150874,0.000448,-0.039114,-1.739502,0.366211,-0.152588
6.680755,0.073647,-1.018482,10.106982,0.220329,-0.205524,0.045910,-1.373291,0.976562,-1.403809
6.690821,-0.182620,-1.078956,10.067465,-0.035938,-0.265998,0.006392,-2.838135,0.549316,-2.563477
6.700887,-0.049098,-0.974174,10.063273,0.097584,-0.161216,0.002200,0.061035,-0.701904,-3.051758
6.710953,-0.007784,-0.904120,9.956096,0.138898,-0.091162,-0.104977,0.244141,-0.946045,-2.288818
6.721071,-0.375419,-1.022673,10.042317,-0.228737,-0.209715,-0.018756,0.122070,-1.525879,-0.762939
6.731137,-0.481399,-1.105900,10.047706,-0.334717,-0.292942,-0.013367,-0.915527,-1.678467,0.854492
6.741204,-0.293989,-1.246009,9.967473,-0.147306,-0.433051,-0.093600,-0.366211,-1.495361,2.716064
6.751270,-0.052690,-0.909509,10.003997,0.093992,-0.096551,-0.057076,-0.274658,-1.251221,2.685547
6.761335,-0.258063,-0.748444,10.005793,-0.111381,0.064514,-0.055280,1.251221,-1.098633,3.234863
6.771401,-0.296982,-0.824485,10.037527,-0.150300,-0.011528,-0.023546,0.762939,-0.732422,5.706787
6.781473,-0.170046,-0.791554,10.011182,-0.023364,0.021404,-0.049891,0.885010,-0.335693,5.279541
6.791540,-0.085622,-1.108295,10.176438,0.061060,-0.295337,0.115365,-1.251221,-0.396729,5.523682
6.801605,-0.196990,-1.003513,10.141111,-0.050308,-0.190555,0.080039,0.061035,-0.823975,4.913330
6.811671,0.048499,-1.129850,9.930350,0.195181,-0.316893,-0.130723,0.152588,-0.213623,3.662109
6.821737,-0.494572,-0.983156,10.098600,-0.347889,-0.170198,0.037527,-0.671387,0.549316,3.601074
6.831803,-0.162263,-0.869392,9.969868,-0.015580,-0.056434,-0.091205,-0.946045,-0.213623,2.319336
6.841873,0.005389,-0.742456,10.157877,0.152071,0.070502,0.096804,-0.335693,0.091553,1.464844
6.851939,-0.620310,-1.021476,10.060280,-0.473628,-0.208518,-0.000793,-0.640869,0.335693,1.831055
6.862015,0.023950,-1.114283,10.080038,0.170632,-0.301325,0.018966,0.549316,0.671387,0.488281
6.872082,-0.248483,-0.982557,10.017169,-0.101801,-0.169599,-0.043904,0.091553,0.305176,-0.122070
6.882147,-0.464035,-0.929268,10.065668,-0.317353,-0.116310,0.004595,-1.678467,-0.091553,1.068115
6.892228,-0.390388,-1.470542,10.206376,-0.243706,-0.657584,0.145303,-1.800537,-0.396729,1.281738
6.902294,-0.302970,-1.360371,10.078841,-0.156288,-0.547413,0.017768,-0.671387,-0.518799,1.708984
6.912359,-0.320334,-1.358575,10.208771,-0.173652,-0.545617,0.147698,0.091553,-0.640869,4.028320
6.922431,-0.122146,-1.181942,10.087822,0.024536,-0.368984,0.026749,-0.061035,-0.885010,4.516602
6.932498,-0.614921,-0.898731,9.876462,-0.468239,-0.085773,-0.184611,-0.152588,0.335693,4.638672
6.942564,-0.248483,-0.922681,9.914782,-0.101801,-0.109723,-0.146291,-0.946045,0.152588,4.272461
6.952629,-0.074844,-0.977767,10.007589,0.071838,-0.164809,-0.053484,-1.617432,0.457764,2.075195
6.962695,-0.065264,-0.932860,10.099199,0.081418,-0.119902,0.038126,-0.152588,0.610352,1.586914
6.972760,-0.199984,-0.901126,10.109976,-0.053302,-0.088168,0.048903,0.457764,0.732422,1.861572
6.982834,-0.168250,-0.835862,9.993219,-0.021568,-0.022904,-0.067854,0.274658,1.037598,2.532959
6.992901,0.053289,-0.885558,10.053693,0.199971,-0.072601,-0.007380,-0.671387,0.488281,2.349854
7.002966,-0.214354,-0.771795,9.977053,-0.067672,0.041163,-0.084020,-0.732422,-0.152588,1.983643
7.013032,-0.366438,-0.808918,10.054292,-0.219756,0.004040,-0.006781,-0.244141,-0.885010,1.251221
7.023098,-0.247885,-0.814905,9.943522,-0.101202,-0.001947,-0.117551,0.610352,-2.227783,1.800537
7.033163,-0.266446,-0.958008,10.036928,-0.119764,-0.145050,-0.024145,1.678467,-2.014160,1.861572
7.043234,-0.306563,-1.024470,10.004595,-0.159880,-0.211512,-0.056478,0.732422,-1.342773,2.227783
7.053300,-0.120948,-0.740061,10.033934,0.025734,0.072897,-0.027139,1.037598,-0.640869,2.410889
7.063365,-0.404758,-0.705333,10.131531,-0.258076,0.107625,0.070458,2.258301,-0.183105,1.190186
7.073433,-0.326321,-0.747246,10.129735,-0.179639,0.065712,0.068662,2.197266,-0.030518,0.061035
7.083498,-0.162263,-0.916095,9.936936,-0.015580,-0.103137,-0.124137,0.976562,-0.396729,-0.152588
7.093564,-0.144899,-0.787961,9.887239,0.001784,0.024997,-0.173834,0.061035,0.579834,-0.610352
7.103639,-0.310155,-0.872985,9.969269,-0.163473,-0.060027,-0.091804,-0.061035,0.732422,-0.671387
7.113705,-0.193997,-1.092129,10.139315,-0.047314,-0.279171,0.078242,-1.159668,-0.183105,-0.335693
7.123770,-0.761017,-1.277743,9.981244,-0.614335,-0.464785,-0.079829,-1.068115,0.183105,2.288818
7.133836,-0.073048,-1.210084,10.227332,0.073634,-0.397126,0.166259,-1.068115,0.091553,3.967285
7.143901,-0.136516,-1.063389,10.113569,0.010166,-0.250431,0.052496,-1.342773,0.030518,3.417969
7.153967,-0.407752,-0.834664,9.975256,-0.261070,-0.021706,-0.085817,-0.305176,0.030518,3.356934
7.164040,-0.216151,-0.888552,10.099199,-0.069468,-0.075594,0.038126,-1.007080,-0.518799,4.425049
7.174121,-0.386796,-0.920885,10.123748,-0.240113,-0.107927,0.062675,-2.319336,-1.281738,4.760742
7.184188,-0.186812,-0.801134,9.995015,-0.040129,0.011824,-0.066058,-1.373291,-1.312256,3.509521
7.194255,-0.078437,-0.680186,10.123149,0.068245,0.132772,0.062076,-0.701904,-0.122070,1.678467
7.204322,-0.310155,-0.574805,10.172247,-0.163473,0.238153,0.111174,-0.640869,0.457764,1.068115
7.214387,-0.043709,-1.069376,10.208172,0.102973,-0.256418,0.147099,-2.136230,1.342773,1.525879
7.224458,-0.074246,-0.981359,9.989626,0.072437,-0.168401,-0.071446,-2.441406,2.075195,1.647949
7.234524,-0.188009,-1.038241,9.856703,-0.041327,-0.225283,-0.204370,-2.777100,2.014160,2.166748
7.244590,-0.102387,-0.932261,10.217752,0.044295,-0.119303,0.156679,-0.976562,1.739502,2.471924
7.254658,-0.150287,-1.065784,10.100396,-0.003605,-0.252826,0.039323,2.624512,1.770020,2.258301
7.264724,-0.183219,-1.011896,10.083631,-0.036537,-0.198938,0.022558,3.997803,0.671387,3.906250
7.274791,-0.147294,-0.933459,10.093810,-0.000611,-0.120501,0.032737,3.326416,0.274658,5.157471
7.284858,0.089214,-0.937051,10.068063,0.235897,-0.124093,0.006990,1.617432,0.152588,4.364014
7.294924,0.066462,-0.828078,10.351274,0.213144,-0.015120,0.290202,1.617432,-0.396729,3.601074
7.304990,-0.390987,-1.085543,10.035731,-0.244305,-0.272585,-0.025342,0.701904,-2.502441,4.669189
7.315056,0.190404,-1.029260,9.971065,0.337086,-0.216302,-0.090008,1.129150,-1.800537,6.011963
7.325121,0.567021,-1.043031,10.027348,0.713703,-0.230073,-0.033725,-0.885010,-1.525879,6.866455
7.335190,-0.089813,-0.843047,10.007589,0.056869,-0.030089,-0.053484,-0.640869,0.762939,7.080078
7.345257,0.291594,-0.935854,9.942325,0.438276,-0.122896,-0.118748,-0.305176,1.159668,7.354736
7.355323,0.038919,-0.861010,9.968670,0.185601,-0.048052,-0.092403,0.518799,0.976562,7.690430
7.365390,-0.389789,-1.371149,10.164463,-0.243107,-0.558191,0.103390,-2.929688,0.274658,9.124756
7.375462,-0.029339,-1.119672,10.093810,0.117343,-0.306714,0.032737,-1.098633,-1.831055,7.049561
7.385530,0.350272,-0.802332,10.333312,0.496954,0.010626,0.272239,-0.671387,-1.068115,7.537842
7.395596,0.431104,-1.003513,10.074650,0.577786,-0.190555,0.013577,-2.136230,-0.366211,7.843018
7.405663,0.274828,-0.769999,10.250684,0.421511,0.042959,0.189611,1.647949,1.556396,5.737305
7.415728,0.196990,-0.705333,10.068662,0.343673,0.107625,0.007589,0.793457,1.373291,5.249023
7.425795,0.132325,-0.897534,10.090217,0.279007,-0.084576,0.029144,-1.159668,0.000000,4.974365
7.435861,0.268841,-1.037043,10.096205,0.415523,-0.224086,0.035132,-0.640869,-0.640869,4.211426
7.445928,0.303569,-0.963397,10.112371,0.450251,-0.150439,0.051298,1.434326,-0.549316,3.356934
7.455994,0.286205,-0.727487,10.099797,0.432887,0.085471,0.038724,1.922607,-0.854492,3.173828
7.466062,0.285606,-0.730481,9.918375,0.432288,0.082477,-0.142698,2.288818,-0.427246,2.685547
7.476129,0.346080,-0.795745,9.995614,0.492763,0.017213,-0.065459,1.800537,0.091553,1.312256
7.486355,-0.071851,-0.817300,9.974658,0.074832,-0.004342,-0.086415,0.274658,-0.122070,0.610352
7.496419,0.144899,-0.921484,10.011182,0.291581,-0.108526,-0.049891,-1.251221,0.152588,-0.488281
7.506485,0.213157,-0.940045,10.048304,0.359839,-0.127087,-0.012768,-1.159668,0.396729,-0.793457
7.516558,0.394579,-1.159189,10.250085,0.541262,-0.346232,0.189012,-0.946045,-0.305176,-1.556396
7.526631,0.017963,-0.816702,10.099199,0.164645,-0.003744,0.038126,-1.342773,-0.549316,-1.953125
7.536697,-0.031135,-1.109493,9.911788,0.115547,-0.296535,-0.149285,-1.464844,-0.610352,-3.356934
7.546769,-0.010179,-0.992137,9.928553,0.136503,-0.179179,-0.132519,-1.251221,-0.335693,-3.265381
7.556839,0.150287,-1.125659,9.998608,0.296970,-0.312701,-0.062465,-3.326416,0.335693,-1.434326
7.566904,-0.223934,-0.959804,9.885443,-0.077252,-0.146846,-0.175630,-2.288818,1.342773,-1.464844
7.576974,-0.089214,-0.983156,10.090816,0.057468,-0.170198,0.029743,-1.281738,1.312256,-1.708984
7.587045,0.099393,-1.080753,10.036928,0.246076,-0.267795,-0.024145,-1.403809,-0.976562,-1.617432
7.597111,0.152084,-0.847837,10.091415,0.298766,-0.034879,0.030342,-0.030518,-0.885010,-0.671387
7.607185,0.134720,-0.958607,9.938732,0.281402,-0.145649,-0.122341,2.014160,-0.793457,0.579834
7.617256,0.189207,-0.989742,9.915381,0.335889,-0.176784,-0.145692,2.044678,-0.549316,0.610352
7.627322,0.261057,-0.802930,9.963281,0.407739,0.010028,-0.097792,2.197266,-0.701904,0.152588
7.637393,0.283211,-1.023272,10.045311,0.429893,-0.210314,-0.015762,1.647949,-0.488281,0.000000
7.647463,0.262853,-0.952020,10.046508,0.409536,-0.139062,-0.014565,1.983643,-0.701904,-0.671387
7.657528,0.452659,-0.854423,10.106982,0.599341,-0.041465,0.045910,1.312256,0.152588,-3.173828
7.667600,0.156874,-0.771795,10.027947,0.303556,0.041163,-0.033126,-0.244141,0.213623,-4.455566
7.677672,0.045505,-0.610131,10.109377,0.192188,0.202827,0.048305,-0.152588,0.854492,-4.089355
7.687738,-0.063468,-0.974174,9.971065,0.083214,-0.161216,-0.090008,-1.068115,0.976562,-4.882812
7.697808,-0.097597,-0.975970,10.038126,0.049085,-0.163013,-0.022947,-1.007080,0.885010,-5.676270
7.707879,-0.150886,-0.928669,10.024953,-0.004204,-0.115711,-0.036120,-0.823975,0.152588,-5.065918
7.717944,-0.107177,-0.821492,10.059681,0.039505,-0.008534,-0.001392,0.183105,-0.457764,-3.845215
7.728019,-0.207169,-0.902324,9.985435,-0.060487,-0.089366,-0.075638,0.579834,-1.098633,-1.892090
7.738091,-0.396376,-0.981359,9.957892,-0.249694,-0.168401,-0.103180,0.885010,-0.793457,-0.946045
7.748159,-0.252675,-0.987946,10.020163,-0.105992,-0.174988,-0.040910,0.793457,-1.007080,0.915527
7.758231,-0.199984,-1.010698,10.020762,-0.053302,-0.197740,-0.040311,0.518799,-0.976562,1.220703
7.768305,-0.271236,-0.898731,10.037527,-0.124554,-0.085773,-0.023546,0.671387,-1.159668,1.159668
7.778370,-0.242496,-0.852028,10.059082,-0.095814,-0.039070,-0.001991,0.427246,-0.885010,0.793457
7.788444,-0.420326,-0.765209,10.023157,-0.273644,0.047749,-0.037916,-0.579834,-0.640869,0.610352
7.798515,-0.433499,-0.891546,10.086625,-0.286816,-0.078588,0.025552,-1.098633,0.274658,1.983643
7.808584,-0.285007,-0.978365,10.062675,-0.138325,-0.165408,0.001602,-1.037598,0.488281,2.441406
7.818655,-0.264051,-0.907114,10.053693,-0.117369,-0.094156,-0.007380,-0.335693,0.549316,4.364014
7.828726,-0.220342,-0.768801,9.826166,-0.073660,0.044157,-0.234907,1.007080,0.671387,6.774902
7.838791,-0.023351,-0.845442,10.049502,0.123331,-0.032484,-0.011571,0.732422,0.183105,7.446289
7.848869,-0.226928,-0.804128,10.024953,-0.080246,0.008830,-0.036120,-0.427246,-0.335693,5.828857
7.858941,-0.217348,-0.810714,10.003398,-0.070666,0.002244,-0.057675,-1.739502,-0.823975,6.072998
7.869008,0.239502,-0.892145,10.054292,0.386184,-0.079187,-0.006781,-1.129150,-0.061035,7.568359
7.879078,0.115560,-0.951422,10.057286,0.262242,-0.138464,-0.003787,-1.647949,0.091553,6.469727
7.889150,-0.091609,-0.836461,10.111174,0.055073,-0.023503,0.050101,-0.762939,0.366211,5.432129
7.899215,0.081431,-0.810714,10.074051,0.228113,0.002244,0.012978,0.701904,0.305176,5.584717
7.909288,0.196990,-1.073568,10.008188,0.343673,-0.260610,-0.052885,0.396729,0.030518,5.767822
7.919360,0.136516,-1.192720,10.130334,0.283198,-0.379762,0.069261,-0.213623,-0.640869,4.211426
7.929427,0.149689,-1.031655,10.068662,0.296371,-0.218697,0.007589,0.946045,-0.396729,2.990723
7.939505,-0.020358,-1.108894,10.073452,0.126325,-0.295936,0.012379,3.570557,-0.549316,2.319336
7.949576,0.123344,-0.992137,10.003997,0.270026,-0.179179,-0.057076,2.868652,-0.762939,2.685547
7.959642,0.202379,-1.241219,10.264455,0.349061,-0.428261,0.203382,3.082275,-1.129150,2.288818
7.969717,0.282014,-0.961002,10.047706,0.428696,-0.148044,-0.013367,2.105713,-1.037598,2.227783
7.979790,0.169448,-1.029260,9.992620,0.316130,-0.216302,-0.068453,1.678467,-0.946045,1.495361
7.989857,-0.070054,-0.928669,10.035731,0.076628,-0.115711,-0.025342,2.105713,-0.610352,0.030518
7.999929,-0.027543,-0.969983,10.064471,0.119139,-0.157025,0.003398,0.549316,-0.732422,0.305176
8.010001,0.063468,-0.867596,10.046508,0.210150,-0.054638,-0.014565,0.732422,-0.732422,0.457764
8.020070,0.019160,-0.923280,10.023157,0.165842,-0.110322,-0.037916,0.915527,-0.701904,0.061035
8.030142,-0.068857,-0.929268,10.031539,0.077825,-0.116310,-0.029534,0.061035,-0.457764,-0.122070
8.040215,0.099393,-0.890349,10.148895,0.246076,-0.077391,0.087822,-0.244141,-0.793457,-0.640869
8.050281,0.119751,-0.831671,10.177037,0.266433,-0.018713,0.115964,-0.152588,-0.732422,-0.793457
8.060353,-0.238304,-0.923280,9.986034,-0.091622,-0.110322,-0.075039,-0.427246,-1.037598,-0.762939
8.070426,-0.003593,-1.003513,10.033336,0.143090,-0.190555,-0.027737,-0.274658,-1.159668,-0.518799
8.080493,0.143102,-0.846639,9.985435,0.289785,-0.033681,-0.075638,0.335693,-1.251221,0.610352
8.090565,0.001198,-0.850232,10.057885,0.147880,-0.037274,-0.003188,-0.335693,-1.464844,0.946045
8.100640,-0.022753,-0.904719,10.074051,0.123930,-0.091761,0.012978,-0.854492,-1.495361,1.800537
8.110707,0.078437,-0.947829,10.017768,0.225119,-0.134871,-0.043305,-0.549316,-1.220703,2.746582
8.120779,0.307161,-0.865800,10.056088,0.453843,-0.052842,-0.004985,-0.854492,-0.976562,3.936768
8.130851,0.395777,-0.932860,10.097402,0.542459,-0.119902,0.036329,-1.678467,-0.488281,4.852295
8.140917,0.408950,-0.886157,10.149494,0.555632,-0.073199,0.088421,-1.739502,-0.213623,4.394531
8.150989,0.451461,-1.020877,10.131531,0.598143,-0.207919,0.070458,-1.342773,-0.213623,3.295898
8.161062,0.458646,-1.032253,10.175240,0.605328,-0.219295,0.114168,-0.915527,-0.335693,2.502441
8.171133,0.341889,-0.969384,10.052496,0.488571,-0.156426,-0.008577,0.427246,-0.274658,0.091553
8.181207,0.359852,-0.873583,10.107581,0.506534,-0.060625,0.046508,1.007080,-0.122070,-0.427246
8.191278,0.352667,-0.857417,10.068063,0.499349,-0.044459,0.006990,2.044678,-0.091553,-0.335693
8.201344,0.241298,-0.799937,10.038126,0.387980,0.013021,-0.022947,1.678467,-0.396729,0.976562
8.211417,0.192799,-0.791554,10.063872,0.339481,0.021404,0.002799,1.831055,-0.305176,1.373291
8.221504,0.055085,-0.758024,10.092612,0.201768,0.054934,0.031539,0.640869,-0.579834,0.518799
8.231577,-0.007185,-0.757425,10.122550,0.139497,0.055533,0.061477,-0.152588,-0.946045,0.122070
8.241650,0.017364,-0.907712,10.045311,0.164046,-0.094754,-0.015762,-1.007080,-1.281738,-1.464844
8.251724,-0.088017,-0.808918,10.054292,0.058665,0.004040,-0.006781,-0.823975,-1.007080,-1.831055
8.261790,0.016765,-0.903521,10.082433,0.163447,-0.090563,0.021361,-1.098633,-0.885010,-1.861572
8.271862,-0.047900,-1.002316,10.056088,0.098782,-0.189358,-0.004985,-0.091553,-0.579834,-3.173828
8.281953,-0.350870,-0.973575,10.023755,-0.204188,-0.160617,-0.037317,0.183105,-0.427246,-4.119873
8.292026,-0.359253,-0.840652,9.996812,-0.212571,-0.027694,-0.064261,0.732422,-0.671387,-5.157471
8.302092,-0.234712,-0.887355,10.023755,-0.088030,-0.074397,-0.037317,0.091553,-0.732422,-4.669189
8.312165,-0.056283,-0.996328,10.106982,0.090399,-0.183370,0.045910,0.457764,-1.007080,-4.211426
8.322237,-0.180225,-0.843047,9.996812,-0.033543,-0.030089,-0.064261,0.823975,-1.068115,-4.241943
8.332303,-0.216749,-0.850831,10.063872,-0.070067,-0.037873,0.002799,0.946045,-0.885010,-4.516602
8.342373,0.029339,-0.984353,10.052496,0.176021,-0.171395,-0.008577,0.579834,-0.915527,-4.608154
8.352448,0.062869,-0.887355,10.059082,0.209551,-0.074397,-0.001991,-0.213623,-1.007080,-4.669189
8.362519,-0.007185,-0.826282,10.029743,0.139497,-0.013324,-0.031330,-0.122070,-0.854492,-4.364014
8.372595,-0.014969,-0.904719,10.066866,0.131713,-0.091761,0.005793,-0.335693,-1.037598,-4.913330
8.382668,0.023351,-0.898731,10.058483,0.170034,-0.085773,-0.002590,-0.854492,-1.556396,-5.340576
8.392736,0.109572,-0.971180,10.104587,0.256254,-0.158222,0.043515,-1.617432,-1.892090,-4.821777
8.402807,0.134720,-0.747845,9.971065,0.281402,0.065113,-0.090008,-1.007080,-1.739502,-3.295898
8.412882,0.016166,-0.904120,10.124346,0.162849,-0.091162,0.063273,-1.342773,-1.525879,-2.777100
8.422948,-0.156874,-0.999921,10.057885,-0.010192,-0.186963,-0.003188,-1.525879,-1.495361,-2.105713
8.433021,0.158670,-0.993334,10.016570,0.305352,-0.180376,-0.044502,-1.037598,-1.312256,-1.342773
8.443091,0.181423,-1.023871,10.098600,0.328105,-0.210913,0.037527,-1.312256,-1.434326,-1.159668
8.453157,0.128134,-1.116079,10.009385,0.274816,-0.303121,-0.051688,0.152588,-1.190186,-1.342773
8.463228,0.149689,-1.036445,10.033336,0.296371,-0.223487,-0.027737,-0.762939,-1.159668,-0.671387
8.473300,0.162263,-1.026865,10.010583,0.308945,-0.213907,-0.050490,-0.305176,-1.251221,-1.220703
8.483366,0.305964,-0.979563,10.062076,0.452646,-0.166605,0.001003,-0.213623,-1.098633,-1.190186
8.493439,0.305365,-0.944835,10.055490,0.452047,-0.131877,-0.005583,0.030518,-0.885010,-1.098633
8.503511,0.210762,-0.856219,10.078242,0.357444,-0.043262,0.017169,-0.640869,-0.915527,-1.068115
8.513578,0.263452,-0.835862,10.076446,0.410134,-0.022904,0.015373,-0.427246,-0.823975,-1.281738
8.523650,0.278421,-0.842448,10.092612,0.425103,-0.029490,0.031539,-0.427246,-0.885010,-1.190186
8.533725,0.237706,-0.797542,10.098001,0.384388,0.015416,0.036928,0.183105,-0.762939,-1.342773
8.543792,0.108375,-0.793350,10.050699,0.255057,0.019608,-0.010373,0.396729,-0.427246,-1.831055
8.553869,-0.015568,-0.721500,10.059681,0.131115,0.091458,-0.001392,0.488281,-0.366211,-1.953125
8.563940,0.179028,-0.787961,10.057286,0.325710,0.024997,-0.003787,0.152588,-0.457764,-1.800537
8.574007,0.240101,-0.811912,10.060280,0.386783,0.001046,-0.000793,-0.152588,-0.457764,-1.892090
8.584073,0.160466,-0.819097,10.063273,0.307149,-0.006139,0.002200,-0.091553,-0.305176,-2.410889
8.594143,0.184417,-0.904120,10.074650,0.331099,-0.091162,0.013577,-0.152588,-0.213623,-3.601074
8.604209,0.230521,-0.932261,10.069860,0.377203,-0.119303,0.008787,0.030518,-0.213623,-3.723145
8.614276,0.213157,-0.902922,10.055490,0.359839,-0.089964,-0.005583,-0.335693,-0.457764,-3.356934
8.624343,0.070653,-0.977767,10.069261,0.217335,-0.164809,0.008188,-0.335693,-0.457764,-3.326416
8.634409,-0.012574,-0.970582,10.041718,0.134108,-0.157624,-0.019355,-0.335693,-0.457764,-3.326416
8.644475,0.056283,-0.978365,10.046508,0.202965,-0.165408,-0.014565,-0.366211,-0.610352,-3.784180
8.654542,0.037123,-0.974174,10.042916,0.183805,-0.161216,-0.018157,-0.244141,-0.396729,-3.601074
8.664608,0.210762,-0.990341,10.056687,0.357444,-0.177383,-0.004386,0.671387,-0.030518,-3.112793
8.674675,0.143102,-0.916095,10.056088,0.289785,-0.103137,-0.004985,1.159668,0.152588,-2.990723
8.684742,0.031135,-0.962199,10.054891,0.177817,-0.149241,-0.006182,0.915527,0.061035,-3.265381
8.694808,-0.008981,-0.912502,10.084828,0.137701,-0.099544,0.023756,0.976562,0.183105,-3.387451
8.704875,0.008981,-0.870590,10.064471,0.155664,-0.057632,0.003398,0.976562,0.122070,-3.753662
8.714942,-0.074246,-0.777783,10.057286,0.072437,0.035175,-0.003787,0.640869,-0.061035,-3.723145
8.725008,-0.082628,-0.819695,10.047706,0.064054,-0.006737,-0.013367,0.396729,0.030518,-3.265381
8.735076,0.068258,-0.861608,10.081835,0.214940,-0.048650,0.020762,0.366211,0.061035,-2.624512
8.745145,-0.080832,-0.872985,10.050699,0.065850,-0.060027,-0.010373,0.579834,0.183105,-2.807617
8.755212,-0.115560,-0.938848,10.050699,0.031123,-0.125890,-0.010373,0.579834,0.274658,-3.417969
8.765279,-0.073647,-0.926274,10.065070,0.073035,-0.113316,0.003997,0.457764,0.244141,-3.692627
8.775347,-0.135319,-0.912502,10.049502,0.011364,-0.099544,-0.011571,0.518799,0.396729,-4.211426
8.785413,0.037722,-0.949026,10.059082,0.184404,-0.136069,-0.001991,0.640869,0.579834,-5.310059
8.795549,0.110171,-0.865201,10.072255,0.256853,-0.052243,0.011182,0.701904,0.640869,-5.859375
8.805671,0.150287,-0.831072,10.051897,0.296970,-0.018114,-0.009176,0.366211,0.610352,-5.249023
8.815737,0.144300,-0.848436,10.057286,0.290982,-0.035478,-0.003787,0.122070,0.457764,-5.004883
8.825801,0.119152,-0.869392,10.050101,0.265834,-0.056434,-0.010972,0.030518,0.305176,-4.211426
8.835866,0.197589,-0.874781,10.053693,0.344271,-0.061823,-0.007380,-0.061035,0.274658,-3.997803
8.845932,0.256267,-0.872985,10.050699,0.402949,-0.060027,-0.010373,-0.091553,0.305176,-3.906250
8.855998,0.357457,-0.874781,10.050101,0.504139,-0.061823,-0.010972,0.061035,0.305176,-3.326416
8.866063,0.350870,-0.866997,10.054292,0.497553,-0.054039,-0.006781,0.091553,0.274658,-2.838135
8.876128,0.226928,-0.874182,10.060280,0.373610,-0.061224,-0.000793,0.183105,0.213623,-1.861572
8.886195,0.160466,-0.877775,10.062076,0.307149,-0.064817,0.001003,0.183105,0.183105,-1.434326
8.896261,0.107776,-0.883163,10.060280,0.254458,-0.070206,-0.000793,0.183105,0.122070,-0.885010
8.906325,0.028740,-0.884960,10.056687,0.175422,-0.072002,-0.004386,0.152588,0.122070,-0.701904
8.916391,0.013173,-0.878373,10.060280,0.159855,-0.065415,-0.000793,0.152588,0.122070,-0.549316
8.926456,-0.017963,-0.881367,10.059082,0.128720,-0.068409,-0.001991,0.091553,0.061035,-0.335693
8.936521,-0.030536,-0.886157,10.060280,0.116146,-0.073199,-0.000793,0.030518,0.061035,-0.305176
8.946590,-0.052092,-0.879571,10.054292,0.094591,-0.066613,-0.006781,0.030518,0.091553,-0.213623
8.956662,-0.063468,-0.884960,10.052496,0.083214,-0.072002,-0.008577,0.061035,0.061035,-0.183105
8.966728,-0.067061,-0.880768,10.053693,0.079622,-0.067810,-0.007380,0.061035,0.061035,-0.122070
8.976797,-0.076042,-0.880768,10.055490,0.070640,-0.067810,-0.005583,0.061035,0.030518,-0.091553
8.986861,-0.071851,-0.884361,10.047706,0.074832,-0.071403,-0.013367,0.030518,0.030518,-0.091553
8.996927,-0.068857,-0.884960,10.055490,0.077825,-0.072002,-0.005583,0.000000,0.030518,-0.061035
9.006992,-0.068857,-0.885558,10.053094,0.077825,-0.072601,-0.007978,0.030518,0.061035,-0.061035
9.017057,-0.066462,-0.885558,10.062076,0.080220,-0.072601,0.001003,-0.030518,0.061035,0.000000
9.027122,-0.071252,-0.884361,10.057286,0.075430,-0.071403,-0.003787,-0.030518,0.091553,0.000000
9.037187,-0.073048,-0.878373,10.062675,0.073634,-0.065415,0.001602,0.000000,0.061035,0.030518
9.047252,-0.068857,-0.884361,10.057885,0.077825,-0.071403,-0.003188,0.030518,0.061035,0.030518
9.057316,-0.062869,-0.885558,10.054891,0.083813,-0.072601,-0.006182,0.030518,0.061035,0.030518
9.067381,-0.067659,-0.885558,10.065070,0.079023,-0.072601,0.003997,0.030518,0.091553,0.061035
9.077446,-0.070054,-0.886756,10.066267,0.076628,-0.073798,0.005194,0.030518,0.061035,0.030518
9.087511,-0.066462,-0.890947,10.065070,0.080220,-0.077989,0.003997,0.030518,0.091553,0.030518
9.097576,-0.061672,-0.891546,10.065668,0.085010,-0.078588,0.004595,0.030518,0.061035,0.000000
9.107642,-0.057480,-0.890349,10.063273,0.089202,-0.077391,0.002200,0.030518,0.030518,0.000000
9.117707,-0.062869,-0.886157,10.068662,0.083813,-0.073199,0.007589,0.000000,0.030518,-0.030518
9.127772,-0.071851,-0.884361,10.071057,0.074832,-0.071403,0.009984,0.030518,0.000000,-0.030518
9.137837,-0.071851,-0.890349,10.067465,0.074832,-0.077391,0.006392,0.030518,0.000000,-0.061035
9.147903,-0.067659,-0.895139,10.069261,0.079023,-0.082181,0.008188,0.030518,0.000000,-0.091553
9.157967,-0.067061,-0.900527,10.058483,0.079622,-0.087569,-0.002590,0.000000,0.030518,-0.030518
9.168033,-0.071851,-0.902324,10.059082,0.074832,-0.089366,-0.001991,0.030518,0.030518,0.000000
9.178100,-0.074844,-0.895139,10.063872,0.071838,-0.082181,0.002799,-0.030518,0.030518,0.000000
9.188167,-0.074844,-0.896935,10.058483,0.071838,-0.083977,-0.002590,-0.030518,0.030518,0.030518
9.198232,-0.075443,-0.894540,10.056687,0.071239,-0.081582,-0.004386,-0.030518,0.000000,0.030518
9.208299,-0.066462,-0.895139,10.053693,0.080220,-0.082181,-0.007380,-0.030518,0.030518,0.030518
9.218365,-0.062869,-0.890947,10.051897,0.083813,-0.077989,-0.009176,0.000000,0.030518,0.000000
9.228433,-0.071252,-0.893342,10.061477,0.075430,-0.080384,0.000404,0.030518,0.030518,0.000000
9.238499,-0.074844,-0.895737,10.057885,0.071838,-0.082779,-0.003188,0.030518,-0.030518,0.000000
9.248567,-0.076042,-0.901725,10.057885,0.070640,-0.088767,-0.003188,0.061035,-0.030518,-0.030518
9.258632,-0.074246,-0.899330,10.046508,0.072437,-0.086372,-0.014565,0.000000,0.000000,-0.030518
9.268698,-0.073048,-0.898731,10.050101,0.073634,-0.085773,-0.010972,0.030518,0.000000,-0.030518
9.278763,-0.076042,-0.897534,10.063273,0.070640,-0.084576,0.002200,0.000000,0.000000,0.030518
9.288829,-0.077838,-0.892145,10.065070,0.068844,-0.079187,0.003997,0.030518,0.000000,0.000000
9.298895,-0.074844,-0.881966,10.057885,0.071838,-0.069008,-0.003188,0.000000,0.000000,0.030518
9.308962,-0.070653,-0.882565,10.057885,0.076029,-0.069607,-0.003188,-0.030518,0.000000,0.030518
9.319027,-0.071851,-0.883762,10.061477,0.074832,-0.070804,0.000404,-0.030518,0.000000,0.030518
9.329094,-0.065863,-0.889750,10.061477,0.080819,-0.076792,0.000404,0.000000,0.000000,0.030518
9.339159,-0.068258,-0.887355,10.063273,0.078424,-0.074397,0.002200,0.000000,0.000000,0.030518
9.349226,-0.068857,-0.887953,10.050101,0.077825,-0.074996,-0.010972,0.000000,0.000000,-0.030518
9.359346,-0.065264,-0.892145,10.045311,0.081418,-0.079187,-0.015762,-0.030518,-0.030518,0.000000
9.369445,-0.071252,-0.891546,10.050699,0.075430,-0.078588,-0.010373,-0.061035,-0.061035,0.000000
9.379544,-0.071252,-0.892744,10.053693,0.075430,-0.079786,-0.007380,-0.061035,-0.061035,-0.030518
9.389642,-0.073048,-0.893941,10.056687,0.073634,-0.080983,-0.004386,-0.030518,-0.030518,-0.030518
9.399741,-0.067659,-0.895737,10.057286,0.079023,-0.082779,-0.003787,-0.030518,-0.030518,-0.030518
9.409837,-0.070653,-0.897534,10.048903,0.076029,-0.084576,-0.012170,-0.030518,0.000000,-0.030518
9.419935,-0.068258,-0.890349,10.051897,0.078424,-0.077391,-0.009176,0.000000,0.000000,-0.030518
9.430030,-0.071851,-0.891546,10.052496,0.074832,-0.078588,-0.008577,0.000000,0.030518,0.000000
9.440126,-0.065264,-0.890349,10.050101,0.081418,-0.077391,-0.010972,0.030518,0.030518,-0.030518
9.450231,-0.067659,-0.888552,10.052496,0.079023,-0.075594,-0.008577,0.030518,0.030518,-0.030518
9.460327,-0.061073,-0.887355,10.057286,0.085609,-0.074397,-0.003787,0.030518,0.000000,0.000000
9.470418,-0.060474,-0.886756,10.059082,0.086208,-0.073798,-0.001991,0.030518,0.000000,0.030518
9.480544,-0.061073,-0.894540,10.056088,0.085609,-0.081582,-0.004985,-0.030518,0.000000,0.030518
9.490634,-0.068857,-0.890947,10.041718,0.077825,-0.077989,-0.019355,0.000000,0.000000,0.030518
9.500725,-0.071851,-0.893941,10.044712,0.074832,-0.080983,-0.016361,0.000000,0.030518,0.030518
9.510815,-0.074844,-0.886157,10.052496,0.071838,-0.073199,-0.008577,0.000000,0.030518,-0.030518
9.520906,-0.073048,-0.886756,10.057286,0.073634,-0.073798,-0.003787,0.000000,0.000000,-0.030518
9.530996,-0.075443,-0.879571,10.058483,0.071239,-0.066613,-0.002590,0.030518,0.030518,0.000000
9.541087,-0.076042,-0.887355,10.054292,0.070640,-0.074397,-0.006781,0.030518,0.000000,0.000000
9.551178,-0.073647,-0.891546,10.054292,0.073035,-0.078588,-0.006781,0.030518,0.030518,0.030518
9.561345,-0.065863,-0.888552,10.044113,0.080819,-0.075594,-0.016960,0.030518,0.000000,0.000000
9.571444,-0.063468,-0.884960,10.055490,0.083214,-0.072002,-0.005583,0.061035,0.061035,0.000000
9.581541,-0.066462,-0.885558,10.058483,0.080220,-0.072601,-0.002590,0.030518,0.061035,0.000000
9.591652,-0.062869,-0.885558,10.053693,0.083813,-0.072601,-0.007380,0.000000,0.030518,0.030518
9.601751,-0.067659,-0.883762,10.051897,0.079023,-0.070804,-0.009176,0.000000,-0.030518,0.000000
9.611848,-0.062271,-0.877176,10.062076,0.084412,-0.064218,0.001003,0.000000,0.000000,0.000000
9.621945,-0.065863,-0.875380,10.066267,0.080819,-0.062422,0.005194,0.030518,0.030518,0.030518
9.632044,-0.070653,-0.875380,10.062076,0.076029,-0.062422,0.001003,0.030518,0.030518,0.030518
9.642141,-0.071252,-0.874781,10.057885,0.075430,-0.061823,-0.003188,0.030518,0.000000,0.000000
9.652239,-0.067061,-0.881966,10.045311,0.079622,-0.069008,-0.015762,0.000000,0.000000,-0.030518
9.662425,-0.065863,-0.884361,10.049502,0.080819,-0.071403,-0.011571,0.000000,0.000000,-0.030518
9.672517,-0.077239,-0.889750,10.059082,0.069443,-0.076792,-0.001991,0.000000,0.000000,-0.030518
9.682606,-0.075443,-0.885558,10.056687,0.071239,-0.072601,-0.004386,0.030518,-0.030518,-0.030518
9.692696,-0.075443,-0.888552,10.063273,0.071239,-0.075594,0.002200,0.000000,0.000000,-0.030518
9.702786,-0.079036,-0.887355,10.057885,0.067647,-0.074397,-0.003188,0.000000,0.000000,-0.030518
9.712875,-0.078437,-0.887355,10.049502,0.068245,-0.074397,-0.011571,0.000000,-0.030518,0.030518
9.722966,-0.088017,-0.886157,10.054891,0.058665,-0.073199,-0.006182,0.000000,0.000000,0.000000
9.733054,-0.082628,-0.885558,10.053094,0.064054,-0.072601,-0.007978,0.000000,0.030518,0.030518
9.743142,-0.079036,-0.890349,10.043514,0.067647,-0.077391,-0.017558,0.000000,0.000000,0.000000
9.753229,-0.077239,-0.891546,10.044712,0.069443,-0.078588,-0.016361,0.000000,0.030518,0.000000
9.763390,-0.076641,-0.886157,10.051298,0.070042,-0.073199,-0.009775,0.000000,0.030518,-0.030518
9.773488,-0.079634,-0.885558,10.059082,0.067048,-0.072601,-0.001991,0.000000,0.000000,0.000000
9.783587,-0.074844,-0.883762,10.053693,0.071838,-0.070804,-0.007380,0.030518,0.000000,-0.030518
9.793685,-0.073048,-0.890947,10.047107,0.073634,-0.077989,-0.013966,0.030518,0.030518,0.000000
9.803782,-0.071851,-0.888552,10.039922,0.074832,-0.075594,-0.021151,0.122070,0.000000,-0.030518
9.813879,-0.076042,-0.883163,10.042916,0.070640,-0.070206,-0.018157,0.122070,-0.030518,-0.030518
9.823975,-0.074246,-0.877176,10.052496,0.072437,-0.064218,-0.008577,0.122070,0.000000,-0.030518
9.834071,-0.071851,-0.887355,10.053693,0.074832,-0.074397,-0.007380,0.061035,0.030518,0.000000
9.844168,-0.076641,-0.889750,10.049502,0.070042,-0.076792,-0.011571,0.061035,0.000000,0.000000
9.854265,-0.073048,-0.886756,10.050101,0.073634,-0.073798,-0.010972,0.061035,0.000000,-0.030518
9.864465,-0.075443,-0.886756,10.054891,0.071239,-0.073798,-0.006182,0.061035,0.000000,0.000000
9.874553,-0.074246,-0.889151,10.060280,0.072437,-0.076193,-0.000793,0.061035,0.030518,0.000000
9.884644,-0.073647,-0.889151,10.054891,0.073035,-0.076193,-0.006182,0.091553,0.061035,0.030518
9.894735,-0.080233,-0.890947,10.056088,0.066449,-0.077989,-0.004985,0.061035,0.061035,0.000000
9.904825,-0.079036,-0.894540,10.056687,0.067647,-0.081582,-0.004386,0.061035,0.030518,0.000000
9.914913,-0.076641,-0.890947,10.060280,0.070042,-0.077989,-0.000793,0.061035,0.030518,0.000000
9.925001,-0.077838,-0.890349,10.058483,0.068844,-0.077391,-0.002590,0.061035,0.000000,-0.030518
9.935092,-0.075443,-0.889151,10.058483,0.071239,-0.076193,-0.002590,0.061035,0.000000,-0.030518
9.945180,-0.077838,-0.887355,10.056088,0.068844,-0.074397,-0.004985,0.030518,0.000000,-0.030518
9.955268,-0.084424,-0.886756,10.043514,0.062258,-0.073798,-0.017558,0.030518,-0.030518,-0.030518
9.965396,-0.079634,-0.885558,10.047107,0.067048,-0.072601,-0.013966,0.030518,-0.030518,-0.030518
9.975488,-0.070653,-0.886157,10.052496,0.076029,-0.073199,-0.008577,0.030518,0.000000,0.000000
9.985579,-0.068857,-0.890947,10.048903,0.077825,-0.077989,-0.012170,0.030518,0.030518,-0.030518
9.995734,-0.071851,-0.894540,10.050699,0.074832,-0.081582,-0.010373,0.000000,-0.030518,0.000000
10.005826,-0.071252,-0.899929,10.045909,0.075430,-0.086971,-0.015163,0.030518,-0.030518,0.030518
10.015917,-0.077239,-0.899330,10.044113,0.069443,-0.086372,-0.016960,0.030518,0.000000,0.061035
10.026009,-0.076042,-0.895139,10.045909,0.070640,-0.082181,-0.015163,0.091553,-0.030518,0.000000
10.036100,-0.073647,-0.893342,10.045311,0.073035,-0.080384,-0.015762,0.091553,0.030518,0.000000
10.046189,-0.073647,-0.896336,10.048903,0.073035,-0.083378,-0.012170,0.061035,0.061035,0.000000
10.056280,-0.069456,-0.898132,10.047107,0.077227,-0.085174,-0.013966,0.061035,0.061035,0.000000
10.066460,-0.068258,-0.895737,10.062675,0.078424,-0.082779,0.001602,0.061035,0.091553,0.000000
10.076555,-0.068258,-0.895139,10.054292,0.078424,-0.082181,-0.006781,0.030518,0.061035,0.000000
10.086649,-0.073048,-0.899929,10.055490,0.073634,-0.086971,-0.005583,0.030518,0.030518,0.000000
10.096744,-0.074844,-0.896935,10.052496,0.071838,-0.083977,-0.008577,0.000000,0.030518,0.000000
10.106839,-0.082628,-0.892744,10.045909,0.064054,-0.079786,-0.015163,0.000000,0.000000,0.030518
10.116936,-0.077239,-0.899929,10.060280,0.069443,-0.086971,-0.000793,0.000000,0.030518,0.000000
10.127034,-0.079036,-0.892145,10.056088,0.067647,-0.079187,-0.004985,0.030518,0.030518,0.030518
10.137131,-0.079036,-0.891546,10.053693,0.067647,-0.078588,-0.007380,0.000000,0.030518,0.000000
10.147224,-0.078437,-0.889151,10.053693,0.068245,-0.076193,-0.007380,0.030518,0.030518,-0.030518
10.157318,-0.076042,-0.890947,10.051897,0.070640,-0.077989,-0.009176,0.000000,0.061035,0.000000
10.167412,-0.070653,-0.893941,10.059082,0.076029,-0.080983,-0.001991,0.030518,0.030518,0.000000
10.177507,-0.068258,-0.896336,10.057885,0.078424,-0.083378,-0.003188,0.030518,-0.030518,0.000000
10.187605,-0.074246,-0.893941,10.051298,0.072437,-0.080983,-0.009775,0.030518,0.000000,0.030518
10.197700,-0.080832,-0.900527,10.050101,0.065850,-0.087569,-0.010972,0.030518,0.030518,0.030518
10.207798,-0.079036,-0.890349,10.041718,0.067647,-0.077391,-0.019355,0.000000,0.030518,0.000000
10.217892,-0.078437,-0.892145,10.049502,0.068245,-0.079187,-0.011571,0.000000,0.061035,0.000000
10.227989,-0.073048,-0.893342,10.044113,0.073634,-0.080384,-0.016960,0.030518,0.061035,-0.030518
10.238084,-0.073048,-0.893941,10.042916,0.073634,-0.080983,-0.018157,0.030518,0.030518,-0.030518
10.248182,-0.073647,-0.896935,10.040521,0.073035,-0.083977,-0.020552,0.000000,0.030518,-0.030518
10.258276,-0.067659,-0.895737,10.038724,0.079023,-0.082779,-0.022349,0.000000,0.061035,-0.030518
10.268390,-0.066462,-0.896935,10.044712,0.080220,-0.083977,-0.016361,0.030518,0.030518,0.000000
10.278481,-0.079036,-0.894540,10.046508,0.067647,-0.081582,-0.014565,0.030518,0.030518,0.000000
10.288573,-0.075443,-0.896336,10.047107,0.071239,-0.083378,-0.013966,0.061035,0.030518,-0.030518
10.298661,-0.073647,-0.889151,10.039922,0.073035,-0.076193,-0.021151,0.030518,0.030518,0.000000
10.308752,-0.067659,-0.888552,10.042317,0.079023,-0.075594,-0.018756,0.061035,0.030518,0.000000
10.318841,-0.059277,-0.892744,10.054891,0.087405,-0.079786,-0.006182,0.061035,0.000000,0.030518
10.328932,-0.058678,-0.893941,10.055490,0.088004,-0.080983,-0.005583,0.061035,0.000000,0.000000
10.339027,-0.058079,-0.887953,10.058483,0.088603,-0.074996,-0.002590,0.061035,0.061035,-0.030518
10.349118,-0.061073,-0.886756,10.047706,0.085609,-0.073798,-0.013367,0.091553,0.030518,0.000000
10.359206,-0.061672,-0.883762,10.044113,0.085010,-0.070804,-0.016960,0.091553,0.061035,-0.061035
10.369308,-0.059875,-0.881966,10.053693,0.086807,-0.069008,-0.007380,0.061035,0.061035,-0.030518
10.379397,-0.058678,-0.883163,10.053693,0.088004,-0.070206,-0.007380,0.061035,0.061035,-0.030518
10.389489,-0.063468,-0.875380,10.051897,0.083214,-0.062422,-0.009176,0.030518,0.061035,-0.061035
10.399580,-0.059875,-0.880170,10.050699,0.086807,-0.067212,-0.010373,0.030518,0.091553,-0.030518
10.409672,-0.062271,-0.885558,10.054292,0.084412,-0.072601,-0.006781,0.030518,0.061035,-0.030518
10.419762,-0.067659,-0.889750,10.056088,0.079023,-0.076792,-0.004985,0.061035,0.030518,-0.030518
10.429853,-0.063468,-0.887355,10.057885,0.083214,-0.074397,-0.003188,0.061035,0.030518,0.000000
10.439944,-0.070054,-0.889750,10.054891,0.076628,-0.076792,-0.006182,0.030518,0.030518,-0.030518
10.450035,-0.070054,-0.883762,10.053693,0.076628,-0.070804,-0.007380,0.061035,0.030518,0.000000
10.460125,-0.069456,-0.878373,10.062076,0.077227,-0.065415,0.001003,0.030518,0.030518,0.030518
10.470302,-0.071252,-0.881966,10.062076,0.075430,-0.069008,0.001003,0.000000,0.030518,0.030518
10.480403,-0.076042,-0.884960,10.057286,0.070640,-0.072002,-0.003787,0.030518,0.030518,0.030518
10.490500,-0.068258,-0.888552,10.052496,0.078424,-0.075594,-0.008577,0.030518,0.061035,0.030518
10.500596,-0.068258,-0.893941,10.055490,0.078424,-0.080983,-0.005583,0.000000,0.030518,0.030518
10.510693,-0.069456,-0.895139,10.062076,0.077227,-0.082181,0.001003,0.030518,0.061035,0.030518
10.520790,-0.065863,-0.888552,10.068662,0.080819,-0.075594,0.007589,0.061035,0.030518,0.000000
10.530885,-0.077838,-0.889750,10.061477,0.068844,-0.076792,0.000404,0.061035,0.030518,-0.030518
10.540983,-0.068857,-0.892744,10.054292,0.077825,-0.079786,-0.006781,0.061035,0.030518,-0.030518
10.551079,-0.070054,-0.893941,10.047107,0.076628,-0.080983,-0.013966,-0.030518,0.061035,-0.030518
10.561176,-0.070054,-0.895139,10.057286,0.076628,-0.082181,-0.003787,-0.030518,0.061035,0.000000
10.571360,-0.071252,-0.893941,10.059681,0.075430,-0.080983,-0.001392,-0.030518,0.061035,-0.030518
10.581450,-0.070653,-0.896336,10.065070,0.076029,-0.083378,0.003997,0.000000,0.061035,-0.030518
10.591540,-0.074844,-0.894540,10.063273,0.071838,-0.081582,0.002200,0.000000,0.030518,-0.030518
10.601629,-0.081431,-0.895139,10.058483,0.065252,-0.082181,-0.002590,0.030518,0.091553,-0.030518
10.611718,-0.079036,-0.898731,10.059681,0.067647,-0.085773,-0.001392,0.061035,0.091553,-0.030518
10.621807,-0.076042,-0.894540,10.066866,0.070640,-0.081582,0.005793,0.061035,0.091553,0.030518
10.631899,-0.073048,-0.896935,10.059082,0.073634,-0.083977,-0.001991,0.061035,0.091553,0.030518
10.641991,-0.072449,-0.891546,10.059082,0.074233,-0.078588,-0.001991,0.000000,0.061035,0.000000
10.652081,-0.071851,-0.887355,10.058483,0.074832,-0.074397,-0.002590,0.000000,0.030518,0.000000
10.662172,-0.071851,-0.882565,10.063872,0.074832,-0.069607,0.002799,0.030518,0.030518,0.000000
10.672287,-0.076641,-0.889151,10.062675,0.070042,-0.076193,0.001602,0.061035,0.000000,0.000000
10.682378,-0.077239,-0.895737,10.052496,0.069443,-0.082779,-0.008577,0.061035,0.000000,-0.030518
10.692469,-0.087418,-0.893342,10.048903,0.059264,-0.080384,-0.012170,0.030518,0.030518,0.000000
10.702559,-0.085622,-0.888552,10.050699,0.061060,-0.075594,-0.010373,0.030518,0.030518,0.030518
10.712650,-0.085622,-0.887355,10.053094,0.061060,-0.074397,-0.007978,0.030518,0.000000,-0.030518
10.722740,-0.071851,-0.890349,10.063273,0.074832,-0.077391,0.002200,0.030518,0.030518,-0.030518
10.732831,-0.075443,-0.891546,10.057286,0.071239,-0.078588,-0.003787,0.030518,0.030518,0.000000
10.742921,-0.074844,-0.883762,10.057885,0.071838,-0.070804,-0.003188,0.000000,0.061035,0.000000
10.753012,-0.070054,-0.882565,10.056088,0.076628,-0.069607,-0.004985,0.030518,0.030518,0.030518
10.763101,-0.077239,-0.889151,10.065668,0.069443,-0.076193,0.004595,0.030518,0.030518,0.030518
10.773221,-0.077239,-0.885558,10.067465,0.069443,-0.072601,0.006392,0.000000,0.000000,0.030518
10.783312,-0.074844,-0.890349,10.075248,0.071838,-0.077391,0.014176,0.000000,0.030518,0.030518
10.793403,-0.077838,-0.893342,10.065070,0.068844,-0.080384,0.003997,0.000000,0.000000,0.030518
10.803494,-0.079634,-0.896935,10.060280,0.067048,-0.083977,-0.000793,-0.030518,0.000000,0.000000
10.813585,-0.079036,-0.892145,10.057286,0.067647,-0.079187,-0.003787,0.030518,0.000000,0.030518
10.823675,-0.076641,-0.896336,10.059681,0.070042,-0.083378,-0.001392,0.030518,-0.030518,0.061035
10.833765,-0.081431,-0.890349,10.055490,0.065252,-0.077391,-0.005583,0.000000,-0.091553,0.061035
10.843856,-0.070653,-0.891546,10.056687,0.076029,-0.078588,-0.004386,-0.030518,-0.091553,0.061035
10.853947,-0.062271,-0.887355,10.053094,0.084412,-0.074397,-0.007978,-0.030518,0.000000,0.030518
10.864038,-0.058678,-0.894540,10.065668,0.088004,-0.081582,0.004595,0.030518,0.061035,0.061035
10.874153,-0.059875,-0.895737,10.069860,0.086807,-0.082779,0.008787,0.091553,0.152588,-0.091553
10.884250,0.266446,-1.080753,10.044113,0.413128,-0.267795,-0.016960,-0.030518,0.183105,-1.190186
10.894343,0.334105,-1.156794,10.042916,0.480787,-0.343836,-0.018157,-0.274658,0.305176,-4.150391
10.904435,-0.155676,-1.023871,10.038126,-0.008994,-0.210913,-0.022947,-0.183105,0.640869,-9.002686
10.914524,-0.249681,-0.864602,10.065668,-0.102999,-0.051644,0.004595,0.183105,0.732422,-9.277344
10.924615,-0.222138,-0.719105,10.077643,-0.075456,0.093853,0.016571,0.305176,0.610352,-6.500244
10.934706,-0.217348,-0.695154,10.072853,-0.070666,0.117804,0.011781,0.244141,0.488281,-5.249023
10.944797,-0.262853,-0.573607,10.074650,-0.116171,0.239351,0.013577,0.152588,0.640869,-8.453369
10.954884,-0.249082,-0.561033,10.072853,-0.102400,0.251925,0.011781,0.213623,0.885010,-11.993408
10.964975,-0.228126,-0.585582,10.073452,-0.081443,0.227376,0.012379,0.122070,1.037598,-15.533447
10.975095,-0.014969,-0.723296,10.065668,0.131713,0.089662,0.004595,0.030518,1.312256,-22.216797
10.985183,0.213755,-0.842448,10.057885,0.360438,-0.029490,-0.003188,0.274658,1.495361,-25.878906
10.995274,0.346080,-0.828078,10.058483,0.492763,-0.015120,-0.002590,0.488281,1.525879,-31.280518
11.005365,0.226329,-0.820893,10.061477,0.373012,-0.007935,0.000404,0.061035,1.403809,-32.196045
11.015456,0.169448,-0.868195,10.044113,0.316130,-0.055237,-0.016960,-0.366211,1.098633,-33.966064
11.025546,0.083227,-1.211880,10.033336,0.229909,-0.398922,-0.027737,-0.946045,1.098633,-36.193848
11.035637,0.008383,-1.375939,10.020163,0.155065,-0.562981,-0.040910,-0.732422,1.434326,-38.085938
11.045727,0.034129,-1.296304,9.948312,0.180811,-0.483346,-0.112761,-0.946045,2.014160,-43.426514
11.055817,0.023351,-1.303489,10.021959,0.170034,-0.490531,-0.039114,-0.701904,2.075195,-45.898438
11.065907,-0.010179,-1.098116,10.087822,0.136503,-0.285159,0.026749,-2.746582,1.403809,-48.645020
11.076025,0.059277,-1.272953,10.048903,0.205959,-0.459995,-0.012170,-2.227783,1.708984,-53.588867
11.086120,0.039518,-1.461561,10.051298,0.186200,-0.648603,-0.009775,-2.166748,2.563477,-70.251465
11.096205,-0.125140,-0.752635,10.067465,0.021542,0.060323,0.006392,-2.227783,2.899170,-79.162598
11.106293,-0.358654,-0.307161,10.194999,-0.211972,0.505797,0.133926,-1.800537,3.448486,-83.892822
11.116382,-0.223336,0.033530,10.096804,-0.076653,0.846488,0.035731,-1.647949,3.204346,-76.446533
11.126464,-0.098196,-0.424517,10.092014,0.048486,0.388441,0.030941,-1.556396,3.082275,-73.211670
11.136549,0.177830,-1.291514,10.006392,0.324512,-0.478556,-0.054681,-0.793457,3.082275,-70.098877
11.146664,0.156874,-1.463357,10.032138,0.303556,-0.650399,-0.028935,-0.091553,3.540039,-73.669434
11.156751,0.037722,-1.285527,10.085427,0.184404,-0.472569,0.024354,-0.274658,3.570557,-79.925537
11.166837,-0.119152,-0.808319,10.137519,0.027530,0.004639,0.076446,1.068115,3.814697,-84.533691
11.176929,-0.124541,-1.222657,10.027348,0.022141,-0.409700,-0.033725,0.030518,3.814697,-92.712402
11.187016,-0.186213,-1.056204,10.190808,-0.039531,-0.243246,0.129735,1.007080,3.387451,-100.677490
11.197102,-0.140109,-1.426234,10.079440,0.006574,-0.613276,0.018367,0.976562,4.608154,-106.933594
11.207239,0.031734,-1.107098,9.938134,0.178416,-0.294140,-0.122939,-0.915527,4.730225,-115.447998
11.217326,-0.285606,-0.650248,10.087224,-0.138924,0.162710,0.026151,-1.220703,5.218506,-114.624023
11.227413,-0.079036,-0.446072,10.056687,0.067647,0.366886,-0.004386,-0.854492,4.882812,-102.935791
11.237499,0.053888,-0.580193,10.066866,0.200570,0.232764,0.005793,-0.305176,4.791260,-95.794678
11.247589,0.169448,-0.895737,10.058483,0.316130,-0.082779,-0.002590,1.007080,4.302979,-86.212158
11.257672,0.096400,-0.980760,10.090217,0.243082,-0.167803,0.029144,1.678467,4.119873,-85.144043
11.267800,-0.084424,-1.110092,10.058483,0.062258,-0.297134,-0.002590,1.892090,4.425049,-85.601807
11.277889,-0.175435,-0.896336,10.052496,-0.028753,-0.083378,-0.008577,1.831055,4.608154,-90.942383
11.287992,-0.006586,-0.954415,10.028546,0.140096,-0.141457,-0.032527,1.922607,4.302979,-93.627930
11.298093,0.319136,-0.747246,10.025552,0.465819,0.065712,-0.035521,1.251221,4.150391,-93.627930
11.308186,0.488584,-1.008902,10.024953,0.635266,-0.195944,-0.036120,0.457764,4.272461,-92.712402
11.318287,0.185015,-0.792751,10.053094,0.331697,0.020206,-0.007978,0.274658,3.936768,-87.493896
11.328391,-0.142504,-0.570015,10.089619,0.004179,0.242943,0.028546,0.152588,3.936768,-80.841064
11.338479,-0.010179,-0.621508,10.083032,0.136503,0.191450,0.021959,-0.427246,4.302979,-76.660156
11.348583,0.076641,-1.057401,10.057885,0.223323,-0.244443,-0.003188,-0.946045,5.279541,-82.305908
11.358683,0.189207,-1.151406,10.013577,0.335889,-0.338448,-0.047496,-1.556396,6.469727,-91.949463
11.368787,-0.044907,-1.068777,10.140513,0.101776,-0.255820,0.079440,-5.340576,10.894775,-109.649658
11.378920,0.116757,-1.049617,10.111772,0.263439,-0.236659,0.050700,-5.218506,11.047363,-112.152100
11.389024,0.493973,-0.699944,10.112371,0.640655,0.113013,0.051298,-4.333496,9.338379,-108.703613
11.399112,0.774190,-0.678389,10.112371,0.920872,0.134569,0.051298,-3.204346,8.422852,-105.621338
11.409215,0.716111,-0.941243,10.062076,0.862793,-0.128285,0.001003,-3.234863,7.293701,-96.221924
11.419315,0.146695,-1.160387,10.103989,0.293377,-0.347429,0.042916,-2.075195,6.866455,-93.200684
11.429406,0.063468,-1.013093,10.055490,0.210150,-0.200135,-0.005583,-2.136230,7.446289,-91.857910
11.439509,-0.388592,-0.945434,10.004595,-0.241910,-0.132476,-0.056478,-2.746582,7.263184,-92.407227
11.449611,-0.305365,-0.650847,10.117760,-0.158683,0.162111,0.056687,-2.746582,7.202148,-94.818115
11.459703,-0.253273,-0.392783,10.083631,-0.106591,0.420175,0.022558,-2.441406,6.927490,-96.435547
11.469808,-0.047302,-0.450264,10.067465,0.099381,0.362694,0.006392,-2.136230,6.744385,-95.245361
11.479938,0.111967,-0.532293,10.082433,0.258649,0.280665,0.021361,-1.403809,6.256104,-92.163086
11.490031,0.117955,-0.948428,10.038724,0.264637,-0.135470,-0.022349,-1.220703,6.347656,-90.576172
11.500135,0.120948,-1.057401,10.056088,0.267631,-0.244443,-0.004985,-1.647949,6.713867,-89.172363
11.510232,-0.247885,-0.985551,10.060280,-0.101202,-0.172593,-0.000793,-1.434326,5.279541,-88.531494
11.520324,-0.076641,-1.317859,10.044712,0.070042,-0.504902,-0.016361,-1.464844,5.340576,-88.073730
11.530429,-0.043110,-0.721500,10.060878,0.103572,0.091458,-0.000195,-1.495361,5.432129,-92.407227
11.540531,-0.100591,-0.608335,10.074650,0.046091,0.204623,0.013577,-1.403809,5.767822,-92.315674
11.550624,0.223336,-0.684976,10.124346,0.370018,0.127982,0.063273,-1.190186,5.798340,-88.806152
11.560726,0.571212,-0.688568,10.103989,0.717894,0.124390,0.042916,-0.061035,4.943848,-86.730957
11.570830,0.279020,-0.902324,10.062076,0.425702,-0.089366,0.001003,-0.549316,4.669189,-81.207275
11.580945,-0.586780,-0.681383,10.084828,-0.440098,0.131575,0.023756,-0.915527,4.455566,-65.521240
11.591047,-0.121547,-0.768203,10.069860,0.025135,0.044755,0.008787,-0.793457,3.997803,-57.586670
11.601151,0.328118,-0.912502,10.009984,0.474800,-0.099544,-0.051089,-0.915527,3.906250,-59.051514
11.611239,0.031135,-0.963397,10.035731,0.177817,-0.150439,-0.025342,-0.946045,4.241943,-63.232422
11.621332,0.010778,-0.847837,10.069860,0.157460,-0.034879,0.008787,-0.579834,4.180908,-70.648193
11.631435,-0.099393,-0.460443,10.088421,0.047289,0.352515,0.027348,-0.701904,4.577637,-73.028564
11.641524,-0.041913,-0.383802,10.066267,0.104769,0.429156,0.005194,-0.885010,4.730225,-71.746826
11.651616,0.014969,-0.419727,10.039922,0.161651,0.393231,-0.021151,-0.518799,4.455566,-68.664551
11.661708,0.194595,-0.574206,10.029144,0.341278,0.238752,-0.031929,-0.549316,4.516602,-65.368652
11.671799,0.134121,-0.801733,10.035132,0.280803,0.011225,-0.025941,-0.671387,4.608154,-60.272217
11.681916,0.008383,-0.845442,10.069261,0.155065,-0.032484,0.008188,-0.427246,4.333496,-59.417725
11.692008,-0.007185,-0.729283,10.054292,0.139497,0.083674,-0.006781,-0.579834,4.455566,-61.279297
11.702110,-0.059875,-0.713716,10.081835,0.086807,0.099242,0.020762,-1.190186,5.065918,-64.422607
11.712202,0.139510,-0.523312,10.033934,0.286192,0.289646,-0.027139,-1.098633,5.187988,-67.840576
11.722293,0.023351,-0.299377,10.086026,0.170034,0.513581,0.024953,-0.976562,5.004883,-67.810059
11.732383,-0.040715,-0.355660,10.088421,0.105967,0.457298,0.027348,-0.946045,5.157471,-66.894531
11.742474,-0.101788,-0.495769,10.060878,0.044894,0.317189,-0.000195,-0.946045,5.218506,-64.880371
11.752568,-0.128732,-0.512534,10.071057,0.017950,0.300424,0.009984,-0.793457,5.035400,-63.293457
11.762658,-0.107776,-0.647254,10.105785,0.038906,0.165704,0.044712,-0.640869,5.035400,-62.164307
11.772750,-0.124541,-0.612526,10.078242,0.022141,0.200432,0.017169,-0.183105,4.791260,-62.683105
11.782868,-0.009580,-0.492177,10.089020,0.137102,0.320781,0.027947,-0.579834,4.974365,-68.054199
11.792958,-0.025746,-0.640668,10.063273,0.120936,0.172290,0.002200,-0.427246,4.791260,-70.739746
11.803050,0.054487,-0.612526,10.077643,0.201169,0.200432,0.016571,-0.427246,4.974365,-73.577881
11.813140,0.294587,-0.684377,10.050699,0.441270,0.128581,-0.010373,-0.244141,4.913330,-75.012207
11.823229,0.447869,-0.680784,10.041718,0.594551,0.132174,-0.019355,-0.457764,5.096436,-73.974609
11.833322,0.278421,-0.586780,10.056687,0.425103,0.226178,-0.004386,-0.762939,4.791260,-69.274902
11.843412,0.235311,-0.800535,10.051897,0.381993,0.012423,-0.009176,-1.068115,4.608154,-66.436768
11.853502,0.096400,-0.852028,10.073452,0.243082,-0.039070,0.012379,-0.946045,4.577637,-58.135986
11.863592,0.305964,-0.607736,10.127340,0.452646,0.205222,0.066267,-0.732422,4.791260,-55.603027
11.873683,0.328118,-0.538281,10.071057,0.474800,0.274677,0.009984,-0.671387,5.249023,-55.145264
11.883797,0.257465,-0.458047,10.169253,0.404147,0.354910,0.108180,0.244141,4.821777,-56.640625
11.893888,0.339494,-0.549657,10.058483,0.486176,0.263301,-0.002590,0.061035,4.852295,-56.365967
11.903979,0.467628,-0.639470,10.126741,0.614310,0.173488,0.065668,0.549316,4.455566,-53.588867
11.914069,0.477208,-0.713117,10.018965,0.623890,0.099841,-0.042107,0.640869,4.058838,-51.330566
11.924160,0.416135,-0.620909,10.097402,0.562817,0.192049,0.036329,1.434326,3.234863,-45.562744
11.934250,0.329315,-0.453856,10.023755,0.475997,0.359102,-0.037317,1.342773,2.899170,-43.609619
11.944340,0.106578,-0.490979,10.145901,0.253261,0.321979,0.084829,1.586914,2.746582,-40.985107
11.954469,0.133522,-0.435295,10.060878,0.280205,0.377663,-0.000195,1.434326,2.746582,-41.137695
11.964562,0.111967,-0.435894,10.085427,0.258649,0.377064,0.024354,1.403809,2.441406,-41.839600
11.974649,0.216749,-0.353864,10.091415,0.363431,0.459094,0.030342,1.586914,2.258301,-42.419434
11.984772,0.258662,-0.465831,10.005194,0.405344,0.347127,-0.055879,1.525879,2.166748,-42.572021
11.994864,0.470023,-0.639470,10.063872,0.616705,0.173488,0.002799,0.885010,1.983643,-43.975830
12.004957,0.425116,-0.606539,10.018367,0.571798,0.206419,-0.042706,0.762939,1.953125,-44.372559
12.015049,0.219144,-0.771196,10.128538,0.365827,0.041762,0.067465,0.061035,2.227783,-42.083740
12.025141,0.219743,-0.494572,10.076446,0.366425,0.318386,0.015373,-0.396729,2.655029,-41.687012
12.035232,0.010778,-0.458646,10.183024,0.157460,0.354312,0.121951,-0.854492,2.563477,-42.480469
12.045323,-0.304167,-0.387993,10.075847,-0.157485,0.424965,0.014774,0.885010,1.464844,-44.708252
12.055414,-0.396376,-0.348475,10.184222,-0.249694,0.464483,0.123149,0.000000,1.678467,-46.173096
12.065504,-0.302371,-0.543071,10.155482,-0.155689,0.269887,0.094409,-4.302979,2.838135,-49.621582
12.075594,-0.254471,-0.484393,10.127939,-0.107789,0.328565,0.066866,-6.500244,3.570557,-52.368164
12.085769,-0.133522,-0.313149,10.147099,0.013160,0.499809,0.086026,-4.150391,3.570557,-55.877686
12.095867,0.047302,-0.237107,10.166259,0.193984,0.575851,0.105186,-2.044678,3.112793,-56.549072
12.105965,0.204175,-0.483794,10.014774,0.350858,0.329164,-0.046299,-2.014160,3.173828,-53.985596
12.116066,0.294587,-0.855022,10.141111,0.441270,-0.042064,0.080039,-4.180908,1.831055,-42.541504
12.126161,0.449066,-0.626298,10.063273,0.595748,0.186660,0.002200,-2.899170,1.892090,-38.482666
12.136257,0.593366,-0.505948,10.037527,0.740048,0.307010,-0.023546,-1.403809,1.220703,-31.982422
12.146353,0.420326,-0.555645,10.098001,0.567008,0.257313,0.036928,-1.953125,0.915527,-29.327393
12.156446,0.483195,-0.581391,10.065070,0.629877,0.231567,0.003997,-1.373291,1.220703,-23.773193
12.166543,0.264650,-0.373623,10.084230,0.411332,0.439335,0.023157,0.793457,1.953125,-21.209717
12.176661,0.197589,-0.204774,10.024354,0.344271,0.608184,-0.036719,1.312256,2.655029,-18.188477
12.186756,-0.101190,-0.233514,10.188413,0.045493,0.579444,0.127340,1.373291,2.441406,-19.165039
12.196847,-0.126337,-0.516725,10.001602,0.020345,0.296232,-0.059471,0.732422,2.532959,-20.324707
12.206937,-0.119751,-0.260458,10.141111,0.026931,0.552500,0.080039,-1.647949,2.807617,-25.665283
12.217025,-0.162263,-0.382006,10.172247,-0.015580,0.430952,0.111174,-1.647949,3.112793,-27.313232
12.227112,-0.164059,-0.584385,10.197993,-0.017377,0.228573,0.136920,4.058838,1.922607,-30.151367
12.237200,-0.198787,-0.675396,10.090816,-0.052104,0.137562,0.029743,1.800537,1.464844,-30.120850
12.247287,-0.265847,-0.493374,10.176438,-0.119165,0.319584,0.115365,1.068115,1.007080,-28.320312
12.257374,-0.211959,-0.515528,10.112970,-0.065277,0.297430,0.051897,0.671387,1.281738,-27.313232
12.267461,-0.188009,-0.468825,10.169852,-0.041327,0.344133,0.108779,1.403809,1.495361,-27.099609
12.277548,-0.189207,-0.670007,10.187814,-0.042524,0.142951,0.126741,3.387451,1.678467,-28.320312
12.287638,-0.069456,-0.656235,10.035731,0.077227,0.156723,-0.025342,4.180908,2.349854,-27.740479
12.297733,0.101190,-0.785566,10.049502,0.247872,0.027392,-0.011571,3.265381,1.800537,-25.817871
12.307830,0.116158,-0.771795,10.162667,0.262841,0.041163,0.101594,2.441406,1.525879,-26.336670
12.317930,0.103585,-0.797542,10.111772,0.250267,0.015416,0.050700,-1.556396,1.373291,-24.383545
12.328026,0.080832,-0.463436,9.938134,0.227514,0.349522,-0.122939,-2.624512,1.373291,-22.979736
12.338119,-0.138312,-0.404758,10.099199,0.008370,0.408200,0.038126,-3.601074,1.190186,-21.728516
12.348216,-0.074844,-0.388592,10.044113,0.071838,0.424366,-0.016960,-4.180908,1.647949,-20.874023
12.358310,-0.077239,-0.132325,10.065070,0.069443,0.680633,0.003997,-3.784180,1.525879,-20.294189
12.368406,-0.067061,-0.087418,10.098001,0.079622,0.725540,0.036928,0.305176,1.556396,-18.035889
12.378534,-0.078437,-0.310754,10.232721,0.068245,0.502204,0.171648,1.220703,0.549316,-16.693115
12.388632,0.029339,-0.574206,10.044712,0.176021,0.238752,-0.016361,-2.075195,0.549316,-10.162354
12.398721,0.256866,-0.462838,10.075847,0.403548,0.350120,0.014774,-4.425049,0.823975,-8.728027
12.408809,0.210163,-0.199984,10.112970,0.356845,0.612974,0.051897,-3.967285,1.220703,-9.796143
12.418915,0.025148,-0.662223,10.283615,0.171830,0.150735,0.222542,-2.014160,0.091553,-14.404297
12.429008,0.024549,-0.860411,10.272838,0.171231,-0.047453,0.211765,-3.845215,-0.793457,-14.251709
12.439095,-0.105381,-0.817899,10.165062,0.041301,-0.004941,0.103989,-8.514404,-3.479004,-15.594482
12.449184,-0.143701,-0.556243,10.038724,0.002981,0.256715,-0.022349,-9.216309,-3.356934,-13.885498
12.459273,-0.096400,-0.536484,9.995614,0.050283,0.276474,-0.065459,-3.997803,-1.586914,-10.833740
12.469364,0.059875,-0.831671,9.985435,0.206558,-0.018713,-0.075638,-3.234863,-1.403809,-9.765625
12.479453,0.017364,-0.783171,9.912986,0.164046,0.029787,-0.148087,-2.014160,-0.671387,-9.399414
