time,ax_raw,ay_raw,az_raw,ax,ay,az,gx,gy,gz
0.000458,0.008981,1.014291,9.999207,-0.010096,0.002625,-0.000799,0.091553,0.061035,0.091553
0.010526,0.010778,1.017285,9.998608,-0.008300,0.005619,-0.001397,0.091553,0.061035,0.061035
0.020600,0.016765,1.018482,9.998009,-0.002312,0.006816,-0.001996,0.091553,0.030518,0.061035
0.030674,0.013173,1.020278,10.003398,-0.005905,0.008612,0.003393,0.061035,0.030518,0.061035
0.040741,0.012574,1.019680,9.996812,-0.006504,0.008014,-0.003194,0.091553,0.030518,0.061035
0.050816,0.019160,1.013692,9.998608,0.000083,0.002026,-0.001397,0.061035,0.030518,0.061035
0.060889,0.017963,1.007106,10.001003,-0.001115,-0.004560,0.000998,0.122070,0.061035,0.061035
0.070961,0.014370,1.011896,10.005793,-0.004707,0.000230,0.005788,0.061035,0.030518,0.030518
0.081047,0.019160,1.008902,10.007589,0.000083,-0.002764,0.007584,0.061035,0.061035,0.061035
0.091127,0.018561,1.011896,10.006990,-0.000516,0.000230,0.006985,0.091553,0.061035,0.061035
0.101206,0.013173,1.016087,10.001602,-0.005905,0.004421,0.001596,0.091553,0.061035,0.091553
0.111274,0.007185,1.019680,10.008188,-0.011892,0.008014,0.008183,0.061035,0.000000,0.091553
0.121347,0.008981,1.022075,10.011780,-0.010096,0.010409,0.011775,0.061035,0.030518,0.091553
0.131421,0.008981,1.019680,10.005793,-0.010096,0.008014,0.005788,0.061035,0.030518,0.061035
0.141488,0.017963,1.015488,9.999207,-0.001115,0.003822,-0.000799,0.061035,0.030518,0.061035
0.151561,0.016166,1.017883,10.001003,-0.002911,0.006217,0.000998,0.061035,0.000000,0.030518
0.161634,0.013771,1.016686,9.998009,-0.005306,0.005020,-0.001996,0.030518,0.000000,0.000000
0.171702,0.010179,1.016087,10.010583,-0.008899,0.004421,0.010578,0.030518,0.000000,0.000000
0.181776,0.014370,1.017285,10.008188,-0.004707,0.005619,0.008183,0.061035,0.030518,0.030518
0.191847,0.020956,1.020877,9.996812,0.001879,0.009211,-0.003194,0.061035,0.030518,0.030518
0.201915,0.026345,1.014890,9.998608,0.007268,0.003224,-0.001397,0.030518,0.030518,0.030518
0.211988,0.028740,1.016686,10.011182,0.009663,0.005020,0.011176,0.000000,0.000000,0.000000
0.222066,0.024549,1.013093,10.013577,0.005471,0.001427,0.013571,0.030518,0.000000,0.000000
0.232133,0.024549,1.010698,10.014175,0.005471,-0.000968,0.014170,0.061035,0.000000,0.030518
0.242206,0.029339,1.004711,10.009984,0.010261,-0.006955,0.009979,0.030518,0.000000,0.030518
0.252279,0.033530,1.008902,10.008787,0.014453,-0.002764,0.008781,0.030518,0.000000,0.061035
0.262346,0.032333,1.006507,10.018965,0.013255,-0.005159,0.018960,0.030518,0.000000,0.030518
0.272420,0.034129,1.004711,10.020762,0.015052,-0.006955,0.020756,0.061035,0.030518,0.000000
0.282449,0.023950,0.999322,10.014774,0.004873,-0.012344,0.014769,0.000000,0.061035,0.030518
0.292514,0.021555,0.999921,10.008787,0.002478,-0.011745,0.008781,0.000000,0.091553,0.030518
0.302587,0.016166,1.001717,10.005194,-0.002911,-0.009949,0.005189,0.000000,0.061035,0.000000
0.312660,0.008981,1.011297,10.004595,-0.010096,-0.000369,0.004590,0.030518,0.091553,0.000000
0.322728,0.010778,1.016686,9.999805,-0.008300,0.005020,-0.000200,0.061035,0.061035,0.030518
0.332802,0.016166,1.009501,10.008787,-0.002911,-0.002165,0.008781,0.122070,0.030518,0.061035
0.342874,0.011975,1.007704,9.999207,-0.007102,-0.003961,-0.000799,0.122070,0.000000,0.030518
0.352949,0.009580,1.008303,10.000404,-0.009497,-0.003363,0.000399,0.122070,0.030518,0.030518
0.363078,0.007784,1.007106,10.002200,-0.011294,-0.004560,0.002195,0.091553,0.000000,0.030518
0.373151,0.009580,1.007106,9.997410,-0.009497,-0.004560,-0.002595,0.061035,0.000000,0.061035
0.383218,0.011376,1.014291,9.995015,-0.007701,0.002625,-0.004990,0.061035,0.030518,0.030518
0.393289,0.014370,1.008303,9.993219,-0.004707,-0.003363,-0.006786,0.091553,0.030518,0.061035
0.403361,0.019160,1.002914,9.992620,0.000083,-0.008751,-0.007385,0.061035,0.061035,0.061035
0.413429,0.016166,1.004711,9.999805,-0.002911,-0.006955,-0.000200,0.061035,0.061035,0.030518
0.423502,0.017963,1.005908,10.000404,-0.001115,-0.005758,0.000399,0.061035,0.061035,0.030518
0.433577,0.011376,1.004711,10.002200,-0.007701,-0.006955,0.002195,0.091553,0.061035,0.030518
0.443645,0.011975,1.004711,9.999207,-0.007102,-0.006955,-0.000799,0.091553,0.091553,0.030518
0.453716,0.020956,0.997526,9.997410,0.001879,-0.014140,-0.002595,0.061035,0.061035,0.030518
0.463787,0.022154,1.006507,9.998009,0.003076,-0.005159,-0.001996,0.061035,0.030518,0.030518
0.473854,0.021555,1.010698,10.005194,0.002478,-0.000968,0.005189,0.030518,0.061035,0.061035
0.483928,0.015568,1.007106,10.007589,-0.003510,-0.004560,0.007584,0.061035,0.061035,0.061035
0.493998,0.016765,1.009501,10.001602,-0.002312,-0.002165,0.001596,0.061035,0.000000,0.030518
0.504064,0.022154,1.005908,9.998009,0.003076,-0.005758,-0.001996,0.061035,0.000000,0.030518
0.514131,0.023351,1.008303,10.001602,0.004274,-0.003363,0.001596,-0.030518,0.000000,0.030518
0.524199,0.018561,1.007106,9.999805,-0.000516,-0.004560,-0.000200,0.000000,0.000000,0.030518
0.534270,0.020956,1.009501,10.005793,0.001879,-0.002165,0.005788,0.000000,0.000000,0.030518
0.544338,0.017963,1.009501,10.001602,-0.001115,-0.002165,0.001596,0.030518,0.030518,0.030518
0.554405,0.014370,1.010099,10.001003,-0.004707,-0.001566,0.000998,0.030518,0.061035,0.061035
0.564470,0.020358,1.012495,10.005194,0.001280,0.000829,0.005189,0.030518,0.061035,0.091553
0.574537,0.019759,1.016087,10.006392,0.000681,0.004421,0.006386,0.061035,0.061035,0.091553
0.584604,0.017963,1.010099,10.008188,-0.001115,-0.001566,0.008183,0.030518,0.030518,0.061035
0.594670,0.020358,1.013692,10.006990,0.001280,0.002026,0.006985,0.061035,0.061035,0.091553
0.604743,0.017364,1.014890,10.004595,-0.001714,0.003224,0.004590,0.061035,0.000000,0.061035
0.614813,0.019759,1.023272,10.007589,0.000681,0.011606,0.007584,0.061035,0.030518,0.061035
0.624880,0.017963,1.014890,10.011780,-0.001115,0.003224,0.011775,0.091553,0.030518,0.091553
0.634947,0.022154,1.024470,10.007589,0.003076,0.012804,0.007584,0.061035,0.030518,0.091553
0.645015,0.022753,1.019081,9.999207,0.003675,0.007415,-0.000799,0.061035,0.030518,0.061035
0.655081,0.017364,1.014291,9.999805,-0.001714,0.002625,-0.000200,0.061035,0.030518,0.091553
0.665149,0.010778,1.016087,10.009385,-0.008300,0.004421,0.009380,0.061035,0.030518,0.061035
0.675217,0.015568,1.006507,10.008188,-0.003510,-0.005159,0.008183,0.061035,0.030518,0.030518
0.685284,0.018561,1.008902,9.992620,-0.000516,-0.002764,-0.007385,0.061035,0.061035,0.030518
0.695351,0.016765,1.010698,9.998608,-0.002312,-0.000968,-0.001397,0.030518,0.061035,0.030518
0.705418,0.016166,1.007704,10.002200,-0.002911,-0.003961,0.002195,0.061035,0.030518,0.091553
0.715484,0.021555,1.009501,10.009385,0.002478,-0.002165,0.009380,0.061035,0.030518,0.091553
0.725551,0.028141,1.007106,10.009984,0.009064,-0.004560,0.009979,0.061035,0.030518,0.061035
0.735618,0.026944,1.009501,10.005793,0.007866,-0.002165,0.005788,0.030518,0.030518,0.091553
0.745685,0.023950,1.007106,10.011182,0.004873,-0.004560,0.011176,0.061035,0.000000,0.091553
0.755752,0.029339,1.007106,10.004595,0.010261,-0.004560,0.004590,0.030518,0.030518,0.061035
0.765819,0.029339,1.001118,10.006392,0.010261,-0.010548,0.006386,0.030518,0.000000,0.061035
0.775885,0.018561,1.013093,10.008188,-0.000516,0.001427,0.008183,0.030518,0.000000,0.030518
0.785951,0.016765,1.013692,10.005793,-0.002312,0.002026,0.005788,0.000000,0.000000,0.061035
0.796019,0.017364,1.018482,10.003398,-0.001714,0.006816,0.003393,0.030518,0.000000,0.061035
0.806091,0.015568,1.020278,10.001602,-0.003510,0.008612,0.001596,0.061035,0.000000,0.061035
0.816267,0.013173,1.020877,10.005793,-0.005905,0.009211,0.005788,0.030518,0.000000,0.061035
0.826335,0.001796,1.016087,10.010583,-0.017281,0.004421,0.010578,0.061035,-0.030518,0.061035
0.836407,0.005988,1.022673,10.007589,-0.013090,0.011008,0.007584,0.061035,0.000000,0.061035
0.846520,0.014969,1.016686,10.003398,-0.004109,0.005020,0.003393,0.061035,-0.030518,0.061035
0.856586,0.023950,1.011297,10.004595,0.004873,-0.000369,0.004590,0.061035,-0.030518,0.061035
0.866657,0.016765,1.011297,10.008188,-0.002312,-0.000369,0.008183,0.091553,0.000000,0.061035
0.876732,0.026944,1.002316,10.009984,0.007866,-0.009350,0.009979,0.061035,0.000000,0.091553
0.886802,0.022753,1.013692,10.008787,0.003675,0.002026,0.008781,0.061035,0.030518,0.091553
0.896874,0.014370,1.009501,10.009385,-0.004707,-0.002165,0.009380,0.000000,0.030518,0.091553
0.906946,0.016765,1.005908,10.008787,-0.002312,-0.005758,0.008781,0.000000,0.061035,0.091553
0.917011,0.022753,1.008902,10.010583,0.003675,-0.002764,0.010578,0.030518,0.091553,0.091553
0.927083,0.021555,1.011297,10.013577,0.002478,-0.000369,0.013571,0.061035,0.091553,0.030518
0.937153,0.011975,1.006507,10.006990,-0.007102,-0.005159,0.006985,0.091553,0.030518,0.030518
0.947218,0.014969,1.012495,10.007589,-0.004109,0.000829,0.007584,0.061035,0.030518,0.000000
0.957303,0.014969,1.013692,10.009984,-0.004109,0.002026,0.009979,0.030518,0.061035,0.091553
0.967383,0.019759,1.013692,10.013577,0.000681,0.002026,0.013571,0.061035,0.030518,0.091553
0.977449,0.018561,1.014291,10.003398,-0.000516,0.002625,0.003393,0.061035,0.030518,0.091553
0.987521,0.014969,1.016087,10.021959,-0.004109,0.004421,0.021954,0.030518,0.000000,0.091553
0.997592,0.017364,1.013692,10.017768,-0.001714,0.002026,0.017763,0.061035,0.000000,0.091553
1.007659,0.009580,1.018482,9.991423,-0.009497,0.006816,-0.008583,0.091553,0.000000,0.030518
1.017730,0.011975,1.019680,9.999207,-0.007102,0.008014,-0.000799,0.061035,-0.030518,0.061035
1.027804,0.008981,1.018482,10.014774,-0.010096,0.006816,0.014769,0.030518,0.000000,0.061035
1.037869,0.014370,1.021476,10.001602,-0.004707,0.009810,0.001596,0.061035,0.030518,0.061035
1.047942,0.019160,1.017285,9.972263,0.000083,0.005619,-0.027743,0.061035,0.000000,0.030518
1.058012,0.019160,1.019680,9.995614,0.000083,0.008014,-0.004391,0.030518,0.000000,0.000000
1.068079,0.026345,1.023871,10.018965,0.007268,0.012205,0.018960,0.030518,0.000000,0.000000
1.078151,0.026345,1.022075,10.002200,0.007268,0.010409,0.002195,0.030518,0.000000,0.030518
1.088223,0.023950,1.017883,9.999805,0.004873,0.006217,-0.000200,0.030518,0.000000,0.030518
1.098289,0.024549,1.014291,10.004595,0.005471,0.002625,0.004590,0.030518,0.000000,0.000000
1.108366,0.028141,1.013093,10.000404,0.009064,0.001427,0.000399,0.061035,0.000000,0.000000
1.118439,0.026345,1.010099,10.007589,0.007268,-0.001566,0.007584,0.061035,0.000000,0.030518
1.128506,0.017364,1.015488,10.006990,-0.001714,0.003822,0.006985,0.061035,0.030518,0.061035
1.138577,0.017364,1.018482,10.006392,-0.001714,0.006816,0.006386,0.061035,0.030518,0.061035
1.148651,0.015568,1.017285,9.998009,-0.003510,0.005619,-0.001996,0.030518,0.030518,0.091553
1.158717,0.019160,1.015488,10.006392,0.000083,0.003822,0.006386,0.030518,0.030518,0.091553
1.168788,0.015568,1.016087,10.014774,-0.003510,0.004421,0.014769,0.061035,0.030518,0.091553
1.178864,0.022753,1.018482,10.004595,0.003675,0.006816,0.004590,0.061035,0.030518,0.061035
1.188930,0.020956,1.016686,10.003997,0.001879,0.005020,0.003991,0.061035,0.030518,0.030518
1.199001,0.029339,1.015488,9.999207,0.010261,0.003822,-0.000799,0.061035,0.061035,0.030518
1.209073,0.031734,1.016087,10.005793,0.012656,0.004421,0.005788,0.061035,0.061035,0.030518
1.219138,0.028740,1.009501,10.009385,0.009663,-0.002165,0.009380,0.061035,0.030518,0.030518
1.229216,0.027543,1.007704,10.008188,0.008465,-0.003961,0.008183,0.030518,0.030518,0.030518
1.239343,0.024549,1.007704,10.005194,0.005471,-0.003961,0.005189,0.030518,0.030518,0.000000
1.249464,0.022753,1.005309,10.003398,0.003675,-0.006356,0.003393,0.030518,0.000000,0.030518
1.259565,0.023351,1.008303,10.004595,0.004274,-0.003363,0.004590,0.030518,-0.061035,0.061035
1.269659,0.025148,1.012495,10.008188,0.006070,0.000829,0.008183,0.030518,-0.030518,0.030518
1.279782,0.027543,1.007106,10.006392,0.008465,-0.004560,0.006386,0.061035,-0.030518,0.030518
1.289876,0.016166,1.004112,10.000404,-0.002911,-0.007554,0.000399,0.061035,-0.030518,0.030518
1.299943,0.013771,0.998723,10.002200,-0.005306,-0.012943,0.002195,0.030518,-0.030518,0.061035
1.310008,0.011376,1.004711,10.006990,-0.007701,-0.006955,0.006985,0.030518,0.000000,0.061035
1.320076,0.016765,1.007704,10.016570,-0.002312,-0.003961,0.016565,0.061035,0.000000,0.030518
1.330148,0.020358,1.010698,10.008188,0.001280,-0.000968,0.008183,0.091553,0.000000,0.030518
1.340214,0.017364,1.004112,10.002799,-0.001714,-0.007554,0.002794,0.091553,0.030518,0.061035
1.350302,0.018561,1.007106,10.003398,-0.000516,-0.004560,0.003393,0.091553,0.000000,0.091553
1.360369,0.019160,1.014291,10.008787,0.000083,0.002625,0.008781,0.122070,0.000000,0.061035
1.370464,0.019759,1.011896,10.007589,0.000681,0.000230,0.007584,0.091553,-0.030518,0.061035
1.380534,0.019160,1.010099,10.000404,0.000083,-0.001566,0.000399,0.061035,0.000000,0.091553
1.390613,0.016765,1.008902,10.003997,-0.002312,-0.002764,0.003991,0.061035,0.000000,0.061035
1.400678,0.020956,1.010698,10.002799,0.001879,-0.000968,0.002794,0.091553,0.030518,0.030518
1.410753,0.013771,1.008902,10.007589,-0.005306,-0.002764,0.007584,0.091553,0.030518,0.030518
1.420820,0.025746,1.004112,10.005793,0.006669,-0.007554,0.005788,0.091553,0.061035,0.000000
1.430891,0.028740,1.008303,9.996812,0.009663,-0.003363,-0.003194,0.030518,0.061035,0.000000
1.440957,0.028740,1.008303,9.998009,0.009663,-0.003363,-0.001996,0.000000,0.030518,0.030518
1.451023,0.028141,1.006507,9.995614,0.009064,-0.005159,-0.004391,0.000000,0.061035,0.030518
1.461138,0.030536,1.008902,10.000404,0.011459,-0.002764,0.000399,0.000000,0.061035,0.030518
1.471219,0.028141,1.007106,10.002200,0.009064,-0.004560,0.002195,0.030518,0.030518,0.030518
1.481286,0.028141,1.001717,10.003997,0.009064,-0.009949,0.003991,0.000000,0.030518,0.000000
1.491351,0.020956,1.001717,10.000404,0.001879,-0.009949,0.000399,0.030518,0.030518,0.030518
1.501418,0.023950,1.015488,10.006392,0.004873,0.003822,0.006386,0.030518,0.000000,0.091553
1.511483,0.020956,1.014291,10.009385,0.001879,0.002625,0.009380,0.030518,-0.030518,0.061035
1.521549,0.023950,1.010698,10.005793,0.004873,-0.000968,0.005788,0.061035,-0.030518,0.061035
1.531625,0.023950,1.011297,10.009385,0.004873,-0.000369,0.009380,0.061035,-0.030518,0.030518
1.541711,0.020358,1.007704,10.004595,0.001280,-0.003961,0.004590,0.091553,0.030518,0.061035
1.551777,0.015568,1.006507,10.010583,-0.003510,-0.005159,0.010578,0.030518,0.030518,0.091553
1.561866,0.014969,1.004112,10.013577,-0.004109,-0.007554,0.013571,0.030518,0.030518,0.061035
1.571931,0.016765,1.009501,10.012379,-0.002312,-0.002165,0.012374,0.061035,0.000000,0.061035
1.581998,0.019160,1.009501,10.009984,0.000083,-0.002165,0.009979,0.061035,0.030518,0.061035
1.592064,0.013771,1.010698,10.003398,-0.005306,-0.000968,0.003393,0.030518,0.030518,0.061035
1.602140,0.012574,1.007106,10.001003,-0.006504,-0.004560,0.000998,0.030518,0.000000,0.061035
1.612208,0.009580,1.007106,10.001602,-0.009497,-0.004560,0.001596,0.061035,0.061035,0.091553
1.622274,0.006586,1.010099,10.006990,-0.012491,-0.001566,0.006985,0.061035,0.061035,0.091553
1.632349,0.008383,1.014291,10.006392,-0.010695,0.002625,0.006386,0.061035,0.030518,0.061035
1.642415,0.011975,1.013093,9.996213,-0.007102,0.001427,-0.003793,0.091553,0.030518,0.030518
1.652481,0.013173,1.010698,9.992620,-0.005905,-0.000968,-0.007385,0.061035,0.030518,0.030518
1.662554,0.006586,1.012495,9.999805,-0.012491,0.000829,-0.000200,0.000000,0.030518,0.061035
1.672621,0.005988,1.005309,9.999207,-0.013090,-0.006356,-0.000799,0.000000,0.061035,0.061035
1.682687,0.011975,1.007704,9.996812,-0.007102,-0.003961,-0.003194,0.030518,0.000000,0.030518
1.692754,0.016765,1.006507,9.993818,-0.002312,-0.005159,-0.006188,0.030518,0.030518,0.061035
1.702819,0.017963,1.005309,9.998608,-0.001115,-0.006356,-0.001397,0.061035,0.061035,0.061035
1.712885,0.018561,1.012495,10.011182,-0.000516,0.000829,0.011176,0.091553,0.030518,0.061035
1.722964,0.019759,1.014291,10.002799,0.000681,0.002625,0.002794,0.091553,0.061035,0.061035
1.733052,0.020956,1.012495,10.002799,0.001879,0.000829,0.002794,0.061035,0.061035,0.030518
1.743118,0.023351,1.019081,10.002200,0.004274,0.007415,0.002195,0.091553,0.000000,0.061035
1.753185,0.023351,1.020278,10.001003,0.004274,0.008612,0.000998,0.061035,0.000000,0.061035
1.763251,0.026345,1.022673,10.014175,0.007268,0.011008,0.014170,0.061035,0.000000,0.030518
1.773327,0.025746,1.019081,10.012379,0.006669,0.007415,0.012374,0.061035,0.000000,0.030518
1.783405,0.019759,1.017285,10.003997,0.000681,0.005619,0.003991,0.061035,0.000000,0.000000
1.793471,0.017963,1.013692,9.999805,-0.001115,0.002026,-0.000200,0.030518,0.000000,0.030518
1.803538,0.013173,1.004711,9.996213,-0.005905,-0.006955,-0.003793,0.030518,0.000000,0.061035
1.813604,0.014969,1.002316,9.998608,-0.004109,-0.009350,-0.001397,0.030518,-0.030518,0.091553
1.823670,0.011975,1.004711,9.996812,-0.007102,-0.006955,-0.003194,0.030518,0.000000,0.061035
1.833744,0.010778,1.011896,9.992620,-0.008300,0.000230,-0.007385,0.000000,0.000000,0.030518
1.843837,0.014370,1.018482,9.990225,-0.004707,0.006816,-0.009780,0.030518,-0.030518,0.030518
1.853909,0.013173,1.017285,9.994417,-0.005905,0.005619,-0.005589,0.061035,0.000000,0.030518
1.863977,0.018561,1.019081,10.003997,-0.000516,0.007415,0.003991,0.061035,-0.030518,0.061035
1.874044,0.025148,1.014291,10.003398,0.006070,0.002625,0.003393,0.061035,0.030518,0.061035
1.884129,0.022154,1.017883,9.998608,0.003076,0.006217,-0.001397,0.061035,0.000000,0.061035
1.894195,0.022753,1.017883,9.998009,0.003675,0.006217,-0.001996,0.030518,0.030518,0.061035
1.904263,0.020956,1.022075,10.001003,0.001879,0.010409,0.000998,0.030518,0.000000,0.030518
1.914329,0.022154,1.020278,10.007589,0.003076,0.008612,0.007584,0.030518,0.030518,0.061035
1.924397,0.019160,1.016087,10.009984,0.000083,0.004421,0.009979,0.030518,0.061035,0.061035
1.934470,0.020358,1.013692,10.006990,0.001280,0.002026,0.006985,0.030518,0.061035,0.030518
1.944538,0.017364,1.020278,9.996812,-0.001714,0.008612,-0.003194,0.030518,0.030518,0.000000
1.954604,0.012574,1.016686,10.001602,-0.006504,0.005020,0.001596,0.000000,0.061035,0.030518
1.964671,0.018561,1.017883,10.012978,-0.000516,0.006217,0.012973,0.000000,0.030518,0.030518
1.974738,0.019759,1.019680,10.014175,0.000681,0.008014,0.014170,0.030518,0.000000,0.061035
1.984807,0.014370,1.020278,10.006990,-0.004707,0.008612,0.006985,0.061035,0.000000,0.091553
1.994873,0.013771,1.020278,9.998009,-0.005306,0.008612,-0.001996,0.061035,0.000000,0.091553
2.004943,0.010179,1.015488,9.996812,-0.008899,0.003822,-0.003194,0.061035,0.000000,0.091553
2.015010,0.016765,1.013093,10.002200,-0.002312,0.001427,0.002195,0.000000,0.030518,0.091553
2.025075,0.012574,1.008303,10.001602,-0.006504,-0.003363,0.001596,0.030518,0.030518,0.030518
2.035149,0.015568,1.007106,9.998009,-0.003510,-0.004560,-0.001996,0.061035,0.000000,0.030518
2.045217,0.018561,1.005908,9.992620,-0.000516,-0.005758,-0.007385,0.030518,-0.030518,0.061035
2.055282,0.018561,1.007704,9.990225,-0.000516,-0.003961,-0.009780,0.061035,-0.030518,0.061035
2.065348,0.011376,1.007704,9.999805,-0.007701,-0.003961,-0.000200,0.061035,0.030518,0.061035
2.075419,0.011376,1.008303,9.997410,-0.007701,-0.003363,-0.002595,0.061035,0.000000,0.061035
2.085490,0.019160,1.008902,9.999207,0.000083,-0.002764,-0.000799,0.030518,0.000000,0.061035
2.095561,0.021555,1.014291,9.996213,0.002478,0.002625,-0.003793,0.061035,0.000000,0.061035
2.105626,0.018561,1.017285,9.992021,-0.000516,0.005619,-0.007984,0.091553,0.000000,0.061035
2.115692,0.023950,1.020278,9.999207,0.004873,0.008612,-0.000799,0.091553,0.000000,0.030518
2.125758,0.025148,1.014890,9.994417,0.006070,0.003224,-0.005589,-0.030518,0.030518,0.061035
2.135831,0.014370,1.013692,9.992021,-0.004707,0.002026,-0.007984,-0.030518,0.000000,0.030518
2.145898,0.011376,1.007704,9.990824,-0.007701,-0.003961,-0.009181,-0.061035,0.030518,0.030518
2.156105,0.089813,1.212479,9.686058,0.070736,0.200813,-0.313948,-2.532959,0.762939,0.030518
2.166170,0.085622,1.243015,9.652527,0.066544,0.231349,-0.347478,-6.713867,1.892090,-0.061035
2.176234,0.073048,1.178350,9.669891,0.053971,0.166684,-0.330114,-16.021729,4.608154,-0.122070
2.186301,0.049697,1.125060,9.720786,0.030619,0.113395,-0.279220,-20.324707,5.859375,-0.183105
2.196366,0.037722,1.056204,9.781260,0.018644,0.044538,-0.218746,-26.824951,7.690430,-0.274658
2.206430,-0.104183,0.445474,10.488988,-0.123261,-0.566192,0.488983,-28.930664,8.331299,-0.305176
2.216503,0.021555,0.605940,10.242900,0.002478,-0.405726,0.242894,-21.942139,6.134033,-0.061035
2.226568,-0.109572,0.614921,10.247091,-0.128650,-0.396745,0.247086,-13.824463,3.875732,-0.366211
2.236638,-0.092208,0.664019,10.196197,-0.111286,-0.347647,0.196192,-10.681152,3.021240,-0.335693
2.246702,-0.074844,0.677192,10.147698,-0.093922,-0.334474,0.147692,-6.378174,1.800537,-0.213623
2.256766,-0.067659,0.677192,10.129735,-0.086737,-0.334474,0.129730,-4.913330,1.434326,-0.152588
2.266830,-0.061672,0.677791,10.118958,-0.080749,-0.333875,0.118952,-2.990723,0.854492,-0.061035
2.276902,-0.064666,0.702938,10.080637,-0.083743,-0.308728,0.080632,-2.410889,0.671387,-0.061035
2.286967,-0.067061,0.706531,10.063273,-0.086138,-0.305135,0.063268,-1.983643,0.518799,-0.061035
2.297033,-0.061073,0.716111,10.049502,-0.080151,-0.295555,0.049497,-1.159668,0.305176,-0.061035
2.307097,-0.055684,0.720901,10.047706,-0.074762,-0.290765,0.047700,-0.915527,0.213623,-0.091553
2.317162,-0.055085,0.728086,10.051298,-0.074163,-0.283580,0.051293,-0.518799,0.152588,-0.061035
2.327226,-0.059875,0.725092,10.056687,-0.078953,-0.286574,0.056682,-0.366211,0.091553,-0.061035
2.337295,-0.068857,0.729882,10.053094,-0.087934,-0.281784,0.053089,-0.213623,0.061035,-0.061035
2.347373,-0.061073,0.731080,10.033336,-0.080151,-0.280586,0.033330,-0.183105,0.061035,-0.061035
2.357442,-0.059277,0.734672,10.038724,-0.078354,-0.276994,0.038719,-0.152588,0.030518,-0.091553
2.367508,-0.053289,0.720302,10.051897,-0.072367,-0.291364,0.051892,-0.122070,0.030518,-0.061035
2.377586,-0.052092,0.713117,10.043514,-0.071169,-0.298549,0.043509,-0.122070,0.000000,-0.091553
2.387654,-0.055085,0.716710,10.036928,-0.074163,-0.294956,0.036923,-0.122070,0.000000,-0.030518
2.397719,-0.052690,0.717308,10.037527,-0.071768,-0.294357,0.037522,-0.122070,0.000000,0.000000
2.407797,-0.050295,0.716710,10.039922,-0.069373,-0.294956,0.039917,-0.122070,0.030518,0.030518
2.417862,-0.057480,0.715512,10.038724,-0.076558,-0.296154,0.038719,-0.122070,0.000000,0.061035
2.427934,-0.063468,0.716710,10.042916,-0.082546,-0.294956,0.042910,-0.061035,0.030518,0.061035
2.438000,-0.063468,0.727487,10.020762,-0.082546,-0.284179,0.020756,-0.091553,0.030518,0.030518
2.448065,-0.064067,0.730481,10.026151,-0.083144,-0.281185,0.026145,-0.091553,0.061035,0.061035
2.458134,-0.056283,0.729283,10.053693,-0.075360,-0.282382,0.053688,-0.061035,0.030518,0.030518
2.468212,-0.053289,0.758622,10.051897,-0.072367,-0.253043,0.051892,-0.091553,0.030518,0.000000
2.478278,-0.062271,0.813109,10.027348,-0.081348,-0.198557,0.027343,-2.349854,-0.427246,0.091553
2.488345,-0.086819,0.901126,9.993818,-0.105897,-0.110540,-0.006188,-5.126953,-0.976562,0.152588
2.498410,-0.033530,0.698747,10.045311,-0.052608,-0.312919,0.045305,-5.889893,-1.159668,0.854492
2.508476,-0.065863,0.725691,10.043514,-0.084941,-0.285975,0.043509,-4.486084,-0.823975,0.946045
2.518540,-0.044907,0.658630,10.056088,-0.063984,-0.353035,0.056083,-3.997803,-0.701904,1.159668
2.528616,-0.061672,0.738864,10.026151,-0.080749,-0.272802,0.026145,-2.288818,-0.274658,2.197266
2.538683,-0.059875,0.727487,10.038126,-0.078953,-0.284179,0.038120,-2.197266,-0.183105,2.868652
2.548749,-0.058079,0.711920,10.037527,-0.077157,-0.299746,0.037522,-1.525879,0.122070,3.906250
2.558818,-0.023950,0.598755,10.050699,-0.043028,-0.412911,0.050694,-1.220703,0.152588,3.875732
2.568885,-0.025746,0.573607,10.038126,-0.044824,-0.438059,0.038120,-0.854492,0.122070,2.899170
2.578950,-0.027543,0.593366,10.050699,-0.046620,-0.418300,0.050694,-0.671387,0.091553,2.258301
2.589016,-0.027543,0.610730,10.051897,-0.046620,-0.400936,0.051892,-0.640869,0.030518,1.770020
2.599093,-0.031734,0.608335,10.033336,-0.050812,-0.403331,0.033330,-0.427246,0.030518,1.159668
2.609161,-0.044308,0.636476,10.036329,-0.063385,-0.375189,0.036324,-0.061035,0.091553,0.976562
2.619227,-0.038919,0.641865,10.053693,-0.057997,-0.369801,0.053688,-0.061035,0.122070,0.976562
2.629294,-0.016765,0.644260,10.052496,-0.035843,-0.367406,0.052490,-0.061035,0.122070,1.190186
2.639360,-0.005389,0.670007,10.039323,-0.024466,-0.341659,0.039318,-0.061035,0.244141,2.197266
2.649433,0.014969,0.681982,10.034533,-0.004109,-0.329684,0.034528,-0.091553,0.274658,2.777100
2.659510,0.021555,0.689167,10.035731,0.002478,-0.322499,0.035725,-0.091553,0.335693,3.479004
2.669576,0.000599,0.634081,10.050101,-0.018479,-0.377584,0.050095,-0.244141,0.366211,4.821777
2.679643,-0.047302,0.580792,10.052496,-0.066379,-0.430874,0.052490,-0.335693,0.396729,5.371094
2.689709,-0.102387,0.547861,10.045909,-0.121465,-0.463805,0.045904,0.122070,0.549316,5.798340
2.699775,-0.078437,0.604742,10.036928,-0.097514,-0.406923,0.036923,0.030518,0.549316,5.889893
2.709841,-0.073048,0.625699,10.049502,-0.092126,-0.385967,0.049497,-0.061035,0.427246,5.798340
2.719932,-0.053289,0.613724,10.053693,-0.072367,-0.397942,0.053688,-0.122070,0.427246,5.737305
2.729999,-0.047302,0.632285,10.046508,-0.066379,-0.379381,0.046503,-0.061035,0.457764,5.828857
2.740067,-0.019759,0.657433,10.041718,-0.038836,-0.354233,0.041713,-0.061035,0.518799,6.134033
2.750132,0.008981,0.690963,10.028546,-0.010096,-0.320703,0.028540,-0.152588,0.488281,6.347656
2.760197,0.034728,0.692161,10.034533,0.015650,-0.319505,0.034528,-0.732422,0.366211,7.141113
2.770263,0.064067,0.673599,10.054292,0.044989,-0.338067,0.054287,-1.312256,0.213623,7.720947
2.780359,0.070653,0.676593,10.050699,0.051576,-0.335073,0.050694,-3.265381,-0.122070,9.155273
2.790425,0.070653,0.636476,10.064471,0.051576,-0.375189,0.064466,-3.906250,-0.061035,9.796143
2.800498,0.122745,0.623903,10.051897,0.103667,-0.387763,0.051892,-3.906250,0.091553,10.314941
2.810565,0.321531,0.644260,10.037527,0.302454,-0.367406,0.037522,-3.082275,0.732422,11.596680
2.820630,0.290995,0.638273,10.059082,0.271917,-0.373393,0.059077,-2.532959,1.037598,12.176514
2.830697,0.250280,0.644260,10.027947,0.231202,-0.367406,0.027941,-1.831055,1.098633,13.031006
2.840776,0.122745,0.542472,10.020163,0.103667,-0.469194,0.020158,-1.678467,1.312256,12.603760
2.850842,0.156874,0.550854,10.096205,0.137796,-0.460811,0.096200,-3.051758,0.976562,10.253906
2.860909,0.140109,0.560435,10.078242,0.121031,-0.451231,0.078237,-3.875732,0.854492,9.124756
2.870976,0.131726,0.576601,10.053094,0.112649,-0.435065,0.053089,-5.187988,0.335693,8.117676
2.881042,0.114961,0.490979,10.058483,0.095883,-0.520687,0.058478,-7.019043,-0.518799,6.652832
2.891107,0.108973,0.440684,10.039922,0.089896,-0.570982,0.039917,-6.744385,-0.366211,6.072998
2.901181,0.093406,0.401765,10.043514,0.074328,-0.609901,0.043509,-4.028320,0.854492,4.852295
2.911248,0.108973,0.412542,10.066267,0.089896,-0.599124,0.066262,-2.838135,1.281738,4.150391
2.921314,0.095801,0.446072,10.068662,0.076723,-0.565593,0.068657,-1.403809,2.105713,3.265381
2.931380,0.097597,0.459245,10.054891,0.078520,-0.552421,0.054885,-0.854492,2.410889,2.990723
2.941445,0.107776,0.453856,10.044712,0.088698,-0.557810,0.044707,-0.396729,2.349854,2.777100
2.951526,0.107177,0.446671,10.035132,0.088100,-0.564995,0.035127,-0.549316,1.647949,1.373291
2.961592,0.067659,0.404160,10.043514,0.048582,-0.607506,0.043509,-0.823975,1.312256,0.244141
2.971657,0.038919,0.407752,10.042916,0.019842,-0.603914,0.042910,-0.610352,1.220703,-2.380371
2.981752,0.028141,0.434097,10.084828,0.009064,-0.577569,0.084823,-0.244141,1.678467,-3.814697
2.991820,0.007185,0.493973,10.108180,-0.011892,-0.517693,0.108175,0.946045,2.990723,-5.401611
3.001887,0.036524,0.537682,10.089619,0.017447,-0.473984,0.089613,1.586914,3.784180,-5.706787
3.011952,0.070054,0.532293,10.018367,0.050977,-0.479373,0.018361,1.800537,4.119873,-5.828857
3.022018,0.039518,0.540077,9.985435,0.020440,-0.471589,-0.014570,1.342773,3.265381,-6.164551
3.032084,0.019160,0.521516,9.989028,0.000083,-0.490150,-0.010978,0.335693,1.953125,-6.500244
3.042160,0.071252,0.573607,9.963281,0.052174,-0.438059,-0.036724,-2.410889,-1.647949,-7.324219
3.052227,0.098795,0.535886,10.019564,0.079717,-0.475780,0.019559,-3.906250,-2.746582,-7.812500
3.062292,0.112566,0.497565,10.093810,0.093488,-0.514101,0.093805,-4.455566,-2.288818,-8.819580
3.072358,0.088017,0.377216,10.157278,0.068939,-0.634450,0.157273,-3.448486,-1.220703,-9.460449
3.082425,0.068258,0.399370,10.127939,0.049181,-0.612296,0.127934,-1.892090,0.152588,-9.918213
3.092491,0.048499,0.435894,10.060280,0.029422,-0.575772,0.060274,0.122070,2.624512,-10.681152
3.102568,-0.020956,0.447270,10.049502,-0.040034,-0.564396,0.049497,0.854492,3.082275,-10.955811
3.112635,-0.055085,0.426912,10.045909,-0.074163,-0.584754,0.045904,0.915527,2.258301,-10.925293
3.122701,-0.182021,0.534688,10.021959,-0.201099,-0.476978,0.021954,0.701904,1.159668,-10.589600
3.132770,-0.202978,0.581990,9.999805,-0.222055,-0.429676,-0.000200,-0.366211,-0.793457,-8.483887
3.142837,-0.189207,0.601749,10.015972,-0.208284,-0.409917,0.015966,-0.793457,-1.495361,-7.019043
3.152903,-0.179626,0.593366,10.044113,-0.198704,-0.418300,0.044108,-1.220703,-1.800537,-5.310059
3.162981,-0.089813,0.631088,10.080637,-0.108891,-0.380578,0.080632,-1.068115,-1.098633,-1.770020
3.173050,-0.079634,0.610730,10.111772,-0.098712,-0.400936,0.111767,-0.579834,0.091553,0.030518
3.183117,-0.044907,0.550854,10.081835,-0.063984,-0.460811,0.081829,1.708984,2.990723,3.356934
3.193183,-0.029339,0.528102,10.066267,-0.048417,-0.483564,0.066262,2.624512,4.058838,4.547119
3.203249,0.023351,0.514330,10.026151,0.004274,-0.497335,0.026145,3.753662,5.187988,5.584717
3.213314,0.083826,0.496368,10.063872,0.064748,-0.515298,0.063867,3.631592,5.432129,5.615234
3.223393,0.103585,0.505948,10.038126,0.084507,-0.505718,0.038120,3.540039,5.523682,5.584717
3.233470,0.125140,0.440684,10.038724,0.106062,-0.570982,0.038719,3.234863,5.218506,5.340576
3.243535,0.149090,0.434696,10.027348,0.130012,-0.576970,0.027343,2.960205,4.821777,4.730225
3.253608,0.186812,0.471819,10.030342,0.167734,-0.539847,0.030337,2.349854,3.723145,2.929688
3.263675,0.183219,0.483794,10.068662,0.164141,-0.527872,0.068657,1.586914,3.234863,1.861572
3.273743,0.223336,0.496967,10.021959,0.204258,-0.514699,0.021954,0.762939,2.471924,-0.427246
3.283811,0.177231,0.534688,10.070458,0.158154,-0.476978,0.070453,0.366211,2.410889,-1.495361
3.293883,0.226329,0.560435,10.021360,0.207252,-0.451231,0.021355,0.335693,2.685547,-2.655029
3.303955,0.101788,0.555046,10.097402,0.082711,-0.456620,0.097397,0.762939,3.387451,-5.157471
3.314022,0.047900,0.499362,10.119556,0.028823,-0.512304,0.119551,1.190186,4.272461,-6.164551
3.324088,0.040117,0.644260,10.040521,0.021039,-0.367406,0.040515,2.105713,5.767822,-8.422852
3.334153,-0.068258,0.647853,10.065668,-0.087336,-0.363813,0.065663,2.410889,6.286621,-9.429932
3.344219,-0.096400,0.701741,10.071057,-0.115477,-0.309925,0.071052,2.655029,6.530762,-10.589600
3.354297,-0.110770,0.815504,9.975855,-0.129847,-0.196162,-0.024150,2.105713,6.683350,-10.925293
3.364362,-0.253872,0.889151,10.102192,-0.272950,-0.122515,0.102187,0.335693,6.713867,-11.077881
3.374437,-0.349074,0.921484,10.032138,-0.368152,-0.090182,0.032133,-0.457764,6.988525,-10.864258
3.384506,-0.403561,0.934656,10.021959,-0.422638,-0.077009,0.021954,-1.129150,7.202148,-10.467529
3.394570,-0.516127,0.869991,9.978849,-0.535204,-0.141675,-0.021156,-1.953125,6.866455,-8.514404
3.404638,-0.580792,0.920885,9.966874,-0.599870,-0.090781,-0.033132,-2.502441,6.072998,-7.171631
3.414705,-0.667612,0.907114,10.003997,-0.686689,-0.104552,0.003991,-3.845215,4.852295,-3.417969
3.424771,-0.577798,0.842448,9.926158,-0.596876,-0.169218,-0.073847,-4.089355,4.333496,-1.190186
3.434837,-0.659229,0.810115,10.042916,-0.678307,-0.201550,0.042910,-3.662109,4.028320,3.173828
3.444903,-0.508942,0.701142,9.981843,-0.528019,-0.310524,-0.018163,-3.143311,4.241943,5.218506
3.454969,-0.506547,0.618514,10.069860,-0.525624,-0.393152,0.069854,-2.807617,4.547119,6.927490
3.465035,-0.502355,0.507744,10.081835,-0.521433,-0.503922,0.081829,-2.044678,4.730225,9.521484
3.475101,-0.429906,0.489781,9.945319,-0.448984,-0.521884,-0.054687,-1.434326,4.364014,10.528564
3.485167,-0.513732,0.505349,9.994417,-0.532809,-0.506317,-0.005589,-1.220703,2.838135,11.688232
3.495233,-0.457449,0.469424,9.950707,-0.476526,-0.542242,-0.049298,-1.586914,1.556396,12.054443
3.505299,-0.427511,0.507744,9.952504,-0.446589,-0.503922,-0.047502,-2.075195,-1.220703,13.336182
3.515374,-0.236508,0.549058,9.958491,-0.255586,-0.462608,-0.041514,-2.075195,-2.197266,14.312744
3.525442,-0.155078,0.497565,10.032138,-0.174155,-0.514101,0.032133,-1.922607,-2.777100,15.136719
3.535517,0.017963,0.422721,10.068662,-0.001115,-0.588945,0.068657,-0.701904,-2.838135,15.106201
3.545583,0.055684,0.371827,10.080038,0.036607,-0.639839,0.080033,-0.030518,-2.471924,14.251709
3.555654,0.046703,0.326920,10.086625,0.027625,-0.684746,0.086619,2.136230,-1.831055,10.314941
3.565722,0.037722,0.300575,10.026749,0.018644,-0.711091,0.026744,3.540039,-1.464844,7.995605
3.575788,0.006586,0.386796,10.054292,-0.012491,-0.624870,0.054287,4.852295,-1.251221,3.906250
3.585874,-0.052092,0.471220,9.977651,-0.071169,-0.540446,-0.022354,4.455566,-1.495361,2.349854
3.595942,-0.125739,0.490979,10.000404,-0.144816,-0.520687,0.000399,3.845215,-2.044678,1.251221
3.606007,-0.222138,0.545466,9.978250,-0.241216,-0.466200,-0.021755,2.105713,-3.845215,0.152588
3.616074,-0.257465,0.570015,10.031539,-0.276542,-0.441651,0.031534,1.525879,-4.943848,0.061035
3.626138,-0.266446,0.598156,10.001003,-0.285523,-0.413510,0.000998,-0.823975,-6.347656,0.213623
3.636204,-0.215552,0.502954,10.045311,-0.234629,-0.508712,0.045305,-1.464844,-6.103516,0.244141
3.646271,-0.176034,0.464634,10.063273,-0.195111,-0.547032,0.063268,-1.373291,-4.486084,-0.640869
3.656338,-0.299377,0.396376,10.206376,-0.318455,-0.615290,0.206370,-0.793457,-2.960205,-1.159668
3.666403,-0.152084,0.446072,10.042916,-0.171161,-0.565593,0.042910,-0.122070,-1.434326,-1.892090
3.676467,-0.323926,0.416135,10.100396,-0.343004,-0.595531,0.100391,0.762939,0.427246,-3.082275
3.686532,-0.275427,0.464634,10.065070,-0.294505,-0.547032,0.065064,0.976562,0.854492,-3.540039
3.696595,-0.286205,0.558040,10.064471,-0.305282,-0.453626,0.064466,-0.915527,0.823975,-4.486084
3.706660,-0.351469,0.634081,10.126741,-0.370547,-0.377584,0.126736,-1.831055,0.427246,-4.760742
3.716724,-0.337099,0.652643,10.093810,-0.356177,-0.359023,0.093805,-2.838135,0.640869,-4.882812
3.726799,-0.281415,0.616718,10.065070,-0.300492,-0.394948,0.065064,-2.868652,1.007080,-4.760742
3.736873,-0.286804,0.674797,10.127340,-0.305881,-0.336869,0.127335,-2.471924,1.617432,-4.333496
3.746939,-0.177830,0.722098,10.059082,-0.196908,-0.289567,0.059077,-3.051758,3.173828,-2.990723
3.757049,-0.183219,0.673599,10.108779,-0.202297,-0.338067,0.108773,-2.990723,4.119873,-2.288818
3.767118,-0.091609,0.592767,10.012379,-0.110687,-0.418898,0.012374,-2.441406,5.737305,-2.227783
3.777183,-0.177231,0.489781,10.097402,-0.196309,-0.521884,0.097397,-2.105713,7.080078,-2.471924
3.787340,-0.094603,0.561033,10.012379,-0.113681,-0.450633,0.012374,-1.129150,7.873535,-3.814697
3.797440,-0.152682,0.626896,10.016570,-0.171760,-0.384769,0.016565,-1.251221,8.453369,-4.333496
3.807516,-0.216151,0.621508,10.062675,-0.235228,-0.390158,0.062669,-0.946045,8.605957,-4.486084
3.817582,-0.246687,0.556842,10.036329,-0.265765,-0.454824,0.036324,-0.640869,9.429932,-3.875732
3.827649,-0.273631,0.658032,10.013577,-0.292709,-0.353634,0.013571,-0.457764,9.307861,-3.234863
3.837715,-0.296384,0.631088,10.010583,-0.315461,-0.380578,0.010578,-0.213623,9.033203,-1.464844
3.847781,-0.394579,0.613724,10.021959,-0.413657,-0.397942,0.021954,0.183105,8.331299,-0.671387
3.857846,-0.404160,0.582589,9.988429,-0.423237,-0.429077,-0.011576,-1.037598,6.652832,0.213623
3.867911,-0.455054,0.555645,9.982441,-0.474131,-0.456021,-0.017564,-1.586914,5.645752,0.213623
3.877976,-0.553848,0.513133,9.995015,-0.572926,-0.498533,-0.004990,-1.983643,4.821777,0.000000
3.888041,-0.546663,0.574805,9.897418,-0.565741,-0.436861,-0.102587,-1.739502,4.364014,0.213623
3.898106,-0.620909,0.624501,9.948312,-0.639986,-0.387164,-0.051693,-1.434326,4.272461,0.976562
3.908172,-0.721500,0.688568,9.986633,-0.740577,-0.323098,-0.013373,-0.885010,4.058838,4.638672
3.918238,-0.682581,0.810714,9.893826,-0.701658,-0.200952,-0.106180,-0.976562,3.326416,7.263184
3.928304,-0.655038,0.798140,9.916578,-0.674115,-0.213526,-0.083427,-2.807617,0.457764,12.451172
3.938368,-0.515528,0.755629,9.892029,-0.534605,-0.256037,-0.107976,-3.967285,-1.190186,14.770508
3.948434,-0.447270,0.650248,9.963880,-0.466347,-0.361418,-0.036125,-4.669189,-2.532959,16.143799
3.958498,-0.422122,0.391586,10.084828,-0.441200,-0.620080,0.084823,-4.394531,-5.004883,15.930176
3.968564,-0.319136,0.306563,9.978849,-0.338214,-0.705103,-0.021156,-4.119873,-5.920410,14.495850
3.978628,-0.261656,0.281415,10.009385,-0.280733,-0.730251,0.009380,-3.540039,-7.293701,9.674072
3.988693,-0.298180,0.268841,10.060878,-0.317257,-0.742825,0.060873,-3.143311,-7.751465,6.652832
3.998764,-0.298779,0.233514,10.061477,-0.317856,-0.778151,0.061472,-2.655029,-8.148193,0.305176
4.008829,-0.330513,0.259860,10.101594,-0.349590,-0.751806,0.101588,-2.471924,-7.995605,-2.685547
4.018894,-0.459245,0.296982,10.220746,-0.478323,-0.714683,0.220741,-3.082275,-7.293701,-5.249023
4.028959,-0.402363,0.508343,10.145303,-0.421441,-0.503323,0.145297,-3.356934,-4.821777,-8.941650
4.039024,-0.511337,0.543071,10.197993,-0.530414,-0.468595,0.197988,-3.601074,-3.143311,-10.223389
4.049090,-0.553848,0.512534,10.163864,-0.572926,-0.499132,0.163859,-2.899170,0.244141,-12.115479
4.059161,-0.686173,0.548459,10.156679,-0.705251,-0.463206,0.156674,-3.051758,1.495361,-13.092041
4.069227,-0.764610,0.524509,10.138118,-0.783688,-0.487157,0.138112,-3.997803,3.326416,-15.136719
4.079292,-0.758622,0.664618,10.036329,-0.777700,-0.347048,0.036324,-4.669189,3.967285,-16.021729
4.089358,-0.869991,0.678389,10.176438,-0.889068,-0.333277,0.176433,-4.791260,4.516602,-16.387939
4.099430,-0.815504,0.720302,10.072255,-0.834582,-0.291364,0.072249,-4.730225,6.439209,-15.655518
4.109496,-0.826880,0.690364,10.047706,-0.845958,-0.321301,0.047700,-4.455566,7.385254,-14.923096
4.119561,-0.837059,0.673000,10.036329,-0.856137,-0.338665,0.036324,-2.624512,8.605957,-12.603760
4.129627,-0.805924,0.713117,9.947115,-0.825002,-0.298549,-0.052890,-1.739502,8.300781,-10.833740
4.139692,-0.813708,0.755629,9.974658,-0.832785,-0.256037,-0.025348,-1.983643,6.164551,-6.317139
4.149758,-0.606539,0.756227,9.973460,-0.625616,-0.255438,-0.026545,-2.838135,4.394531,-3.570557
4.159824,-0.515528,0.690963,10.014175,-0.534605,-0.320703,0.014170,-4.058838,3.051758,-0.427246
4.169890,-0.212558,0.573607,10.050101,-0.231636,-0.438059,0.050095,-5.218506,1.708984,5.737305
4.179955,-0.012574,0.413740,10.069860,-0.031651,-0.597926,0.069854,-4.974365,1.983643,7.965088
4.190021,0.117955,0.018561,10.144704,0.098877,-0.993104,0.144699,-3.479004,3.936768,9.857178
4.200086,0.171244,-0.162263,10.145901,0.152166,-1.173928,0.145896,-1.556396,5.310059,9.277344
4.210152,0.132924,-0.201780,10.129735,0.113846,-1.213446,0.129730,1.373291,7.476807,5.065918
4.220218,0.033530,-0.395178,10.114167,0.014453,-1.406844,0.114162,2.227783,7.873535,1.983643
4.230283,-0.023351,-0.329914,10.079440,-0.042429,-1.341580,0.079434,3.356934,7.141113,-1.495361
4.240349,-0.077838,-0.350870,9.968071,-0.096916,-1.362536,-0.031934,3.753662,4.333496,-8.911133
4.250462,-0.301174,-0.370031,10.094409,-0.320251,-1.381696,0.094403,3.265381,2.502441,-12.298584
4.260527,-0.240699,-0.089813,9.814790,-0.259777,-1.101479,-0.185215,3.417969,-1.190186,-17.272949
4.270593,-0.487386,-0.038919,10.056088,-0.506464,-1.050585,0.056083,3.417969,-3.662109,-19.256592
4.280659,-0.577798,-0.041314,10.072255,-0.596876,-1.052980,0.072249,2.471924,-6.927490,-21.118164
4.290724,-0.490979,0.283211,9.949510,-0.510057,-0.728455,-0.050495,2.197266,-8.331299,-21.270752
4.300790,-0.591570,0.329315,10.045311,-0.610647,-0.682351,0.045305,2.288818,-8.941650,-20.751953
4.310857,-0.600551,0.441282,10.048903,-0.619629,-0.570383,0.048898,3.448486,-8.453369,-17.211914
4.320922,-0.546064,0.502954,9.999207,-0.565142,-0.508712,-0.000799,3.845215,-7.934570,-14.709473
4.330988,-0.501757,0.476010,10.095606,-0.520834,-0.535656,0.095601,3.082275,-7.171631,-10.253906
4.341054,-0.394579,0.498164,10.044712,-0.413657,-0.513502,0.044707,2.716064,-7.019043,-8.697510
4.351167,-0.337698,0.419128,10.024354,-0.356775,-0.592537,0.024349,1.861572,-6.927490,-8.026123
4.361233,-0.297581,0.377814,10.082433,-0.316659,-0.633851,0.082428,1.159668,-6.713867,-8.605957
4.371307,-0.271236,0.332908,10.133328,-0.290313,-0.678758,0.133322,1.007080,-5.889893,-10.894775
4.381373,-0.184417,0.474214,10.032737,-0.203494,-0.537452,0.032732,0.762939,-5.340576,-12.237549
4.391439,-0.319735,0.526904,10.167457,-0.338813,-0.484762,0.167451,1.281738,-4.638672,-13.366699
4.401506,-0.301772,0.570613,9.944121,-0.320850,-0.441052,-0.055884,2.441406,-3.570557,-15.014648
4.411572,-0.461041,0.537083,10.048903,-0.480119,-0.474583,0.048898,3.082275,-3.967285,-15.533447
4.421637,-0.406555,0.596959,9.927356,-0.425632,-0.414707,-0.072649,2.502441,-4.882812,-14.984131
4.431703,-0.583187,0.587977,10.049502,-0.602265,-0.423689,0.049497,1.800537,-5.523682,-14.160156
4.441792,-0.411943,0.573607,9.947714,-0.431021,-0.438059,-0.052292,1.770020,-6.256104,-12.298584
4.451860,-0.649649,0.529898,10.175240,-0.668727,-0.481768,0.175235,2.349854,-6.195068,-11.444092
4.461926,-0.458646,0.549657,9.977651,-0.477724,-0.462009,-0.022354,2.899170,-5.859375,-10.467529
4.471992,-0.595162,0.474214,10.048304,-0.614240,-0.537452,0.048299,4.119873,-5.828857,-8.697510
4.482059,-0.522713,0.492177,9.990225,-0.541791,-0.519489,-0.009780,4.547119,-5.798340,-7.629395
4.492123,-0.549058,0.581990,9.966874,-0.568136,-0.429676,-0.033132,4.577637,-6.744385,-5.584717
4.502189,-0.573607,0.509540,10.078841,-0.592685,-0.502125,0.078836,4.272461,-7.141113,-4.302979
4.512255,-0.434696,0.642464,9.965078,-0.453774,-0.369202,-0.034928,3.662109,-8.422852,-1.647949
4.522321,-0.290995,0.646057,10.000404,-0.310072,-0.365609,0.000399,3.570557,-8.850098,-0.183105
4.532387,-0.229922,0.591570,10.050101,-0.248999,-0.420096,0.050095,3.448486,-8.972168,1.037598
4.542453,-0.096998,0.493973,10.070458,-0.116076,-0.517693,0.070453,3.509521,-8.178711,2.716064
4.552519,-0.113763,0.396376,10.114167,-0.132841,-0.615290,0.114162,3.906250,-7.629395,2.655029
4.562586,-0.076641,0.343685,10.106982,-0.095718,-0.667981,0.106977,4.974365,-6.286621,1.037598
4.572651,-0.053888,0.361049,10.039922,-0.072965,-0.650617,0.039917,5.493164,-6.072998,-0.183105
4.582718,-0.167651,0.375419,10.129735,-0.186729,-0.636247,0.129730,4.547119,-5.645752,-2.777100
4.592783,-0.027543,0.538879,10.003398,-0.046620,-0.472786,0.003393,3.784180,-5.584717,-3.936768
4.602848,-0.150886,0.441881,10.112970,-0.169964,-0.569785,0.112965,2.807617,-5.706787,-5.310059
4.612915,-0.111967,0.503553,10.063273,-0.131045,-0.508113,0.063268,1.770020,-4.516602,-6.774902
4.622981,-0.095202,0.540676,9.990824,-0.114280,-0.470990,-0.009181,2.136230,-4.028320,-7.415771
4.633046,-0.272433,0.452659,10.226733,-0.291511,-0.559007,0.226728,2.593994,-2.136230,-8.392334
4.643113,-0.094603,0.516725,9.968670,-0.113681,-0.494940,-0.031335,2.441406,-1.586914,-9.002686
4.653178,-0.253273,0.549657,10.135124,-0.272351,-0.462009,0.135119,2.685547,-1.098633,-10.040283
4.663244,-0.167053,0.569416,9.900412,-0.186130,-0.442250,-0.099593,2.593994,-1.068115,-10.101318
4.673309,-0.283211,0.634081,9.962084,-0.302289,-0.377584,-0.037922,2.166748,-1.922607,-10.040283
4.683389,-0.308359,0.631686,9.924362,-0.327436,-0.379979,-0.075643,0.762939,-3.326416,-9.002686
4.693459,-0.311951,0.648452,9.947115,-0.331029,-0.363214,-0.052890,-0.091553,-4.272461,-8.697510
4.703526,-0.543669,0.498164,10.123149,-0.562747,-0.513502,0.123144,-0.732422,-4.791260,-7.934570
4.713592,-0.711920,0.314945,10.048903,-0.730997,-0.696721,0.048898,-0.640869,-4.791260,-7.537842
4.723657,-0.943638,0.238903,10.123748,-0.962715,-0.772763,0.123742,1.159668,-3.723145,-4.364014
4.733724,-0.866997,0.372426,9.996812,-0.886075,-0.639240,-0.003194,2.563477,-3.387451,-1.342773
4.743791,-0.847238,0.421523,10.004595,-0.866316,-0.590142,0.004590,3.021240,-3.601074,2.502441
4.753858,-0.491578,0.435894,9.914183,-0.510655,-0.575772,-0.085822,2.929688,-5.554199,10.986328
4.763924,-0.379611,0.394579,9.909992,-0.398688,-0.617086,-0.090013,2.685547,-7.568359,14.678955
4.773991,-0.060474,0.213755,10.216555,-0.079552,-0.797910,0.216549,9.460449,-4.058838,20.141602
4.784059,0.229922,0.189207,10.139914,0.210844,-0.822459,0.139909,14.648438,-0.946045,21.789551
4.794128,0.288001,0.540077,10.146500,0.268924,-0.471589,0.146495,12.969971,1.159668,22.125244
4.804194,0.398771,0.464035,10.150692,0.379693,-0.547631,0.150686,12.786865,1.861572,21.545410
4.814261,0.442480,0.507744,10.119556,0.423402,-0.503922,0.119551,13.031006,2.471924,20.599365
4.824327,0.432900,0.673599,10.091415,0.413822,-0.338067,0.091410,9.063721,2.136230,17.333984
4.834394,0.480201,0.729882,9.968071,0.461124,-0.281784,-0.031934,6.988525,1.922607,15.411377
4.844460,0.458646,0.666414,10.045311,0.439569,-0.345252,0.045305,4.608154,1.434326,11.016846
4.854526,0.553250,0.696951,10.034533,0.534172,-0.314715,0.034528,3.204346,1.129150,8.331299
4.864591,0.496368,0.700543,10.063273,0.477290,-0.311123,0.063268,1.586914,0.518799,2.532959
4.874657,0.460443,0.683778,10.106384,0.441365,-0.327888,0.106378,1.342773,0.122070,-0.396729
4.884723,0.488584,0.625100,9.976454,0.469506,-0.386566,-0.023551,0.549316,-0.122070,-3.143311
4.894789,0.425116,0.763412,10.004595,0.406038,-0.248253,0.004590,-1.312256,-0.762939,-7.446289
4.904855,0.334704,0.764011,10.039922,0.315626,-0.247655,0.039917,-1.983643,-1.129150,-8.972168
4.914921,0.280816,0.771196,10.046508,0.261739,-0.240470,0.046503,-3.723145,-1.678467,-10.925293
4.925009,0.121547,0.699346,10.111772,0.102470,-0.312320,0.111767,-4.272461,-1.892090,-11.596680
4.935103,0.104183,0.677192,10.060878,0.085106,-0.334474,0.060873,-3.845215,-1.678467,-12.420654
4.945201,0.117356,0.635878,10.036329,0.098278,-0.375788,0.036324,-3.173828,-1.617432,-13.000488
4.955338,0.128134,0.621508,9.958491,0.109056,-0.390158,-0.041514,-2.868652,-1.678467,-14.831543
4.965435,0.080832,0.617316,10.045909,0.061754,-0.394350,0.045904,-3.082275,-1.800537,-15.930176
4.975534,-0.038320,0.652643,10.159673,-0.057398,-0.359023,0.159668,-3.540039,-2.197266,-16.998291
4.985630,-0.002395,0.679587,9.960287,-0.021473,-0.332079,-0.039718,-3.997803,-1.983643,-18.066406
4.995762,-0.064666,0.721500,10.052496,-0.083743,-0.290166,0.052490,-3.967285,-2.319336,-18.157959
5.005859,-0.166454,0.645458,10.159673,-0.185531,-0.366208,0.159668,-3.479004,-1.922607,-17.089844
5.015957,-0.070653,0.701741,10.012379,-0.089731,-0.309925,0.012374,-3.784180,-2.014160,-16.174316
5.026046,-0.108973,0.711920,10.011780,-0.128051,-0.299746,0.011775,-3.265381,-1.770020,-14.282227
5.036135,-0.143701,0.577200,9.992620,-0.162779,-0.434466,-0.007385,-2.716064,-1.251221,-13.336182
5.046227,-0.162861,0.613724,10.017169,-0.181939,-0.397942,0.017164,-1.403809,-1.220703,-12.481689
5.056318,-0.101788,0.693358,9.989028,-0.120866,-0.318308,-0.010978,0.030518,-0.610352,-11.016846
5.066409,-0.122146,0.691562,9.999207,-0.141224,-0.320104,-0.000799,0.762939,-0.579834,-10.070801
5.076495,-0.129331,0.582589,10.033336,-0.148409,-0.429077,0.033330,2.166748,-0.030518,-7.659912
5.086581,0.089813,0.692759,9.915980,0.070736,-0.318906,-0.084026,2.655029,0.518799,-6.591797
5.096667,0.131127,0.769999,9.967473,0.112050,-0.241667,-0.032533,3.479004,0.457764,-5.157471
5.106753,0.243693,0.677192,9.924362,0.224616,-0.334474,-0.075643,3.112793,0.610352,-4.760742
5.116839,0.178429,0.685574,10.078242,0.159351,-0.326091,0.078237,2.349854,0.366211,-4.852295
5.126931,0.220342,0.488584,10.139914,0.201264,-0.523082,0.139909,2.319336,0.244141,-5.920410
5.137024,0.293390,0.586780,10.093810,0.274312,-0.424886,0.093805,1.892090,0.183105,-6.896973
5.147116,0.070054,0.446072,10.081835,0.050977,-0.565593,0.081829,1.312256,-0.488281,-8.941650
5.157208,-0.022753,0.454455,10.032138,-0.041830,-0.557211,0.032133,1.770020,-0.457764,-9.735107
5.167330,-0.065863,0.483794,10.153087,-0.084941,-0.527872,0.153081,0.885010,-0.885010,-11.474609
5.177422,-0.265248,0.492177,10.127340,-0.284326,-0.519489,0.127335,1.220703,-0.915527,-12.207031
5.187515,-0.283211,0.474214,10.144704,-0.302289,-0.537452,0.144699,1.129150,-0.946045,-13.305664
5.197607,-0.416733,0.580792,10.063872,-0.435811,-0.430874,0.063867,1.586914,-0.946045,-13.366699
5.207703,-0.498763,0.655038,10.084828,-0.517840,-0.356628,0.084823,2.105713,-0.732422,-12.908936
5.217797,-0.691562,0.728685,10.124945,-0.710639,-0.282981,0.124940,3.509521,-0.152588,-9.918213
5.227897,-0.543071,0.852627,9.924961,-0.562148,-0.159039,-0.075044,3.814697,0.305176,-7.385254
5.237987,-0.725691,0.840053,10.090816,-0.744768,-0.171613,0.090811,4.180908,0.976562,-1.007080
5.248073,-0.608934,0.892744,10.014774,-0.628011,-0.118922,0.014769,4.241943,1.220703,2.563477
5.258160,-0.501158,0.926873,9.993818,-0.520235,-0.084793,-0.006188,2.746582,1.525879,9.277344
5.268248,-0.436492,0.816702,10.051897,-0.455570,-0.194964,0.051892,2.288818,1.617432,11.932373
5.278335,-0.250878,0.794548,10.016570,-0.269956,-0.217118,0.016565,1.586914,1.892090,14.129639
5.288424,-0.165855,0.755030,10.034533,-0.184933,-0.256636,0.034528,0.366211,1.708984,16.662598
5.298511,-0.024549,0.788560,10.026151,-0.043626,-0.223106,0.026145,-1.068115,1.495361,17.211914
5.308614,0.085023,0.844843,9.982441,0.065946,-0.166823,-0.017564,-4.028320,0.915527,17.181396
5.318702,0.198787,0.705932,10.030941,0.179709,-0.305734,0.030935,-5.126953,0.793457,16.754150
5.328793,0.294587,0.563428,9.997410,0.275510,-0.448237,-0.002595,-4.425049,0.793457,15.502930
5.338881,0.358654,0.602347,10.159673,0.339577,-0.409318,0.159668,-4.943848,0.640869,14.221191
5.348971,0.510738,0.513133,9.947714,0.491660,-0.498533,-0.052292,-5.249023,0.335693,12.573242
5.359058,0.423918,0.406555,10.077643,0.404841,-0.605111,0.077638,-6.011963,-0.610352,7.904053
5.369149,0.359253,0.293390,10.124945,0.340175,-0.718276,0.124940,-5.218506,-0.549316,5.279541
5.379236,0.461640,0.383203,9.968670,0.442562,-0.628463,-0.031335,-3.417969,-0.366211,-0.305176
5.389328,0.285606,0.475411,10.095007,0.266529,-0.536254,0.095002,-2.685547,-0.579834,-3.082275
5.399416,0.147892,0.386796,10.121353,0.128815,-0.624870,0.121347,-0.610352,-0.518799,-6.988525
5.409506,0.214953,0.484393,9.923763,0.195875,-0.527273,-0.076242,0.823975,-0.518799,-8.300781
5.419595,-0.098795,0.562231,10.158475,-0.117872,-0.449435,0.158470,1.251221,-0.488281,-9.094238
5.429685,-0.038320,0.683778,9.981244,-0.057398,-0.327888,-0.018761,3.051758,-0.061035,-9.185791
5.439774,-0.120350,0.775388,10.081236,-0.139427,-0.236278,0.081231,3.234863,0.030518,-8.911133
5.449865,-0.184417,0.723296,10.024354,-0.203494,-0.288370,0.024349,2.838135,0.030518,-8.087158
5.459955,-0.338895,0.761017,10.120155,-0.357973,-0.250648,0.120150,1.586914,-0.152588,-7.629395
5.470043,-0.392184,0.775986,10.043514,-0.411262,-0.235680,0.043509,1.678467,-0.122070,-6.134033
5.480133,-0.450264,0.884361,10.060878,-0.469341,-0.127305,0.060873,1.068115,-0.091553,-5.035400
5.490219,-0.462239,0.850831,10.051897,-0.481316,-0.160835,0.051892,1.190186,0.000000,-3.570557
5.500308,-0.453856,0.914897,10.023755,-0.472934,-0.096768,0.023750,0.366211,0.183105,0.213623
5.510397,-0.355062,0.885558,9.927955,-0.374139,-0.126107,-0.072051,0.610352,0.518799,2.319336
5.520489,-0.214953,0.807122,10.031539,-0.234031,-0.204544,0.031534,0.701904,0.732422,6.134033
5.530581,-0.190404,0.887355,10.029743,-0.209482,-0.124311,0.029738,0.366211,0.793457,7.629395
5.540681,-0.054487,0.762215,9.994417,-0.073564,-0.249451,-0.005589,0.030518,1.190186,9.735107
5.550778,-0.100591,0.681383,10.108779,-0.119668,-0.330283,0.108773,0.305176,1.190186,10.223389
5.560877,-0.004191,0.699346,10.095007,-0.023269,-0.312320,0.095002,-0.061035,1.525879,10.711670
5.570976,0.055085,0.630489,10.125544,0.036008,-0.381177,0.125539,-0.244141,0.854492,10.498047
5.581123,0.097597,0.637075,10.023755,0.078520,-0.374591,0.023750,-0.366211,1.190186,10.253906
5.591220,0.244891,0.594564,9.990824,0.225813,-0.417102,-0.009181,-0.061035,1.770020,9.368896
5.601316,0.214354,0.586181,10.029144,0.195277,-0.425485,0.029139,-0.122070,1.281738,8.850098
5.611415,0.220941,0.509540,10.177635,0.201863,-0.502125,0.177630,0.335693,1.678467,7.568359
5.621513,0.390388,0.483195,10.005194,0.371311,-0.528471,0.005189,0.366211,1.770020,6.744385
5.631599,0.307161,0.469424,10.083032,0.288084,-0.542242,0.083027,0.396729,1.892090,4.516602
5.641695,0.248483,0.376617,10.121951,0.229406,-0.635049,0.121946,0.518799,1.739502,2.960205
5.651785,0.217348,0.359852,10.093810,0.198270,-0.651814,0.093805,1.037598,1.800537,1.220703
5.661876,0.099393,0.489183,10.095606,0.080316,-0.522483,0.095601,0.976562,0.671387,-2.166748
5.671967,0.055085,0.407752,9.991423,0.036008,-0.603914,-0.008583,0.915527,0.030518,-3.448486
5.682058,0.166454,0.516725,9.865085,0.147376,-0.494940,-0.134920,0.030518,-2.349854,-5.706787
5.692149,-0.007185,0.662223,9.977651,-0.026263,-0.349443,-0.022354,1.800537,-1.190186,-6.469727
5.702239,-0.071252,0.591570,10.029743,-0.090329,-0.420096,0.029738,1.068115,-1.373291,-7.232666
5.712329,-0.234113,0.732277,10.041718,-0.253191,-0.279389,0.041713,1.220703,-1.068115,-7.263184
5.722421,-0.219743,0.746647,10.017169,-0.238821,-0.265018,0.017164,0.885010,-0.885010,-6.866455
5.732519,-0.252076,0.810714,9.992021,-0.271153,-0.200952,-0.007984,1.068115,-0.488281,-6.134033
5.742617,-0.271835,0.836461,10.025552,-0.290912,-0.175205,0.025546,0.793457,-0.427246,-5.554199
5.752714,-0.331710,0.861608,10.027348,-0.350788,-0.150058,0.027343,0.640869,0.091553,-3.692627
5.762811,-0.344883,0.847837,10.026749,-0.363960,-0.163829,0.026744,0.610352,0.061035,-2.563477
5.772909,-0.360450,0.847238,10.032138,-0.379528,-0.164428,0.032133,-0.183105,0.213623,-0.152588
5.783005,-0.292791,0.805325,10.013577,-0.311869,-0.206341,0.013571,-0.335693,0.091553,0.671387
5.793101,-0.293390,0.784369,10.014774,-0.312467,-0.227297,0.014769,0.091553,0.244141,2.014160
5.803194,-0.261656,0.809517,10.025552,-0.280733,-0.202149,0.025546,0.061035,0.305176,2.349854
5.813290,-0.246687,0.706531,10.073452,-0.265765,-0.305135,0.073447,-0.183105,0.183105,2.441406
5.823388,-0.182620,0.684976,9.992620,-0.201698,-0.326690,-0.007385,0.030518,0.427246,2.624512
5.833475,-0.146096,0.696352,10.014774,-0.165174,-0.315314,0.014769,0.457764,0.488281,2.593994
5.843564,-0.096400,0.700543,10.106982,-0.115477,-0.311123,0.106977,1.220703,0.549316,2.075195
5.853654,-0.046703,0.706531,10.022558,-0.065780,-0.305135,0.022553,1.464844,0.671387,1.617432
5.863744,-0.101190,0.638871,9.982441,-0.120267,-0.372794,-0.017564,1.525879,0.549316,0.091553
5.873834,-0.099393,0.691562,10.053693,-0.118471,-0.320104,0.053688,1.495361,0.305176,-0.823975
5.883924,-0.113763,0.707130,10.036329,-0.132841,-0.304536,0.036324,1.464844,0.244141,-1.770020
5.894014,-0.177830,0.723895,10.092014,-0.196908,-0.287771,0.092008,1.617432,0.122070,-3.295898
5.904105,-0.204774,0.750240,10.073452,-0.223852,-0.261426,0.073447,1.373291,0.030518,-3.692627
5.914195,-0.234113,0.769400,9.939930,-0.253191,-0.242266,-0.060075,0.427246,-0.091553,-3.723145
5.924285,-0.269440,0.824485,10.108180,-0.288517,-0.187180,0.108175,-0.152588,-0.305176,-3.417969
5.934376,-0.239502,0.866997,10.051897,-0.258579,-0.144669,0.051892,-1.251221,-0.396729,-1.739502
5.944474,-0.167053,0.859812,9.982441,-0.186130,-0.151854,-0.017564,-1.617432,-0.305176,-0.640869
5.954567,-0.174836,0.817300,10.058483,-0.193914,-0.194365,0.058478,-1.983643,-0.366211,0.213623
5.964664,-0.183219,0.713117,10.027348,-0.202297,-0.298549,0.027343,-1.495361,-0.183105,0.915527
5.974761,-0.125140,0.622106,10.037527,-0.144217,-0.389560,0.037522,-2.044678,-0.366211,0.671387
5.984856,-0.236508,0.661025,10.052496,-0.255586,-0.350640,0.052490,-0.701904,-0.091553,-0.488281
5.994950,-0.144300,0.683179,10.020163,-0.163377,-0.328487,0.020158,-1.495361,-0.335693,-0.946045
6.005048,-0.193398,0.662822,10.118958,-0.212475,-0.348844,0.118952,-0.549316,-0.213623,-1.251221
6.015145,-0.144899,0.789159,10.044113,-0.163976,-0.222507,0.044108,-1.068115,-0.244141,-1.190186
6.025242,-0.183219,0.772993,10.024953,-0.202297,-0.238673,0.024948,-0.610352,-0.122070,-0.976562
6.035333,-0.208965,0.753234,9.985435,-0.228043,-0.258432,-0.014570,-0.457764,0.000000,-0.244141
6.045436,-0.177830,0.684377,10.006990,-0.196908,-0.327289,0.006985,-0.671387,0.000000,0.183105
6.055528,-0.192200,0.701142,10.114167,-0.211278,-0.310524,0.114162,-0.732422,-0.091553,0.549316
6.065619,-0.049098,0.651445,10.091415,-0.068175,-0.360221,0.091410,-0.671387,0.030518,0.488281
6.075709,-0.144300,0.727487,10.012978,-0.163377,-0.284179,0.012973,-0.640869,-0.091553,0.061035
6.085800,-0.188009,0.682581,10.133328,-0.207087,-0.329085,0.133322,-0.671387,-0.030518,-0.183105
6.095902,-0.014370,0.702339,10.058483,-0.033448,-0.309326,0.058478,0.091553,0.427246,-0.640869
6.105992,0.008383,0.611927,10.088421,-0.010695,-0.399738,0.088416,-0.671387,-0.549316,-0.823975
6.116096,-0.062271,0.736469,9.970466,-0.081348,-0.275197,-0.029539,0.305176,0.793457,-0.854492
6.126198,-0.026345,0.690364,10.027348,-0.045423,-0.321301,0.027343,-0.213623,0.122070,-0.762939
6.136286,-0.002994,0.762215,9.981244,-0.022071,-0.249451,-0.018761,-0.030518,0.213623,-0.610352
6.146378,-0.120350,0.673000,10.103390,-0.139427,-0.338665,0.103385,-1.708984,-0.671387,-0.671387
6.156464,0.029938,0.729882,9.996812,0.010860,-0.281784,-0.003194,-1.678467,-0.640869,-0.793457
6.166552,-0.115560,0.595761,10.114766,-0.134637,-0.415905,0.114761,-3.143311,-0.793457,-1.464844
6.176665,0.062869,0.765807,9.983639,0.043792,-0.245858,-0.016366,-4.028320,-0.579834,-1.525879
6.186759,0.003593,0.749042,10.044113,-0.015485,-0.262623,0.044108,-4.608154,-1.068115,-1.892090
6.196846,0.019160,0.641865,10.079440,0.000083,-0.369801,0.079434,-5.310059,0.305176,-2.166748
6.206933,-0.047900,0.678389,10.135124,-0.066978,-0.333277,0.135119,-4.974365,1.098633,-2.410889
6.217020,-0.083227,0.650847,10.143506,-0.102304,-0.360819,0.143501,-3.692627,4.302979,-2.288818
6.227107,-0.258662,0.498763,10.187814,-0.277740,-0.512903,0.187809,-2.227783,5.065918,-2.380371
6.237194,-0.305365,0.358654,10.112371,-0.324443,-0.653012,0.112366,-0.762939,5.859375,-1.892090
6.247281,-0.346679,0.519120,9.962682,-0.365757,-0.492545,-0.037323,-0.915527,4.272461,-1.953125
6.257369,-0.498164,0.517324,10.044113,-0.517242,-0.494342,0.044108,-1.220703,2.471924,-1.892090
6.267457,-0.543071,0.516725,9.960287,-0.562148,-0.494940,-0.039718,-3.173828,-2.441406,-1.434326
6.277547,-0.582589,0.499362,10.016570,-0.601666,-0.512304,0.016565,-4.150391,-4.699707,-1.220703
6.287638,-0.521516,0.579595,9.991423,-0.540593,-0.432071,-0.008583,-5.065918,-7.293701,-0.274658
6.297724,-0.537682,0.475411,10.244696,-0.556759,-0.536254,0.244691,-0.885010,-4.364014,0.244141
6.307812,-0.424517,0.583786,10.020163,-0.443595,-0.427880,0.020158,0.244141,-3.753662,2.349854
6.317898,-0.295785,0.567021,9.992021,-0.314862,-0.444645,-0.007984,2.288818,-2.136230,3.448486
6.327987,-0.306563,0.660427,10.090816,-0.325640,-0.351239,0.090811,3.631592,-1.068115,4.669189
6.338080,-0.233514,0.511935,10.045909,-0.252592,-0.499730,0.045904,5.493164,0.366211,6.469727
6.348177,-0.243693,0.565225,10.060878,-0.262771,-0.446441,0.060873,7.537842,1.068115,6.927490
6.358274,-0.255070,0.794548,10.102791,-0.274147,-0.217118,0.102786,9.979248,2.258301,7.385254
6.368370,-0.258063,0.881966,10.118359,-0.277141,-0.129700,0.118353,8.544922,2.014160,7.232666
6.378463,-0.219144,0.878972,9.987830,-0.238222,-0.132694,-0.012175,5.828857,1.525879,7.293701
6.388576,-0.192799,0.913101,10.077643,-0.211877,-0.098565,0.077638,5.126953,1.556396,7.720947
6.398671,-0.149090,0.962798,10.064471,-0.168167,-0.048868,0.064466,4.180908,1.434326,8.575439
6.408767,-0.075443,0.910107,9.970466,-0.094521,-0.101558,-0.029539,2.868652,1.312256,9.063721
6.418859,-0.016765,0.872985,10.008787,-0.035843,-0.138681,0.008781,1.251221,1.098633,9.307861
6.428954,0.071252,0.767005,10.065070,0.052174,-0.244661,0.065064,-0.518799,0.885010,8.850098
6.439043,0.076042,0.670007,10.086026,0.056964,-0.341659,0.086021,-0.701904,0.793457,7.812500
6.449132,0.093406,0.587977,10.059681,0.074328,-0.423689,0.059676,-0.732422,0.427246,4.516602
6.459221,0.055085,0.451461,10.038724,0.036008,-0.560205,0.038719,-1.190186,0.091553,2.258301
6.469310,0.045505,0.474813,10.045909,0.026428,-0.536853,0.045904,-0.976562,-0.427246,-2.380371
6.479399,0.010778,0.520917,10.040521,-0.008300,-0.490749,0.040515,-0.640869,-0.549316,-4.364014
6.489485,-0.062271,0.578996,10.116563,-0.081348,-0.432670,0.116557,-0.579834,-0.549316,-6.225586
6.499574,-0.156874,0.541873,10.050699,-0.175951,-0.469793,0.050694,-0.274658,-0.671387,-9.185791
6.509663,-0.214354,0.655038,9.945319,-0.233432,-0.356628,-0.054687,0.366211,-0.671387,-10.009766
6.519752,-0.294587,0.644859,10.066267,-0.313665,-0.366807,0.066262,0.305176,-0.915527,-10.620117
6.529840,-0.426912,0.811313,10.000404,-0.445990,-0.200353,0.000399,0.762939,-0.701904,-10.040283
6.539937,-0.464035,0.805924,10.005793,-0.483113,-0.205742,0.005788,0.701904,-0.610352,-7.690430
6.550033,-0.542472,0.826880,10.056687,-0.561549,-0.184785,0.056682,1.251221,-0.366211,-6.164551
6.560130,-0.462239,0.856219,10.006990,-0.481316,-0.155446,0.006985,1.831055,-0.030518,-4.547119
6.570225,-0.420925,0.826282,9.999805,-0.440002,-0.185384,-0.000200,2.838135,0.335693,-1.678467
6.580320,-0.393382,0.824485,10.014175,-0.412459,-0.187180,0.014170,3.021240,0.549316,-0.518799
6.590413,-0.317340,0.806523,9.995614,-0.336418,-0.205143,-0.004391,3.601074,0.823975,1.373291
6.600506,-0.275427,0.715512,10.044712,-0.294505,-0.296154,0.044707,4.241943,1.068115,2.075195
6.610599,-0.246088,0.649050,10.055490,-0.265166,-0.362616,0.055484,3.082275,0.793457,2.471924
6.620696,-0.199385,0.662822,10.078841,-0.218463,-0.348844,0.078836,2.166748,0.579834,2.349854
6.630792,-0.189207,0.711321,10.096205,-0.208284,-0.300345,0.096200,1.861572,0.396729,2.227783
6.640880,-0.135319,0.755629,10.062076,-0.154396,-0.256037,0.062071,1.159668,0.274658,1.800537
6.650970,-0.081431,0.802332,9.955497,-0.100508,-0.209334,-0.044508,1.098633,0.305176,1.556396
6.661060,-0.084424,0.748444,10.080038,-0.103502,-0.263222,0.080033,0.457764,0.091553,0.640869
6.671149,-0.068857,0.680186,9.975855,-0.087934,-0.331480,-0.024150,0.610352,0.000000,-0.061035
6.681238,-0.136516,0.728685,10.102791,-0.155594,-0.282981,0.102786,0.213623,-0.122070,-1.861572
6.691329,-0.164059,0.667612,10.056687,-0.183136,-0.344054,0.056682,0.061035,-0.305176,-2.716064
6.701418,-0.250878,0.752635,10.148297,-0.269956,-0.259031,0.148291,0.000000,-0.488281,-3.601074
6.711509,-0.199984,0.691562,10.015373,-0.219062,-0.320104,0.015368,-0.122070,-0.396729,-3.387451
6.721600,-0.225132,0.816702,9.990824,-0.244209,-0.194964,-0.009181,0.274658,-0.244141,-2.807617
6.731692,-0.098795,0.798739,10.028546,-0.117872,-0.212927,0.028540,-0.305176,-0.091553,-0.793457
6.741786,-0.069456,0.761017,10.093810,-0.088533,-0.250648,0.093805,-0.061035,0.030518,0.122070
6.751885,-0.067061,0.673000,9.956695,-0.086138,-0.338665,-0.043310,0.122070,0.183105,1.586914
6.761981,-0.107776,0.696951,10.105186,-0.126853,-0.314715,0.105181,0.183105,0.213623,1.861572
6.772074,-0.110171,0.628693,10.078242,-0.129248,-0.382973,0.078237,0.244141,0.213623,1.586914
6.782171,-0.135917,0.720302,9.960287,-0.154995,-0.291364,-0.039718,0.457764,0.244141,1.312256
6.792268,-0.170046,0.794548,10.046508,-0.189124,-0.217118,0.046503,0.122070,0.122070,0.946045
6.802361,-0.093406,0.603545,10.009385,-0.112483,-0.408121,0.009380,0.549316,0.152588,0.396729
6.812458,-0.178429,0.818498,10.034533,-0.197506,-0.193168,0.034528,0.091553,0.030518,0.152588
6.822555,-0.113165,0.620909,10.059082,-0.132242,-0.390757,0.059077,0.030518,-0.061035,0.000000
6.832652,-0.173639,0.629291,10.159673,-0.192716,-0.382374,0.159668,0.030518,-0.152588,-0.030518
6.842741,-0.102986,0.596959,10.106982,-0.122063,-0.414707,0.106977,-0.030518,-0.183105,-0.152588
6.852832,-0.180824,0.578996,10.147099,-0.199902,-0.432670,0.147094,0.061035,-0.213623,-0.122070
6.862923,-0.195793,0.507145,10.039323,-0.214870,-0.504520,0.039318,0.213623,-0.091553,0.030518
6.873014,-0.205373,0.780178,10.159074,-0.224450,-0.231488,0.159069,0.061035,0.122070,0.793457
6.883104,-0.129930,0.701142,9.998608,-0.149007,-0.310524,-0.001397,0.030518,0.244141,1.586914
6.893195,-0.186812,0.698747,10.062076,-0.205889,-0.312919,0.062071,0.061035,0.366211,3.234863
6.903285,-0.135319,0.728086,10.091415,-0.154396,-0.283580,0.091410,0.274658,0.457764,3.906250
6.913375,-0.119751,0.631686,10.086026,-0.138829,-0.379979,0.086021,0.244141,0.579834,4.669189
6.923465,-0.055085,0.637075,10.120754,-0.074163,-0.374591,0.120749,0.244141,0.518799,4.821777
6.933556,-0.073048,0.595162,10.090816,-0.092126,-0.416503,0.090811,0.335693,0.396729,5.004883
6.943650,-0.102387,0.714913,10.137519,-0.121465,-0.296753,0.137514,-0.122070,0.518799,5.279541
6.953746,-0.074844,0.586780,10.062076,-0.093922,-0.424886,0.062071,0.152588,0.518799,5.340576
6.963852,-0.101788,0.745450,10.106384,-0.120866,-0.266216,0.106378,0.091553,0.610352,5.889893
6.973952,0.005389,0.723296,9.989626,-0.013689,-0.288370,-0.010379,-0.091553,0.640869,6.256104
6.984048,-0.029938,0.732876,10.084828,-0.049015,-0.278790,0.084823,-0.030518,0.701904,6.958008
6.994145,-0.007185,0.689766,10.142908,-0.026263,-0.321900,0.142902,0.091553,0.640869,7.263184
7.004239,0.012574,0.651445,10.101594,-0.006504,-0.360221,0.101588,-0.091553,0.732422,7.385254
7.014337,0.017364,0.558040,10.093211,-0.001714,-0.453626,0.093206,0.213623,0.457764,7.019043
7.024435,0.085622,0.737666,10.109377,0.066544,-0.274000,0.109372,-0.274658,0.732422,6.805420
7.034532,0.156275,0.663420,10.016570,0.137197,-0.348245,0.016565,0.091553,0.579834,6.378174
7.044635,0.127535,0.744252,10.071656,0.108457,-0.267414,0.071651,0.061035,0.518799,6.317139
7.054727,0.174238,0.762215,9.997410,0.155160,-0.249451,-0.002595,0.000000,0.549316,6.500244
7.064817,0.182021,0.637075,10.139315,0.162944,-0.374591,0.139310,-0.335693,0.427246,6.469727
7.074908,0.205373,0.615520,10.053094,0.186295,-0.396146,0.053089,0.091553,0.640869,5.981445
7.084998,0.131726,0.604144,10.017768,0.112649,-0.407522,0.017763,0.122070,0.671387,5.249023
7.095090,0.092208,0.604144,10.079440,0.073131,-0.407522,0.079434,-0.305176,0.518799,4.119873
7.105180,0.050295,0.605940,10.056088,0.031218,-0.405726,0.056083,-0.152588,0.305176,1.525879
7.115270,0.097597,0.467029,9.993219,0.078520,-0.544637,-0.006786,0.183105,0.183105,0.061035
7.125360,0.040117,0.628094,10.148297,0.021039,-0.383572,0.148291,0.030518,-0.335693,-2.746582
7.135451,0.058079,0.599952,10.121951,0.039002,-0.411713,0.121946,0.152588,-0.579834,-3.936768
7.145547,0.075443,0.523911,10.069860,0.056366,-0.487755,0.069854,0.152588,-0.518799,-5.706787
7.155644,0.001198,0.747845,9.993818,-0.017880,-0.263821,-0.006188,0.000000,-0.488281,-6.317139
7.165743,0.023351,0.656834,9.946516,0.004274,-0.354832,-0.053489,0.427246,-0.518799,-6.683350
7.175840,-0.118553,0.631686,10.143506,-0.137631,-0.379979,0.143501,-0.244141,-0.854492,-7.507324
7.185939,0.004191,0.654439,10.163864,-0.014886,-0.357227,0.163859,-0.213623,-0.946045,-7.904053
7.196033,-0.150287,0.611927,10.159673,-0.169365,-0.399738,0.159668,-0.122070,-0.854492,-8.422852
7.206126,-0.161664,0.626298,9.995015,-0.180741,-0.385368,-0.004990,-0.061035,-0.854492,-8.483887
7.216224,-0.289199,0.714315,10.050699,-0.308276,-0.297351,0.050694,-0.061035,-0.823975,-8.117676
7.226317,-0.220342,0.642464,9.911788,-0.239419,-0.369202,-0.088217,-0.213623,-0.732422,-7.720947
7.236414,-0.211959,0.768801,10.080038,-0.231037,-0.242865,0.080033,0.152588,-0.732422,-7.385254
7.246502,-0.181423,0.649050,10.007589,-0.200500,-0.362616,0.007584,0.274658,-0.518799,-6.774902
7.256589,-0.219743,0.739462,10.015972,-0.238821,-0.272204,0.015966,0.335693,-0.610352,-6.805420
7.266676,-0.208367,0.703537,9.941127,-0.227444,-0.308129,-0.058878,0.701904,-0.610352,-6.835938
7.276762,-0.166454,0.888552,10.051897,-0.185531,-0.123114,0.051892,-0.122070,-0.701904,-6.713867
7.286849,-0.180225,0.692759,10.103390,-0.199303,-0.318906,0.103385,0.061035,-0.854492,-6.225586
7.296936,-0.094603,0.887355,10.117760,-0.113681,-0.124311,0.117755,-0.213623,-0.671387,-5.889893
7.307023,-0.062869,0.678389,10.081236,-0.081947,-0.333277,0.081231,0.366211,-0.671387,-5.004883
7.317123,-0.067659,0.870590,10.056088,-0.086737,-0.141076,0.056083,-0.030518,-0.610352,-4.455566
7.327214,-0.014969,0.707728,9.983040,-0.034046,-0.303938,-0.016965,0.091553,-0.305176,-4.028320
7.337300,-0.091011,0.925076,10.080038,-0.110088,-0.086590,0.080033,0.091553,-0.335693,-3.692627
7.347396,-0.198188,0.807720,10.114167,-0.217265,-0.203945,0.114162,-0.122070,-0.335693,-3.509521
7.357491,-0.022154,0.884960,9.953102,-0.041231,-0.126706,-0.046903,-0.061035,-0.457764,-3.173828
7.367588,-0.138911,0.897534,10.013577,-0.157989,-0.114132,0.013571,0.396729,-0.183105,-3.051758
7.377693,-0.232317,0.706531,10.086625,-0.251394,-0.305135,0.086619,0.610352,-0.091553,-3.204346
7.387819,-0.231119,0.928070,9.963281,-0.250197,-0.083596,-0.036724,-0.030518,-0.152588,-3.143311
7.397910,-0.311951,0.789159,9.971664,-0.331029,-0.222507,-0.028341,0.518799,-0.061035,-2.655029
7.408004,-0.296384,0.921484,10.074650,-0.315461,-0.090182,0.074644,0.152588,-0.183105,-1.312256
7.418097,-0.149090,0.922083,9.939331,-0.168167,-0.089583,-0.060674,0.030518,0.091553,-0.152588
7.428192,-0.249681,0.892744,10.019564,-0.268758,-0.118922,0.019559,-0.183105,0.091553,1.922607
7.438284,-0.183818,0.893941,10.224338,-0.202895,-0.117725,0.224333,-0.274658,0.091553,2.777100
7.448373,-0.214354,0.758622,10.205777,-0.233432,-0.253043,0.205772,0.091553,0.244141,4.058838
7.458458,-0.246687,0.818498,10.254276,-0.265765,-0.193168,0.254271,-0.457764,0.152588,4.486084
7.468546,-0.195194,0.821492,10.271640,-0.214272,-0.190174,0.271635,-0.366211,0.396729,5.065918
7.478633,-0.233514,0.813109,10.148297,-0.252592,-0.198557,0.148291,-0.335693,0.488281,6.866455
7.488722,-0.247286,0.854423,10.138716,-0.266363,-0.157243,0.138711,0.244141,0.732422,8.026123
7.498807,-0.259860,0.916694,10.148297,-0.278937,-0.094972,0.148291,-0.183105,1.007080,10.864258
7.508895,-0.191003,0.928669,10.119556,-0.210080,-0.082997,0.119551,0.061035,1.068115,12.145996
7.518981,-0.122146,0.855022,10.009984,-0.141224,-0.156644,0.009979,0.183105,1.281738,13.488770
7.529070,-0.077239,0.884361,10.021360,-0.096317,-0.127305,0.021355,0.091553,1.159668,13.519287
7.539156,-0.075443,0.802332,10.060878,-0.094521,-0.209334,0.060873,-0.488281,1.159668,13.336182
7.549249,-0.048499,0.737067,10.162667,-0.067577,-0.274599,0.162661,-0.305176,0.915527,12.573242
7.559343,0.006586,0.665815,10.130933,-0.012491,-0.345850,0.130927,-0.183105,0.946045,12.176514
7.569437,-0.022154,0.699944,10.211166,-0.041231,-0.311721,0.211160,-0.122070,0.671387,11.016846
7.579530,0.017364,0.689766,10.167457,-0.001714,-0.321900,0.167451,0.000000,0.701904,10.437012
7.589644,0.037722,0.637075,10.130933,0.018644,-0.374591,0.130927,-0.152588,0.579834,9.338379
7.599734,-0.020956,0.696352,10.174043,-0.040034,-0.315314,0.174038,-0.183105,0.488281,8.544922
7.609828,0.017364,0.665815,10.123748,-0.001714,-0.345850,0.123742,-0.366211,0.549316,7.324219
7.619923,0.036524,0.647853,9.992021,0.017447,-0.363813,-0.007984,-0.396729,0.518799,6.774902
7.630018,0.027543,0.650847,9.975256,0.008465,-0.360819,-0.024749,0.488281,0.671387,6.378174
7.640207,-0.027543,0.670007,10.129136,-0.046620,-0.341659,0.129131,0.091553,0.427246,5.645752
7.650296,0.080233,0.653840,10.100396,0.061156,-0.357825,0.100391,0.061035,0.457764,5.340576
7.660385,0.087418,0.536484,10.123149,0.068341,-0.475181,0.123144,-0.030518,0.244141,4.486084
7.670473,0.144899,0.537083,10.008787,0.125821,-0.474583,0.008781,-0.244141,0.427246,4.150391
7.680562,0.016765,0.577200,9.873468,-0.002312,-0.434466,-0.126537,0.366211,0.457764,3.509521
7.690650,0.032333,0.675994,10.078841,0.013255,-0.335672,0.078836,0.518799,0.213623,3.204346
7.700738,0.158071,0.653840,10.030941,0.138994,-0.357825,0.030935,0.122070,0.152588,2.960205
7.710826,0.096400,0.671204,10.104587,0.077322,-0.340462,0.104582,0.366211,0.152588,2.288818
7.720915,0.105381,0.658630,10.038126,0.086303,-0.353035,0.038120,0.732422,0.091553,1.983643
7.731004,0.098795,0.679587,10.093810,0.079717,-0.332079,0.093805,0.274658,0.030518,1.342773
7.741165,0.223336,0.694556,10.046508,0.204258,-0.317110,0.046503,0.427246,0.122070,1.007080
7.751258,0.173639,0.672402,10.078841,0.154561,-0.339264,0.078836,0.274658,0.091553,-0.640869
7.761354,0.058678,0.670605,9.984238,0.039600,-0.341060,-0.015768,0.457764,-0.183105,-1.892090
7.771450,0.162263,0.644859,9.927356,0.143185,-0.366807,-0.072649,0.183105,-0.091553,-3.295898
7.781546,-0.088616,0.758024,10.150093,-0.107693,-0.253642,0.150087,0.030518,-0.549316,-5.554199
7.791654,-0.070054,0.759221,10.035132,-0.089132,-0.252445,0.035127,0.030518,-0.579834,-5.981445
7.801744,-0.156275,0.729882,10.002799,-0.175353,-0.281784,0.002794,0.305176,-0.518799,-4.852295
7.811835,-0.092807,0.856219,9.975855,-0.111885,-0.155446,-0.024150,0.183105,-0.335693,-3.692627
7.821931,-0.219144,0.882565,10.133926,-0.238222,-0.129101,0.133921,0.091553,0.000000,-0.457764
7.832039,0.000000,0.721500,10.012978,-0.019078,-0.290166,0.012973,-0.183105,0.213623,1.068115
7.842240,-0.076641,0.767005,10.005194,-0.095718,-0.244661,0.005189,-0.213623,0.396729,2.685547
7.852331,-0.014969,0.741857,10.003398,-0.034046,-0.269809,0.003393,0.213623,0.457764,2.929688
7.862421,-0.020358,0.802332,9.971065,-0.039435,-0.209334,-0.028940,0.366211,0.579834,3.082275
7.872511,0.049697,0.589774,10.018367,0.030619,-0.421892,0.018361,-0.061035,0.244141,2.868652
7.882601,-0.031135,0.592767,10.138716,-0.050213,-0.418898,0.138711,-0.183105,0.030518,2.441406
7.892687,0.001796,0.673599,10.121951,-0.017281,-0.338067,0.121946,0.000000,0.152588,1.983643
7.902777,-0.182620,0.675994,10.042317,-0.201698,-0.335672,0.042312,-0.244141,0.152588,1.922607
7.912879,-0.099393,0.678389,10.083631,-0.118471,-0.333277,0.083626,0.335693,0.274658,2.532959
7.922972,-0.125140,0.595761,10.056687,-0.144217,-0.415905,0.056682,-0.335693,0.274658,2.868652
7.933062,-0.211360,0.858016,10.107581,-0.230438,-0.153650,0.107576,-0.183105,0.305176,2.990723
7.943194,-0.318538,0.680784,10.075847,-0.337615,-0.330882,0.075842,0.457764,0.091553,2.136230
7.953284,-0.290396,0.767005,9.995015,-0.309474,-0.244661,-0.004990,0.213623,0.122070,1.434326
7.963373,-0.380808,0.807720,10.121353,-0.399886,-0.203945,0.121347,0.335693,-0.091553,-0.488281
7.973463,-0.438887,0.774190,10.115365,-0.457965,-0.237476,0.115360,-0.091553,-0.366211,-1.373291
7.983552,-0.423918,0.806523,10.065070,-0.442996,-0.205143,0.065064,-0.457764,-0.640869,-1.800537
7.993656,-0.451461,0.837658,10.088421,-0.470539,-0.174008,0.088416,-0.030518,-0.457764,-1.251221
8.003741,-0.437690,0.884960,10.033336,-0.456767,-0.126706,0.033330,-0.152588,-0.152588,-0.335693
8.013832,-0.466430,0.901725,9.928553,-0.485508,-0.109941,-0.071452,0.091553,0.183105,2.319336
8.023921,-0.541873,0.880170,10.134525,-0.560951,-0.131496,0.134520,0.122070,0.183105,3.753662
8.034011,-0.372426,0.783770,10.013577,-0.391503,-0.227896,0.013571,0.122070,0.244141,6.378174
8.044139,-0.344883,0.808319,10.130933,-0.363960,-0.203347,0.130927,-0.183105,0.579834,7.324219
8.054229,-0.401166,0.681383,10.074051,-0.420243,-0.330283,0.074046,0.061035,0.732422,8.270264
8.064319,-0.364642,0.678389,10.008188,-0.383719,-0.333277,0.008183,0.549316,0.854492,8.148193
8.074408,-0.316741,0.637674,9.883647,-0.335819,-0.373992,-0.116358,-0.152588,0.518799,6.958008
8.084498,-0.293989,0.541274,10.009984,-0.313066,-0.470391,0.009979,-0.061035,0.579834,6.072998
8.094586,-0.370031,0.476010,10.130334,-0.389108,-0.535656,0.130329,-0.152588,0.396729,4.974365
8.104674,-0.320933,0.525108,10.048304,-0.340010,-0.486558,0.048299,0.244141,0.366211,3.051758
8.114765,-0.423320,0.567021,10.090217,-0.442397,-0.444645,0.090212,0.305176,0.183105,2.105713
8.124854,-0.391586,0.564626,10.020762,-0.410663,-0.447040,0.020756,0.183105,0.030518,0.732422
8.134944,-0.316143,0.515528,9.871672,-0.335220,-0.496138,-0.128334,0.488281,0.183105,0.274658
8.145123,-0.389789,0.662822,10.134525,-0.408867,-0.348844,0.134520,-0.061035,0.000000,-0.335693
8.155221,-0.293989,0.807720,10.188413,-0.313066,-0.203945,0.188408,-0.091553,-0.122070,-0.305176
8.165317,-0.262255,0.765209,10.096804,-0.281332,-0.246457,0.096798,0.122070,-0.152588,-0.030518
8.175413,-0.195793,0.886157,10.030342,-0.214870,-0.125509,0.030337,0.152588,0.030518,1.098633
8.186037,-0.202379,0.877775,9.959689,-0.221457,-0.133891,-0.040317,0.457764,0.274658,1.831055
8.196135,-0.150886,0.908910,10.009385,-0.169964,-0.102756,0.009380,0.396729,0.549316,3.082275
8.206228,-0.038919,0.898132,9.918375,-0.057997,-0.113534,-0.081631,0.640869,0.549316,3.601074
8.216320,-0.047302,0.888552,10.045311,-0.066379,-0.123114,0.045305,0.061035,0.488281,4.425049
8.226416,0.020956,0.784369,10.050101,0.001879,-0.227297,0.050095,0.030518,0.732422,4.577637
8.236513,-0.010778,0.777783,10.051897,-0.029855,-0.233883,0.051892,0.213623,0.640869,4.425049
8.246658,0.026345,0.778980,9.997410,0.007268,-0.232686,-0.002595,0.244141,0.549316,4.119873
8.256753,0.016765,0.717907,9.999805,-0.002312,-0.293759,-0.000200,0.305176,0.488281,3.570557
8.266846,0.062271,0.628693,10.025552,0.043193,-0.382973,0.025546,0.152588,0.427246,2.624512
8.276938,0.119152,0.626298,9.971065,0.100075,-0.385368,-0.028940,0.274658,0.396729,2.563477
8.287030,0.058678,0.662822,10.082433,0.039600,-0.348844,0.082428,-0.030518,0.213623,2.044678
8.297120,0.040715,0.514929,10.035731,0.021638,-0.496737,0.035725,-0.213623,0.183105,1.739502
8.307211,0.014370,0.550256,9.993219,-0.004707,-0.461410,-0.006786,0.244141,0.335693,1.007080
8.317302,-0.054487,0.629291,10.111772,-0.073564,-0.382374,0.111767,-0.213623,0.061035,0.396729
8.327396,-0.009580,0.534089,9.961485,-0.028658,-0.477576,-0.038520,-0.122070,0.000000,-0.488281
8.337487,-0.143102,0.625100,10.102791,-0.162180,-0.386566,0.102786,-0.610352,-0.213623,-3.021240
8.347584,-0.044308,0.553848,9.956096,-0.063385,-0.457818,-0.043909,-0.579834,-0.183105,-4.241943
8.357671,-0.100591,0.509540,9.994417,-0.119668,-0.502125,-0.005589,-0.030518,-0.640869,-6.256104
8.367774,-0.207169,0.758024,10.011182,-0.226247,-0.253642,0.011176,-0.091553,-0.549316,-6.744385
8.377875,-0.289797,0.799338,10.041718,-0.308875,-0.212328,0.041713,-0.122070,-0.518799,-6.744385
8.387965,-0.295186,0.714315,9.998009,-0.314264,-0.297351,-0.001996,0.091553,-0.396729,-6.347656
8.398066,-0.338297,0.822090,10.078841,-0.357374,-0.189575,0.078836,-0.213623,-0.518799,-5.767822
8.408167,-0.213755,0.727487,10.060280,-0.232833,-0.284179,0.060274,-0.152588,-0.366211,-4.180908
8.418256,-0.264650,0.781974,10.162667,-0.283727,-0.229692,0.162661,-0.335693,-0.488281,-3.417969
8.428399,-0.251477,0.728086,10.095007,-0.270555,-0.283580,0.095002,-0.183105,-0.305176,-2.075195
8.438500,-0.190404,0.652044,10.102192,-0.209482,-0.359622,0.102187,-0.366211,-0.183105,-1.495361
8.448629,-0.212558,0.725691,10.160870,-0.231636,-0.285975,0.160865,-0.030518,-0.183105,-0.640869
8.458732,-0.144899,0.639470,10.012379,-0.163976,-0.372196,0.012374,0.000000,-0.091553,-0.213623
8.468832,-0.159868,0.665815,10.079440,-0.178945,-0.345850,0.079434,0.122070,0.000000,0.488281
8.478933,-0.161065,0.622705,10.052496,-0.180143,-0.388961,0.052490,-0.274658,-0.061035,0.518799
8.489024,-0.190404,0.637075,10.062675,-0.209482,-0.374591,0.062669,0.335693,0.000000,0.366211
8.499125,-0.182620,0.810714,10.005793,-0.201698,-0.200952,0.005788,0.061035,-0.061035,0.030518
8.509216,-0.111967,0.805924,9.967473,-0.131045,-0.205742,-0.032533,0.061035,-0.030518,0.091553
8.519355,-0.120350,0.738864,9.959090,-0.139427,-0.272802,-0.040915,-0.061035,0.152588,0.732422
8.529459,-0.099393,0.780178,10.054891,-0.118471,-0.231488,0.054885,-0.213623,-0.030518,0.976562
8.539550,-0.063468,0.790955,10.080637,-0.082546,-0.220711,0.080632,0.274658,0.091553,1.556396
8.549688,-0.114961,0.814307,10.030342,-0.134038,-0.197359,0.030337,-0.122070,0.213623,1.739502
8.559791,-0.058079,0.861608,9.984836,-0.077157,-0.150058,-0.015169,0.305176,0.305176,2.197266
8.569882,0.017963,0.827479,10.060280,-0.001115,-0.184187,0.060274,-0.396729,0.213623,2.532959
8.579985,0.049098,0.713117,10.066866,0.030020,-0.298549,0.066861,-0.091553,0.061035,2.349854
8.590090,0.025746,0.761616,10.169253,0.006669,-0.250050,0.169248,-0.274658,-0.183105,0.915527
8.600178,-0.074246,0.752036,10.069860,-0.093323,-0.259630,0.069854,0.030518,-0.152588,-0.274658
8.610278,-0.153880,0.747845,10.060878,-0.172958,-0.263821,0.060873,0.030518,-0.335693,-3.082275
8.620380,-0.217348,0.782573,9.998608,-0.236426,-0.229093,-0.001397,0.244141,-0.335693,-4.211426
8.630472,-0.229323,0.728685,9.997410,-0.248401,-0.282981,-0.002595,-0.152588,-0.518799,-5.187988
8.640574,-0.358055,0.824485,9.995015,-0.377133,-0.187180,-0.004990,0.061035,-0.396729,-5.676270
8.650713,-0.355660,0.847238,9.975256,-0.374738,-0.164428,-0.024749,0.061035,-0.396729,-5.096436
8.660802,-0.383802,0.858615,9.997410,-0.402879,-0.153051,-0.002595,0.030518,-0.335693,-3.417969
8.670905,-0.433499,0.884361,10.028546,-0.452576,-0.127305,0.028540,-0.183105,-0.335693,-3.021240
8.681007,-0.506547,0.857417,9.994417,-0.525624,-0.154249,-0.005589,-0.274658,-0.427246,-3.448486
8.691106,-0.612526,0.846639,9.998608,-0.631604,-0.165026,-0.001397,0.335693,-0.305176,-3.723145
8.701209,-0.618514,0.885558,10.026749,-0.637591,-0.126107,0.026744,0.000000,-0.457764,-3.875732
8.711321,-0.664618,0.940045,9.989028,-0.683695,-0.071621,-0.010978,0.152588,-0.335693,-3.021240
8.721424,-0.649050,1.052611,9.989028,-0.668128,0.040945,-0.010978,0.305176,-0.183105,-1.464844
8.731515,-0.497565,1.039438,9.975256,-0.516643,0.027773,-0.024749,0.335693,0.396729,3.082275
8.741609,-0.426912,1.025068,10.030941,-0.445990,0.013403,0.030935,0.122070,0.488281,5.706787
8.751741,-0.328118,0.969983,10.043514,-0.347195,-0.041683,0.043509,0.091553,0.946045,10.070801
8.761833,-0.286804,0.840652,10.027947,-0.305881,-0.171014,0.027941,0.183105,1.098633,11.505127
8.771925,-0.284409,0.831072,10.015972,-0.303486,-0.180594,0.015966,0.152588,1.312256,13.610840
8.782030,-0.168250,0.756826,9.990225,-0.187328,-0.254840,-0.009780,0.244141,1.403809,14.587402
8.792122,-0.133522,0.742456,10.072853,-0.152600,-0.269210,0.072848,0.030518,1.434326,15.625000
8.802220,0.044308,0.829276,10.041718,0.025230,-0.182390,0.041713,-0.183105,1.678467,18.951416
8.812316,0.111967,0.782573,10.029743,0.092890,-0.229093,0.029738,-0.122070,1.892090,20.965576
8.822409,0.191003,0.769999,10.005793,0.171925,-0.241667,0.005788,0.152588,2.380371,24.505615
8.832501,0.276625,0.640668,9.954899,0.257547,-0.370998,-0.045107,0.091553,2.563477,25.634766
8.842603,0.243094,0.507744,10.071057,0.224017,-0.503922,0.071052,0.396729,2.502441,25.024414
8.852728,0.280816,0.508942,10.033336,0.261739,-0.502724,0.033330,0.122070,2.380371,23.498535
8.862818,0.287402,0.395777,10.050101,0.268325,-0.615889,0.050095,0.305176,2.136230,21.392822
8.872908,0.347278,0.506547,10.003398,0.328200,-0.505119,0.003393,-0.061035,1.617432,16.296387
8.882999,0.307760,0.473615,9.998009,0.288682,-0.538051,-0.001996,0.396729,1.342773,13.671875
8.893090,0.352068,0.653242,10.055490,0.332990,-0.358424,0.055484,0.274658,1.037598,8.941650
8.903180,0.335303,0.692161,10.036329,0.316225,-0.319505,0.036324,0.396729,0.823975,7.171631
8.913271,0.380808,0.720302,9.981244,0.361731,-0.291364,-0.018761,0.183105,0.579834,4.638672
8.923362,0.395178,0.601749,10.018367,0.376101,-0.409917,0.018361,0.366211,0.427246,3.784180
8.933451,0.322729,0.713117,10.068662,0.303651,-0.298549,0.068657,0.274658,0.366211,1.953125
8.943552,0.267643,0.698747,10.032737,0.248566,-0.312919,0.032732,0.061035,0.274658,0.823975
8.953718,0.309556,0.591570,9.984238,0.290479,-0.420096,-0.015768,0.518799,0.061035,-0.396729
8.963815,0.277822,0.747246,10.127939,0.258745,-0.264420,0.127934,-0.335693,-0.274658,-2.990723
8.973913,0.356858,0.629291,10.030941,0.337780,-0.382374,0.030935,0.061035,-0.305176,-3.601074
8.984006,0.319136,0.755629,10.166259,0.300059,-0.256037,0.166254,-0.488281,-0.457764,-4.608154
8.994100,0.197589,0.705333,9.981244,0.178512,-0.306333,-0.018761,0.061035,-0.427246,-5.157471
9.004194,0.221539,0.737067,10.033336,0.202462,-0.274599,0.033330,-0.305176,-0.457764,-5.676270
9.014290,0.150287,0.567620,10.039922,0.131210,-0.444046,0.039917,0.061035,-0.762939,-5.859375
9.024387,0.276026,0.616718,9.977651,0.256948,-0.394948,-0.022354,0.000000,-0.488281,-6.072998
9.034484,0.209564,0.649649,9.984836,0.190487,-0.362017,-0.015169,-0.366211,-0.427246,-6.469727
9.044596,0.108375,0.670605,10.117161,0.089297,-0.341060,0.117156,-0.183105,-0.793457,-6.683350
9.054784,0.202978,0.595761,9.989028,0.183900,-0.415905,-0.010978,-0.061035,-0.762939,-7.049561
9.064875,0.058079,0.422721,10.093810,0.039002,-0.588945,0.093805,-0.244141,-0.854492,-7.293701
9.074965,0.009580,0.546064,10.223740,-0.009497,-0.465601,0.223734,-0.366211,-0.823975,-7.751465
9.085056,-0.067659,0.541873,10.059082,-0.086737,-0.469793,0.059077,0.366211,-0.732422,-7.751465
9.095145,-0.107776,0.548459,10.047107,-0.126853,-0.463206,0.047102,-0.274658,-0.671387,-7.690430
9.105235,-0.065863,0.723895,9.915980,-0.084941,-0.287771,-0.084026,0.518799,-0.396729,-6.622314
9.115324,-0.219144,0.702938,10.060878,-0.238222,-0.308728,0.060873,0.427246,-0.457764,-5.767822
9.125413,-0.219144,0.662822,10.094409,-0.238222,-0.348844,0.094403,-0.183105,-0.396729,-3.936768
9.135503,-0.097597,0.622106,10.016570,-0.116675,-0.389560,0.016565,-0.030518,-0.213623,-2.990723
9.145606,-0.188009,0.681383,10.085427,-0.207087,-0.330283,0.085422,-0.122070,-0.213623,-1.739502
9.155772,-0.086221,0.666414,10.007589,-0.105298,-0.345252,0.007584,-0.244141,-0.091553,-1.586914
9.165869,-0.162263,0.608934,10.075248,-0.181340,-0.402732,0.075243,0.305176,0.061035,-1.708984
9.175965,-0.129930,0.670605,10.050101,-0.149007,-0.341060,0.050095,0.244141,-0.091553,-1.892090
9.186061,-0.123942,0.692161,10.035731,-0.143020,-0.319505,0.035725,0.244141,-0.122070,-2.075195
9.196154,-0.097597,0.842448,10.011780,-0.116675,-0.169218,0.011775,0.213623,0.030518,-2.349854
9.206247,-0.022753,0.805924,9.845327,-0.041830,-0.205742,-0.154679,0.762939,0.183105,-2.197266
9.216343,-0.059875,0.792751,9.941127,-0.078953,-0.218914,-0.058878,0.183105,-0.030518,-2.319336
9.226438,-0.017963,0.647254,9.807006,-0.037040,-0.364412,-0.192999,0.122070,-0.122070,-2.868652
9.236534,0.019759,0.756826,9.911788,0.000681,-0.254840,-0.088217,-0.030518,-0.244141,-4.852295
9.246644,-0.003593,0.691562,10.025552,-0.022670,-0.320104,0.025546,0.518799,-0.396729,-6.439209
9.256775,0.082628,0.816103,9.878857,0.063551,-0.195563,-0.121148,0.122070,-0.549316,-8.422852
9.266872,-0.111967,0.621508,10.077643,-0.131045,-0.390158,0.077638,-0.366211,-1.190186,-12.176514
9.276969,-0.216151,0.574805,10.133328,-0.235228,-0.436861,0.133322,-0.549316,-1.464844,-13.702393
9.287066,-0.333506,0.616119,10.195598,-0.352584,-0.395547,0.195593,-0.061035,-1.464844,-15.380859
9.297163,-0.440085,0.793350,10.044113,-0.459162,-0.218316,0.044108,-0.213623,-1.373291,-15.411377
9.307262,-0.589175,0.757425,10.007589,-0.608252,-0.254241,0.007584,-0.091553,-1.220703,-14.129639
9.317359,-0.662822,0.833467,10.195598,-0.681899,-0.178199,0.195593,-0.305176,-1.312256,-13.122559
9.327456,-0.495769,0.733475,9.956096,-0.514847,-0.278191,-0.043909,-0.549316,-1.068115,-11.688232
9.337553,-0.573008,0.768203,9.918375,-0.592086,-0.243463,-0.081631,0.213623,-0.701904,-8.514404
9.347662,-0.589774,0.871787,9.968670,-0.608851,-0.139879,-0.031335,0.152588,-0.518799,-7.080078
9.357866,-0.504750,0.840652,9.955497,-0.523828,-0.171014,-0.044508,0.091553,-0.305176,-4.974365
9.367958,-0.520917,0.810115,9.940529,-0.539994,-0.201550,-0.059477,0.579834,-0.122070,-3.997803
9.378049,-0.458047,0.942440,10.068063,-0.477125,-0.069226,0.068058,-0.091553,-0.091553,-2.593994
9.388141,-0.399968,0.746049,10.052496,-0.419046,-0.265617,0.052490,0.244141,0.000000,-2.044678
9.398229,-0.340093,0.774789,10.117161,-0.359170,-0.236877,0.117156,0.122070,-0.122070,-0.549316
9.408319,-0.344284,0.823887,9.959090,-0.363362,-0.187779,-0.040915,0.213623,0.091553,0.335693
9.418410,-0.333506,0.917891,10.018367,-0.352584,-0.093775,0.018361,0.183105,0.244141,1.281738
9.428497,-0.295785,0.705932,9.874666,-0.314862,-0.305734,-0.125340,0.213623,0.427246,3.143311
9.438586,-0.289797,0.835862,9.950707,-0.308875,-0.175804,-0.049298,0.518799,0.488281,3.845215
9.448691,-0.360450,0.798140,10.006392,-0.379528,-0.213526,0.006386,0.122070,0.488281,4.058838
9.458867,-0.300575,0.801733,10.171648,-0.319652,-0.209933,0.171643,0.030518,0.305176,3.662109
9.468964,-0.323328,0.836461,10.018965,-0.342405,-0.175205,0.018960,0.640869,0.457764,3.326416
9.479061,-0.258662,0.978365,10.033934,-0.277740,-0.033300,0.033929,0.000000,0.396729,3.601074
9.489158,-0.188608,0.965193,9.952504,-0.207685,-0.046473,-0.047502,0.762939,0.518799,4.211426
9.499254,0.003593,0.978964,10.086026,-0.015485,-0.032702,0.086021,0.366211,0.518799,5.920410
9.509349,0.028141,1.004112,10.065668,0.009064,-0.007554,0.065663,1.739502,0.305176,6.866455
9.519446,0.175435,0.989143,9.980645,0.156358,-0.022523,-0.019360,2.563477,0.183105,7.720947
9.529542,0.111967,0.902922,10.059681,0.092890,-0.108743,0.059676,3.784180,-0.152588,7.293701
9.539639,0.316143,0.956810,9.933942,0.297065,-0.054856,-0.066063,3.540039,-0.213623,6.134033
9.549737,0.395178,0.959804,9.889036,0.376101,-0.051862,-0.110970,2.746582,-0.396729,5.737305
9.559864,0.291594,0.921484,9.826166,0.272516,-0.090182,-0.173839,1.525879,0.366211,5.249023
9.569972,0.195793,0.806523,9.909992,0.176715,-0.205143,-0.090013,-2.868652,1.312256,4.913330
9.580071,0.097597,0.587977,10.163265,0.078520,-0.423689,0.163260,-4.028320,1.678467,5.279541
9.590166,-0.071851,0.496967,10.106982,-0.090928,-0.514699,0.106977,-2.471924,1.434326,7.202148
9.600259,-0.010179,0.480800,10.056687,-0.029256,-0.530866,0.056682,-1.464844,1.586914,8.575439
9.610356,-0.016765,0.553250,10.113569,-0.035843,-0.458416,0.113563,-1.190186,1.495361,10.559082
9.620452,0.118553,0.559237,10.008188,0.099476,-0.452429,0.008183,-0.518799,1.312256,11.138916
9.630548,0.096400,0.593366,10.163864,0.077322,-0.418300,0.163859,-0.366211,1.495361,11.718750
9.640644,0.059875,0.519719,10.020762,0.040798,-0.491947,0.020756,-0.457764,1.159668,11.810303
9.650754,0.166454,0.562830,10.036928,0.147376,-0.448836,0.036923,-0.335693,1.342773,12.268066
9.660951,0.196990,0.490979,10.096804,0.177913,-0.520687,0.096798,-0.427246,1.342773,12.390137
9.671043,0.200583,0.474214,10.072853,0.181505,-0.537452,0.072848,-0.091553,1.251221,11.901855
9.681133,0.150287,0.484991,9.956096,0.131210,-0.526674,-0.043909,-0.061035,0.854492,9.735107
9.691228,0.113763,0.630489,10.130334,0.094686,-0.381177,0.130329,-0.488281,0.732422,8.697510
9.701319,0.095202,0.601150,10.033336,0.076124,-0.410516,0.033330,0.000000,0.671387,6.378174
9.711409,0.155078,0.689766,9.954300,0.136000,-0.321900,-0.045705,0.183105,0.579834,5.065918
9.721499,-0.007784,0.650847,10.077045,-0.026861,-0.360819,0.077039,0.152588,0.427246,4.150391
9.731590,0.079634,0.631686,10.080038,0.060557,-0.379979,0.080033,-0.274658,0.244141,2.288818
9.741680,0.075443,0.598156,10.035731,0.056366,-0.413510,0.035725,-0.244141,0.244141,1.525879
9.751771,-0.032333,0.560435,10.162667,-0.051410,-0.451231,0.162661,0.213623,0.244141,0.305176
9.761894,0.044308,0.596360,10.032737,0.025230,-0.415306,0.032732,0.274658,0.000000,-0.335693
9.771985,0.098795,0.617316,9.956096,0.079717,-0.394350,-0.043909,0.244141,-0.152588,-1.281738
9.782075,0.147892,0.589774,10.013577,0.128815,-0.421892,0.013571,0.152588,-0.213623,-1.770020
9.792164,0.027543,0.623903,9.957892,0.008465,-0.387763,-0.042113,0.213623,-0.244141,-2.563477
9.802251,0.019759,0.580193,10.097402,0.000681,-0.431472,0.097397,0.061035,-0.579834,-4.150391
9.812340,-0.053289,0.601150,10.059082,-0.072367,-0.410516,0.059077,-0.152588,-0.640869,-5.126953
9.822430,-0.027543,0.510139,10.020163,-0.046620,-0.501527,0.020158,0.000000,-0.762939,-7.049561
9.832520,-0.068258,0.605940,10.025552,-0.087336,-0.405726,0.025546,-0.183105,-0.976562,-8.087158
9.842610,0.077838,0.525108,9.839938,0.058761,-0.486558,-0.160068,-0.030518,-1.007080,-10.040283
9.852703,-0.117955,0.645458,10.126143,-0.137032,-0.366208,0.126137,0.213623,-1.037598,-10.528564
9.862879,-0.057480,0.670605,10.073452,-0.076558,-0.341060,0.073447,0.274658,-0.762939,-10.223389
9.872978,-0.155078,0.747845,9.977651,-0.174155,-0.263821,-0.022354,0.305176,-1.007080,-9.948730
9.883074,-0.370031,0.868195,10.202184,-0.389108,-0.143471,0.202179,-0.152588,-1.159668,-9.979248
9.893168,-0.364642,0.714913,9.929152,-0.383719,-0.296753,-0.070853,0.488281,-0.762939,-9.704590
9.903265,-0.397573,0.860411,10.037527,-0.416651,-0.151255,0.037522,0.549316,-0.946045,-9.246826
9.913361,-0.408351,0.932261,10.210567,-0.427428,-0.079404,0.210562,-0.091553,-0.854492,-6.805420
9.923458,-0.425715,1.105900,10.092612,-0.444792,0.094234,0.092607,0.366211,-0.915527,-5.187988
9.933554,-0.328716,0.963995,10.054292,-0.347794,-0.047670,0.054287,-0.244141,-0.274658,-2.349854
9.943650,-0.250280,0.875380,9.963281,-0.269357,-0.136286,-0.036724,0.061035,-0.030518,-1.159668
9.953748,-0.320334,0.938848,10.057286,-0.339411,-0.072818,0.057280,-0.152588,-0.091553,-0.152588
9.963871,-0.321531,0.847837,10.025552,-0.340609,-0.163829,0.025546,-0.030518,0.213623,1.892090
9.973967,-0.270637,0.856818,10.017169,-0.289715,-0.154848,0.017164,-0.213623,0.366211,2.593994
9.984064,-0.166454,0.861608,10.037527,-0.185531,-0.150058,0.037522,-0.183105,0.457764,4.364014
9.994158,-0.122745,0.816103,10.127340,-0.141822,-0.195563,0.127335,-0.183105,0.488281,5.279541
10.004251,-0.140109,0.847837,10.097402,-0.159186,-0.163829,0.097397,-0.091553,0.610352,5.828857
10.014347,-0.114362,0.884960,10.170450,-0.133440,-0.126706,0.170445,-0.030518,0.579834,5.798340
10.024443,-0.092208,0.668210,9.961485,-0.111286,-0.343455,-0.038520,-0.366211,0.640869,5.645752
10.034540,-0.068857,0.753234,10.033336,-0.087934,-0.258432,0.033330,-0.091553,0.335693,4.943848
10.044648,-0.096998,0.740660,9.920770,-0.116076,-0.271006,-0.079236,-0.030518,0.579834,4.699707
10.054745,0.005389,0.591570,9.871672,-0.013689,-0.420096,-0.128334,0.610352,0.610352,3.692627
10.064875,-0.096998,0.641865,10.031539,-0.116076,-0.369801,0.031534,0.396729,0.396729,3.021240
10.074968,-0.083826,0.704136,10.055490,-0.102903,-0.307530,0.055484,-0.030518,0.213623,1.159668
10.085064,-0.172441,0.758024,10.083032,-0.191519,-0.253642,0.083027,0.000000,0.152588,0.030518
10.095160,-0.079634,0.658630,9.839938,-0.098712,-0.353035,-0.160068,0.366211,0.091553,-1.953125
10.105254,-0.199385,0.705333,9.993818,-0.218463,-0.306333,-0.006188,-0.061035,-0.122070,-2.990723
10.115351,-0.167651,0.756227,10.105186,-0.186729,-0.255438,0.105181,-0.152588,-0.366211,-3.814697
10.125448,-0.162263,0.768203,10.011780,-0.181340,-0.243463,0.011775,-0.274658,-0.518799,-4.302979
10.135544,-0.261057,0.877775,10.068063,-0.280135,-0.133891,0.068058,-0.183105,-0.427246,-3.875732
10.145653,-0.114961,0.821492,9.884844,-0.134038,-0.190174,-0.115161,0.152588,-0.152588,-2.777100
10.155749,-0.296384,0.878972,10.090217,-0.315461,-0.132694,0.090212,-0.030518,-0.061035,-2.410889
10.165876,-0.210762,0.757425,9.834549,-0.229839,-0.254241,-0.165456,-0.061035,-0.183105,-2.349854
10.175972,-0.207768,0.721500,9.875264,-0.226845,-0.290166,-0.124741,0.427246,0.030518,-2.777100
10.186069,-0.262255,0.746647,9.913585,-0.281332,-0.265018,-0.086421,0.427246,-0.122070,-3.601074
10.196163,-0.321531,0.768801,9.978849,-0.340609,-0.242865,-0.021156,0.213623,-0.366211,-4.486084
10.206256,-0.311951,0.808319,10.122550,-0.331029,-0.203347,0.122545,0.000000,-0.305176,-4.516602
10.216352,-0.346080,0.726888,10.157877,-0.365158,-0.284777,0.157871,0.274658,-0.305176,-3.692627
10.226451,-0.410746,0.862207,10.208172,-0.429823,-0.149459,0.208167,-0.152588,-0.366211,-3.112793
10.236549,-0.370031,0.923280,10.106384,-0.389108,-0.088386,0.106378,0.183105,-0.061035,-1.190186
10.246658,-0.277822,0.838257,9.930948,-0.296900,-0.173409,-0.069057,0.701904,0.000000,-0.030518
10.256755,-0.253273,0.920286,10.139315,-0.272351,-0.091380,0.139310,0.274658,0.183105,0.915527
10.266887,-0.210163,0.720302,10.163864,-0.229240,-0.291364,0.163859,0.274658,0.183105,2.593994
10.276984,-0.088616,0.687969,10.084828,-0.107693,-0.323696,0.084823,-0.122070,0.305176,2.960205
10.287081,0.001198,0.773591,9.987830,-0.017880,-0.238075,-0.012175,0.335693,0.305176,2.441406
10.297178,-0.165256,0.759221,10.109976,-0.184334,-0.252445,0.109971,0.518799,0.122070,1.892090
10.307274,-0.060474,0.755629,10.081236,-0.079552,-0.256037,0.081231,0.305176,0.091553,0.457764
10.317370,-0.140109,0.822090,10.023157,-0.159186,-0.189575,0.023151,0.183105,0.000000,0.152588
10.327466,-0.171244,0.779579,9.981244,-0.190321,-0.232087,-0.018761,0.335693,0.213623,0.091553
10.337562,-0.070653,0.838856,10.092612,-0.089731,-0.172810,0.092607,0.244141,0.152588,0.549316
10.347670,-0.053289,0.810115,10.015972,-0.072367,-0.201550,0.015966,0.274658,0.427246,1.007080
10.357765,-0.100591,0.693358,10.020163,-0.119668,-0.318308,0.020158,-0.122070,0.244141,1.525879
10.367957,-0.131726,0.628094,10.091415,-0.150804,-0.383572,0.091410,-0.152588,0.152588,1.647949
10.378047,-0.079634,0.649050,10.016570,-0.098712,-0.362616,0.016565,0.244141,0.152588,0.885010
10.388137,-0.123942,0.771795,10.042317,-0.143020,-0.239871,0.042312,-0.152588,0.061035,0.213623
10.398225,-0.105381,0.675994,9.930948,-0.124458,-0.335672,-0.069057,-0.030518,0.122070,-0.793457
10.408312,-0.142504,0.740660,9.811198,-0.161581,-0.271006,-0.188808,0.183105,0.091553,-0.915527
10.418403,-0.122745,0.839454,9.863888,-0.141822,-0.172211,-0.136117,0.122070,0.000000,-1.129150
10.428505,-0.134121,0.731080,9.871672,-0.153199,-0.280586,-0.128334,-0.030518,0.091553,-0.976562
10.438597,-0.170046,0.859812,10.059681,-0.189124,-0.151854,0.059676,-0.457764,0.091553,-0.671387
10.448704,-0.114362,0.669408,10.069261,-0.133440,-0.342258,0.069256,-0.396729,-0.061035,-0.061035
10.458795,-0.117356,0.619113,10.108180,-0.136433,-0.392553,0.108175,-0.518799,-0.152588,-0.091553
10.468976,-0.076042,0.493374,10.068662,-0.095119,-0.518292,0.068657,-0.366211,-0.183105,-0.488281
10.479074,-0.105381,0.692759,10.034533,-0.124458,-0.318906,0.034528,-0.030518,0.152588,-0.671387
10.489171,-0.134720,0.655038,10.023755,-0.153797,-0.356628,0.023750,-0.061035,0.030518,-1.129150
10.499266,-0.096400,0.645458,9.923165,-0.115477,-0.366208,-0.076841,-0.244141,0.000000,-1.861572
10.509370,-0.196990,0.626298,10.018965,-0.216068,-0.385368,0.018960,0.183105,-0.091553,-2.258301
10.519468,-0.250280,0.620909,10.012978,-0.269357,-0.390757,0.012973,-0.091553,-0.152588,-2.532959
10.529567,-0.170645,0.655637,10.014175,-0.189723,-0.356029,0.014170,-0.030518,-0.091553,-2.502441
10.539664,-0.204774,0.641865,10.056088,-0.223852,-0.369801,0.056083,0.366211,-0.030518,-2.166748
10.549767,-0.241298,0.756227,10.097402,-0.260376,-0.255438,0.097397,-0.183105,0.152588,-2.075195
10.559864,-0.228126,0.671803,10.088421,-0.247203,-0.339863,0.088416,0.030518,-0.061035,-1.739502
10.570067,-0.266446,0.661624,10.171648,-0.285523,-0.350042,0.171643,0.000000,-0.091553,-1.373291
10.580156,-0.289199,0.745450,10.124945,-0.308276,-0.266216,0.124940,-0.152588,-0.061035,-0.885010
10.590248,-0.254471,0.813708,10.022558,-0.273548,-0.197958,0.022553,0.152588,0.213623,0.854492
10.600337,-0.165256,0.688568,10.027348,-0.184334,-0.323098,0.027343,0.030518,0.213623,2.014160
10.610424,-0.161065,0.752635,10.091415,-0.180143,-0.259031,0.091410,0.183105,0.457764,4.089355
10.620514,-0.082628,0.698148,10.098600,-0.101706,-0.313518,0.098595,-0.518799,0.366211,4.852295
10.630603,0.007185,0.628693,9.995015,-0.011892,-0.382973,-0.004990,0.244141,0.671387,5.371094
10.640694,0.047302,0.683179,9.991423,0.028224,-0.328487,-0.008583,0.366211,0.640869,5.004883
10.650783,0.047302,0.786165,9.937535,0.028224,-0.225501,-0.062470,0.610352,0.701904,4.425049
10.660874,0.053888,0.692759,9.871073,0.034810,-0.318906,-0.128932,0.274658,0.488281,2.563477
10.671063,-0.052092,0.743055,10.039323,-0.071169,-0.268611,0.039318,-0.030518,0.335693,1.434326
10.681162,-0.068857,0.725691,10.010583,-0.087934,-0.285975,0.010578,0.579834,0.244141,-0.518799
10.691258,-0.003593,0.710123,9.838141,-0.022670,-0.301543,-0.161864,0.732422,0.274658,-1.281738
10.701356,0.000000,0.759820,9.996213,-0.019078,-0.251846,-0.003793,-0.091553,-0.061035,-2.471924
10.711450,-0.091011,0.756227,10.153087,-0.110088,-0.255438,0.153081,-0.305176,-0.244141,-2.929688
10.721547,-0.072449,0.769400,10.102791,-0.091527,-0.242266,0.102786,0.030518,-0.274658,-3.479004
10.731649,-0.082628,0.814905,9.961485,-0.101706,-0.196760,-0.038520,0.244141,-0.274658,-4.425049
10.741746,-0.185614,0.844843,10.108779,-0.204692,-0.166823,0.108773,-0.335693,-0.549316,-4.882812
10.751843,-0.237107,0.814307,10.059681,-0.256184,-0.197359,0.059676,0.152588,-0.701904,-5.981445
10.761940,-0.222737,0.839454,10.023755,-0.241814,-0.172211,0.023750,-0.335693,-0.518799,-6.622314
10.772121,-0.276625,0.921484,10.074650,-0.295702,-0.090182,0.074644,-0.152588,-0.701904,-7.537842
10.782212,-0.250878,0.905916,9.948312,-0.269956,-0.105750,-0.051693,0.061035,-0.701904,-7.598877
10.792302,-0.296384,0.954415,9.926158,-0.315461,-0.057251,-0.073847,0.518799,-0.366211,-6.835938
10.802392,-0.358654,1.095123,9.966275,-0.377732,0.083457,-0.033730,-0.122070,-0.488281,-6.225586
10.812481,-0.373024,1.098715,10.027947,-0.392102,0.087049,0.027941,-0.030518,-0.366211,-5.249023
10.822572,-0.314346,0.914299,9.999207,-0.333424,-0.097367,-0.000799,-0.122070,-0.152588,-3.234863
10.832662,-0.328118,0.861010,10.006990,-0.347195,-0.150656,0.006985,0.122070,-0.091553,-2.380371
10.842752,-0.324525,0.760419,10.024953,-0.343603,-0.251247,0.024948,0.183105,0.091553,-1.403809
10.852843,-0.340093,0.735271,10.044712,-0.359170,-0.276395,0.044707,0.396729,0.030518,-1.037598
10.862933,-0.240699,0.840053,10.024354,-0.259777,-0.171613,0.024349,0.244141,0.030518,-0.244141
10.873111,-0.188009,0.784369,9.949510,-0.207087,-0.227297,-0.050495,0.244141,0.152588,0.244141
10.883204,-0.207169,0.705932,10.011182,-0.226247,-0.305734,0.011176,0.366211,0.091553,0.671387
10.893301,-0.214953,0.794548,10.231523,-0.234031,-0.217118,0.231518,0.030518,0.122070,1.800537
10.903398,-0.088616,0.764011,10.009984,-0.107693,-0.247655,0.009979,-0.122070,0.305176,2.288818
10.913494,-0.113763,0.752635,10.153685,-0.132841,-0.259031,0.153680,0.274658,0.396729,2.868652
10.923591,0.029339,0.682581,10.130933,0.010261,-0.329085,0.130927,0.061035,0.305176,2.655029
10.933687,0.079634,0.683179,10.121951,0.060557,-0.328487,0.121946,-0.030518,0.305176,2.044678
10.943782,0.094005,0.768801,10.129735,0.074927,-0.242865,0.129730,0.030518,0.274658,1.831055
10.953880,0.055684,0.775986,10.102791,0.036607,-0.235680,0.102786,-0.366211,0.061035,1.708984
10.963974,0.073048,0.761017,10.032737,0.053971,-0.250648,0.032732,0.244141,0.152588,2.227783
10.974101,0.062271,0.858615,10.117161,0.043193,-0.153051,0.117156,0.213623,0.244141,2.380371
10.984196,0.192799,0.761616,9.966275,0.173722,-0.250050,-0.033730,0.244141,0.518799,3.356934
10.994290,0.163460,0.791554,10.111174,0.144383,-0.220112,0.111168,0.030518,0.305176,3.570557
11.004384,0.298180,0.775986,10.006392,0.279102,-0.235680,0.006386,-0.030518,0.274658,3.265381
11.014481,0.254471,0.701741,10.063872,0.235393,-0.309925,0.063867,0.244141,0.457764,3.082275
11.024578,0.191602,0.849633,10.096205,0.172524,-0.162033,0.096200,-0.396729,0.335693,2.929688
11.034673,0.304766,0.773591,9.864487,0.285689,-0.238075,-0.135519,0.274658,0.640869,3.021240
11.044769,0.198787,0.830473,9.927356,0.179709,-0.181193,-0.072649,0.183105,0.457764,3.295898
11.054866,0.168849,0.882565,10.042916,0.149771,-0.129101,0.042910,-0.488281,0.640869,4.425049
11.064964,0.261656,0.690364,9.969269,0.242578,-0.321301,-0.030736,-0.244141,0.579834,5.096436
11.075091,0.171244,0.567021,10.135723,0.152166,-0.444645,0.135717,-0.244141,0.518799,5.279541
11.085189,0.080832,0.543669,10.026151,0.061754,-0.467996,0.026145,0.488281,0.549316,5.065918
11.095286,0.098196,0.651445,9.977651,0.079118,-0.360221,-0.022354,-0.305176,0.579834,3.967285
11.105383,0.007784,0.741857,9.995015,-0.011294,-0.269809,-0.004990,0.396729,0.762939,3.387451
11.115480,-0.045505,0.700543,9.981244,-0.064583,-0.311123,-0.018761,0.366211,0.518799,2.990723
11.125577,-0.129331,0.464634,10.021360,-0.148409,-0.547032,0.021355,-0.305176,0.305176,2.624512
11.135675,-0.052092,0.601150,10.079440,-0.071169,-0.410516,0.079434,-0.152588,0.427246,2.105713
11.145771,-0.080832,0.535287,10.016570,-0.099909,-0.476379,0.016565,0.000000,0.183105,0.732422
11.155869,-0.192200,0.494572,10.081835,-0.211278,-0.517094,0.081829,-0.457764,-0.061035,0.122070
11.165966,-0.205373,0.590971,10.133328,-0.224450,-0.420695,0.133322,-0.183105,-0.091553,-1.464844
11.176092,-0.219743,0.637674,10.095007,-0.238821,-0.373992,0.095002,0.030518,-0.305176,-1.953125
11.186189,-0.178429,0.487985,10.092612,-0.197506,-0.523681,0.092607,-0.335693,-0.305176,-2.197266
11.196282,-0.162263,0.654439,10.181228,-0.181340,-0.357227,0.181223,-0.030518,-0.213623,-2.716064
11.206375,-0.220342,0.678988,10.172845,-0.239419,-0.332678,0.172840,-0.335693,-0.213623,-2.807617
11.216471,-0.240699,0.669408,10.137519,-0.259777,-0.342258,0.137514,-0.488281,-0.213623,-3.326416
11.226567,-0.242496,0.719105,10.072853,-0.261573,-0.292561,0.072848,0.061035,-0.152588,-3.417969
11.236663,-0.331111,0.738265,10.042317,-0.350189,-0.273401,0.042312,0.244141,-0.152588,-3.326416
11.246888,-0.369432,0.740660,10.206376,-0.388509,-0.271006,0.206370,0.366211,-0.366211,-3.234863
11.256986,-0.250878,0.700543,10.066866,-0.269956,-0.311123,0.066861,-0.091553,-0.274658,-2.136230
11.267082,-0.246088,0.652044,9.975256,-0.265166,-0.359622,-0.024749,-0.305176,0.030518,-1.556396
11.277207,-0.268242,0.804128,10.125544,-0.287320,-0.207538,0.125539,-0.183105,-0.061035,-0.946045
11.287323,-0.210163,0.612526,10.041119,-0.229240,-0.399140,0.041114,0.213623,0.091553,0.122070
11.297424,-0.184417,0.590372,10.112371,-0.203494,-0.421294,0.112366,-0.183105,0.061035,0.213623
11.307521,-0.101190,0.574805,10.035731,-0.120267,-0.436861,0.035725,0.549316,0.091553,-0.671387
11.317617,-0.104183,0.635878,10.002799,-0.123261,-0.375788,0.002794,0.122070,-0.122070,-1.434326
11.327713,-0.079036,0.490979,9.974658,-0.098113,-0.520687,-0.025348,-0.183105,-0.305176,-3.997803
11.337810,-0.079634,0.565225,10.083631,-0.098712,-0.446441,0.083626,-0.183105,-0.640869,-5.493164
11.347925,-0.103585,0.564626,10.000404,-0.122662,-0.447040,0.000399,-0.244141,-0.701904,-6.866455
11.358021,-0.197589,0.675396,10.080038,-0.216667,-0.336270,0.080033,-0.457764,-1.037598,-9.246826
11.368133,-0.158071,0.796943,9.914183,-0.177149,-0.214723,-0.085822,0.335693,-0.671387,-10.009766
11.378335,-0.218546,0.655637,10.052496,-0.237623,-0.356029,0.052490,-0.427246,-1.037598,-11.108398
11.388425,-0.297581,0.808319,10.040521,-0.316659,-0.203347,0.040515,0.274658,-0.915527,-11.505127
11.398515,-0.367635,0.677791,10.080038,-0.386713,-0.333875,0.080033,0.244141,-0.885010,-12.023926
11.408606,-0.416135,0.756227,10.012379,-0.435212,-0.255438,0.012374,-0.274658,-1.098633,-11.932373
11.418696,-0.455652,0.852627,9.993818,-0.474730,-0.159039,-0.006188,0.061035,-0.854492,-11.413574
11.428786,-0.515528,0.786764,10.088421,-0.534605,-0.224902,0.088416,-0.518799,-0.793457,-9.948730
11.438876,-0.496368,0.762814,10.049502,-0.515445,-0.248852,0.049497,0.213623,-0.610352,-8.789062
11.448979,-0.440684,0.780178,9.964479,-0.459761,-0.231488,-0.035527,0.061035,-0.579834,-6.958008
11.459071,-0.423320,0.795745,9.975256,-0.442397,-0.215921,-0.024749,0.427246,-0.305176,-6.317139
11.469162,-0.420326,0.811912,9.967473,-0.439403,-0.199754,-0.032533,0.244141,-0.274658,-5.401611
11.479383,-0.384999,0.801134,9.876462,-0.404077,-0.210532,-0.123543,0.701904,-0.183105,-5.096436
11.489483,-0.371228,0.783770,10.023755,-0.390306,-0.227896,0.023750,0.335693,-0.366211,-5.096436
11.499580,-0.271236,0.657433,10.039922,-0.290313,-0.354233,0.039917,-0.030518,-0.488281,-5.065918
11.509676,-0.285606,0.731080,10.059082,-0.304684,-0.280586,0.059077,0.030518,-0.396729,-4.974365
11.519770,-0.271236,0.728685,10.035132,-0.290313,-0.282981,0.035127,0.061035,-0.457764,-4.791260
11.529868,-0.265847,0.800535,10.029144,-0.284925,-0.211131,0.029139,0.183105,-0.366211,-4.669189
11.539963,-0.200583,0.714913,9.980645,-0.219660,-0.296753,-0.019360,0.457764,-0.335693,-4.516602
11.550057,-0.159868,0.685574,10.035132,-0.178945,-0.326091,0.035127,0.213623,-0.366211,-4.394531
11.560158,-0.213157,0.702339,10.072255,-0.232234,-0.309326,0.072249,0.183105,-0.213623,-3.723145
11.570255,-0.190404,0.727487,10.057885,-0.209482,-0.284179,0.057879,0.091553,-0.335693,-3.448486
11.580388,-0.137714,0.774190,10.072255,-0.156791,-0.237476,0.072249,-0.244141,-0.183105,-3.265381
11.590485,-0.078437,0.768801,9.972263,-0.097514,-0.242865,-0.027743,0.305176,-0.061035,-3.204346
11.600581,-0.105381,0.714913,9.923165,-0.124458,-0.296753,-0.076841,0.274658,-0.122070,-3.631592
11.610676,-0.157473,0.754431,9.981244,-0.176550,-0.257235,-0.018761,-0.030518,-0.274658,-4.791260
11.620773,-0.168250,0.656235,10.072255,-0.187328,-0.355430,0.072249,0.122070,-0.457764,-5.096436
11.630871,-0.170645,0.777184,10.100995,-0.189723,-0.234482,0.100990,-0.335693,-0.518799,-4.974365
11.640968,-0.238304,0.712518,10.078242,-0.257382,-0.299148,0.078237,-0.152588,-0.396729,-4.364014
11.651062,-0.217348,0.808918,10.043514,-0.236426,-0.202748,0.043509,-0.274658,-0.305176,-3.540039
11.661159,-0.134720,0.850831,9.914183,-0.153797,-0.160835,-0.085822,0.366211,0.030518,-1.525879
11.671255,-0.127535,0.849034,9.867480,-0.146612,-0.162631,-0.132525,0.366211,0.152588,-0.488281
11.681382,-0.073647,0.825683,10.013577,-0.092724,-0.185983,0.013571,0.366211,0.244141,0.976562
11.691479,-0.007185,0.716710,10.056088,-0.026263,-0.294956,0.056083,-0.122070,0.183105,1.342773
11.701576,-0.000599,0.651445,10.114766,-0.019676,-0.360221,0.114761,-0.061035,0.213623,2.166748
11.711674,-0.001796,0.620909,10.106982,-0.020874,-0.390757,0.106977,-0.152588,0.061035,2.258301
11.721771,0.064067,0.675994,9.998009,0.044989,-0.335672,-0.001996,0.091553,0.183105,2.197266
11.731866,0.098795,0.729882,9.966275,0.079717,-0.281784,-0.033730,0.244141,0.335693,1.892090
11.741963,0.102986,0.714913,10.090816,0.083908,-0.296753,0.090811,0.091553,0.152588,1.312256
11.752060,0.091609,0.738265,10.009385,0.072532,-0.273401,0.009380,0.518799,0.152588,0.457764
11.762158,0.115560,0.712518,10.034533,0.096482,-0.299148,0.034528,0.030518,-0.061035,-0.030518
11.772255,0.119152,0.689167,10.008188,0.100075,-0.322499,0.008183,-0.122070,-0.091553,-1.007080
11.782380,0.052690,0.681383,10.068063,0.033613,-0.330283,0.068058,0.152588,-0.122070,-1.831055
11.792476,0.111967,0.680186,9.885443,0.092890,-0.331480,-0.114562,-0.122070,-0.213623,-3.631592
11.802570,0.052690,0.707130,10.012379,0.033613,-0.304536,0.012374,-0.152588,-0.274658,-4.241943
11.812664,-0.064067,0.699944,10.199191,-0.083144,-0.311721,0.199185,-0.244141,-0.427246,-4.577637
11.822762,-0.082029,0.701142,9.982441,-0.101107,-0.310524,-0.017564,-0.183105,-0.457764,-4.913330
11.832858,-0.079036,0.732876,10.010583,-0.098113,-0.278790,0.010578,-0.091553,-0.396729,-4.852295
11.842956,-0.096998,0.675396,10.111174,-0.116076,-0.336270,0.111168,-0.213623,-0.396729,-4.638672
11.853054,-0.052092,0.626896,9.977651,-0.071169,-0.384769,-0.022354,0.000000,-0.366211,-4.455566
11.863150,-0.048499,0.769400,9.918973,-0.067577,-0.242266,-0.081032,0.396729,-0.183105,-3.997803
11.873248,0.010778,0.755030,10.015373,-0.008300,-0.256636,0.015368,0.396729,-0.274658,-3.814697
11.883376,-0.082628,0.728086,10.091415,-0.101706,-0.283580,0.091410,-0.091553,-0.274658,-4.058838
11.893468,-0.132325,0.710123,10.107581,-0.151402,-0.301543,0.107576,0.061035,-0.396729,-5.004883
11.903565,-0.101788,0.667013,10.032138,-0.120866,-0.344653,0.032133,-0.091553,-0.488281,-5.706787
11.913662,-0.075443,0.696951,10.080038,-0.094521,-0.314715,0.080033,0.000000,-0.671387,-6.866455
11.923790,-0.025148,0.673000,10.122550,-0.044225,-0.338665,0.122545,-0.305176,-0.671387,-7.110596
11.933887,0.002994,0.713716,10.027348,-0.016084,-0.297950,0.027343,0.030518,-0.366211,-6.958008
11.943983,-0.041314,0.750839,9.948312,-0.060392,-0.260827,-0.051693,0.244141,-0.610352,-6.744385
11.954079,-0.054487,0.729882,10.051897,-0.073564,-0.281784,0.051892,0.000000,-0.701904,-6.530762
11.964176,-0.144899,0.703537,10.266251,-0.163976,-0.308129,0.266246,-0.427246,-0.701904,-6.500244
11.974272,-0.120948,0.613125,10.169253,-0.140026,-0.398541,0.169248,-0.366211,-0.579834,-6.256104
11.984401,-0.058678,0.605341,10.048903,-0.077756,-0.406325,0.048898,-0.366211,-0.488281,-5.981445
11.994496,-0.044907,0.611329,9.974059,-0.063984,-0.400337,-0.025946,-0.122070,-0.488281,-5.920410
12.004590,-0.073048,0.577200,9.901011,-0.092126,-0.434466,-0.098995,0.305176,-0.610352,-6.134033
12.014687,-0.041314,0.634081,9.970466,-0.060392,-0.377584,-0.029539,0.061035,-0.640869,-6.347656
12.024784,-0.062271,0.634680,9.979448,-0.081348,-0.376986,-0.020558,-0.122070,-0.488281,-6.988525
12.034879,-0.001198,0.599952,10.010583,-0.020275,-0.411713,0.010578,0.244141,-0.579834,-7.324219
12.044976,-0.060474,0.627495,10.074051,-0.079552,-0.384171,0.074046,-0.061035,-0.640869,-7.751465
12.055072,-0.207768,0.630489,10.223141,-0.226845,-0.381177,0.223136,-0.244141,-0.915527,-9.185791
12.065170,-0.190404,0.601150,10.209370,-0.209482,-0.410516,0.209364,-0.549316,-0.976562,-9.826660
12.075267,-0.160466,0.617915,10.085427,-0.179544,-0.393751,0.085422,0.000000,-1.037598,-10.284424
12.085361,-0.272433,0.656235,10.035132,-0.291511,-0.355430,0.035127,0.030518,-0.762939,-10.162354
12.095458,-0.262853,0.626298,9.969868,-0.281931,-0.385368,-0.030138,0.244141,-0.823975,-9.521484
12.105549,-0.295186,0.589774,9.902208,-0.314264,-0.421892,-0.097797,0.305176,-0.762939,-8.972168
12.115645,-0.288001,0.621508,9.932745,-0.307079,-0.390158,-0.067261,0.305176,-0.762939,-8.148193
12.125742,-0.282612,0.699346,10.006392,-0.301690,-0.312320,0.006386,-0.061035,-0.732422,-6.774902
12.135851,-0.228724,0.684377,9.982441,-0.247802,-0.327289,-0.017564,0.274658,-0.549316,-6.317139
12.145949,-0.309556,0.616718,10.053693,-0.328634,-0.394948,0.053688,0.335693,-0.579834,-5.676270
12.156045,-0.259261,0.667612,9.986633,-0.278338,-0.344054,-0.013373,0.244141,-0.396729,-5.249023
12.166141,-0.277224,0.652044,10.011780,-0.296301,-0.359622,0.011775,0.183105,-0.457764,-4.760742
12.176237,-0.380209,0.625699,10.026749,-0.399287,-0.385967,0.026744,0.091553,-0.488281,-4.943848
12.186443,-0.341290,0.697549,10.070458,-0.360368,-0.314116,0.070453,-0.061035,-0.396729,-5.310059
12.196532,-0.339494,0.760419,9.993818,-0.358572,-0.251247,-0.006188,0.152588,-0.610352,-5.340576
12.206620,-0.342488,0.711920,10.028546,-0.361565,-0.299746,0.028540,-0.274658,-0.427246,-5.371094
12.216718,-0.445474,0.805924,10.009385,-0.464551,-0.205742,0.009380,-0.213623,-0.396729,-5.310059
12.226810,-0.518522,0.889750,10.171049,-0.537599,-0.121916,0.171044,-0.366211,-0.488281,-4.913330
12.236900,-0.476010,0.864003,10.106982,-0.495088,-0.147663,0.106977,-0.244141,-0.152588,-3.265381
12.246990,-0.454455,0.793350,10.095606,-0.473532,-0.218316,0.095601,-0.488281,-0.305176,-2.502441
12.257081,-0.456850,0.786165,10.035731,-0.475928,-0.225501,0.035725,-0.366211,-0.122070,-0.915527
12.267172,-0.439486,0.753234,10.065070,-0.458564,-0.258432,0.065064,-0.244141,-0.061035,-0.305176
12.277262,-0.438289,0.709525,10.059681,-0.457366,-0.302141,0.059676,-0.091553,0.000000,0.061035
12.287390,-0.451461,0.717308,10.037527,-0.470539,-0.294357,0.037522,0.122070,0.061035,0.213623
12.297481,-0.452060,0.756826,10.028546,-0.471137,-0.254840,0.028540,0.091553,0.152588,0.213623
12.307571,-0.426313,0.730481,10.007589,-0.445391,-0.281185,0.007584,0.488281,0.061035,0.305176
12.317661,-0.431702,0.793949,10.068662,-0.450780,-0.217717,0.068657,0.274658,0.061035,0.183105
12.327752,-0.434696,0.811313,10.014774,-0.453774,-0.200353,0.014769,0.488281,0.152588,0.396729
12.337842,-0.369432,0.838257,10.054292,-0.388509,-0.173409,0.054287,0.396729,0.152588,0.518799
12.347930,-0.389191,0.819695,10.170450,-0.408268,-0.191970,0.170445,1.159668,0.000000,0.793457
12.358021,-0.310155,0.807122,10.139315,-0.329233,-0.204544,0.139310,3.845215,-0.610352,1.373291
12.368112,-0.299976,0.816702,10.118359,-0.319054,-0.194964,0.118353,5.157471,-1.159668,1.251221
12.378218,-0.212558,0.811313,10.041119,-0.231636,-0.200353,0.041114,6.378174,-1.739502,1.220703
12.388416,-0.155078,0.958008,9.972861,-0.174155,-0.053658,-0.027144,6.469727,-1.647949,1.556396
12.398511,-0.050894,1.002316,9.930948,-0.069972,-0.009350,-0.069057,5.126953,-1.220703,2.197266
12.408605,-0.052092,1.017883,9.929751,-0.071169,0.006217,-0.070254,4.241943,-0.976562,2.471924
12.418703,0.035327,0.982557,9.930948,0.016249,-0.029109,-0.069057,3.173828,-0.640869,2.441406
12.428800,0.092208,0.899330,9.932146,0.073131,-0.112336,-0.067859,1.403809,-0.091553,1.739502
12.438897,0.100591,0.929866,9.944121,0.081513,-0.081799,-0.055884,0.457764,0.091553,1.556396
12.448991,0.134720,0.908910,9.930948,0.115642,-0.102756,-0.069057,-1.708984,0.671387,1.373291
12.459086,0.094603,0.898731,9.956695,0.075526,-0.112935,-0.043310,-2.838135,1.007080,1.159668
12.469183,0.049697,0.879571,9.944121,0.030619,-0.132095,-0.055884,-4.425049,1.373291,1.037598
12.479279,0.022753,0.822090,10.005793,0.003675,-0.189575,0.005788,-4.791260,1.617432,0.946045
12.489406,-0.053888,0.769400,10.023755,-0.072965,-0.242266,0.023750,-4.821777,1.434326,0.427246
12.499499,-0.096400,0.801134,9.962084,-0.115477,-0.210532,-0.037922,-4.089355,1.312256,0.549316
12.509595,-0.161065,0.744851,10.157877,-0.180143,-0.266815,0.157871,-4.455566,1.495361,0.610352
12.519692,-0.211959,0.719703,10.124346,-0.231037,-0.291962,0.124341,-3.082275,0.823975,1.007080
12.529788,-0.199984,0.731080,10.101594,-0.219062,-0.280586,0.101588,-2.502441,0.854492,1.373291
12.539884,-0.189207,0.738265,10.119556,-0.208284,-0.273401,0.119551,-1.251221,0.732422,2.655029
12.549978,-0.196392,0.725092,10.047706,-0.215469,-0.286574,0.047700,-1.129150,0.732422,3.356934
12.560083,-0.240699,0.720302,9.999805,-0.259777,-0.291364,-0.000200,-0.610352,0.854492,4.791260
12.570181,-0.244891,0.691562,9.993818,-0.263968,-0.320104,-0.006188,0.000000,0.793457,5.706787
12.580278,-0.256267,0.627495,10.083032,-0.275345,-0.384171,0.083027,-0.488281,0.823975,6.500244
12.590403,-0.269440,0.595162,10.066267,-0.288517,-0.416503,0.066262,-0.213623,0.823975,6.958008
12.600497,-0.265248,0.598156,10.070458,-0.284326,-0.413510,0.070453,0.030518,0.701904,6.591797
12.610591,-0.304167,0.570015,10.121353,-0.323245,-0.441651,0.121347,1.586914,0.244141,5.523682
