time,ax_raw,ay_raw,az_raw,ax,ay,az,gx,gy,gz
0.000789,-0.111368,0.476609,10.060878,-0.000183,-0.005765,0.010933,0.000000,0.030518,-0.030518
0.010861,-0.116757,0.479004,10.058483,-0.005571,-0.003370,0.008538,0.000000,0.030518,-0.030518
0.020929,-0.115560,0.488584,10.051897,-0.004374,0.006210,0.001952,0.030518,0.030518,-0.030518
0.030996,-0.116757,0.490979,10.051897,-0.005571,0.008605,0.001952,0.030518,0.030518,0.000000
0.041061,-0.113165,0.487985,10.054891,-0.001979,0.005611,0.004946,-0.030518,0.030518,-0.030518
0.051127,-0.110770,0.484991,10.058483,0.000416,0.002617,0.008538,0.000000,0.030518,-0.030518
0.061193,-0.115560,0.480201,10.054891,-0.004374,-0.002173,0.004946,0.000000,0.030518,-0.030518
0.071259,-0.114961,0.479603,10.051298,-0.003775,-0.002771,0.001353,-0.030518,0.030518,-0.030518
0.081325,-0.115560,0.481399,10.053693,-0.004374,-0.000975,0.003748,-0.030518,0.061035,-0.030518
0.091391,-0.111967,0.475411,10.065070,-0.000781,-0.006963,0.015125,0.000000,0.000000,0.000000
0.101457,-0.113763,0.481399,10.068063,-0.002578,-0.000975,0.018118,0.000000,0.000000,-0.030518
0.111523,-0.116158,0.484393,10.065668,-0.004973,0.002019,0.015723,0.000000,0.000000,0.030518
0.121590,-0.112566,0.473016,10.060878,-0.001380,-0.009358,0.010933,0.000000,0.030518,0.030518
0.131655,-0.105980,0.468825,10.063273,0.005206,-0.013549,0.013328,0.030518,0.030518,0.030518
0.141721,-0.113165,0.475411,10.068662,-0.001979,-0.006963,0.018717,0.030518,0.000000,0.030518
0.151787,-0.114961,0.470621,10.061477,-0.003775,-0.011753,0.011532,0.030518,0.000000,0.030518
0.161852,-0.110770,0.476010,10.060878,0.000416,-0.006364,0.010933,0.000000,0.030518,0.030518
0.171918,-0.113165,0.477208,10.054292,-0.001979,-0.005167,0.004347,0.030518,0.030518,0.030518
0.181984,-0.113165,0.479004,10.060280,-0.001979,-0.003370,0.010335,0.030518,0.030518,0.000000
0.192050,-0.109572,0.490380,10.060280,0.001614,0.008006,0.010335,0.030518,0.030518,0.000000
0.202116,-0.107776,0.490380,10.059082,0.003410,0.008006,0.009137,0.030518,0.061035,0.000000
0.212181,-0.105980,0.495170,10.054891,0.005206,0.012796,0.004946,0.000000,0.030518,0.000000
0.222247,-0.111368,0.491578,10.057286,-0.000183,0.009204,0.007341,0.000000,0.000000,0.000000
0.232313,-0.116158,0.489183,10.062675,-0.004973,0.006809,0.012730,0.000000,0.030518,0.030518
0.242378,-0.108375,0.485590,10.062675,0.002811,0.003216,0.012730,0.030518,0.000000,0.030518
0.252443,-0.111967,0.486189,10.058483,-0.000781,0.003815,0.008538,0.030518,0.030518,0.030518
0.262509,-0.114961,0.481998,10.059082,-0.003775,-0.000376,0.009137,0.030518,0.061035,0.030518
0.272575,-0.116757,0.473016,10.051298,-0.005571,-0.009358,0.001353,0.030518,0.061035,0.030518
0.282641,-0.113763,0.473615,10.062076,-0.002578,-0.008759,0.012131,0.030518,0.061035,0.030518
0.292706,-0.111368,0.471220,10.060878,-0.000183,-0.011154,0.010933,0.030518,0.061035,0.000000
0.302772,-0.108973,0.474214,10.057885,0.002212,-0.008160,0.007939,0.030518,0.061035,-0.030518
0.312838,-0.112566,0.476609,10.053693,-0.001380,-0.005765,0.003748,0.061035,0.061035,0.000000
0.322904,-0.116757,0.473615,10.049502,-0.005571,-0.008759,-0.000443,0.030518,0.061035,-0.030518
0.332969,-0.119751,0.480201,10.045311,-0.008565,-0.002173,-0.004634,0.030518,0.061035,0.000000
0.343035,-0.116158,0.480800,10.044712,-0.004973,-0.001574,-0.005233,0.030518,0.030518,-0.030518
0.353101,-0.123344,0.482596,10.051897,-0.012158,0.000222,0.001952,0.030518,0.061035,-0.030518
0.363167,-0.120948,0.484393,10.053693,-0.009763,0.002019,0.003748,0.030518,0.061035,-0.030518
0.373232,-0.120350,0.481399,10.061477,-0.009164,-0.000975,0.011532,0.030518,0.061035,-0.030518
0.383299,-0.118553,0.484991,10.063273,-0.007368,0.002617,0.013328,0.030518,0.061035,0.000000
0.393364,-0.117356,0.487386,10.060280,-0.006170,0.005012,0.010335,0.030518,0.030518,0.030518
0.403429,-0.113165,0.488584,10.060280,-0.001979,0.006210,0.010335,0.061035,0.061035,0.030518
0.413496,-0.113763,0.484393,10.056088,-0.002578,0.002019,0.006143,0.030518,0.061035,0.030518
0.423561,-0.109572,0.485590,10.050101,0.001614,0.003216,0.000156,0.061035,0.091553,0.030518
0.433627,-0.105980,0.481998,10.060280,0.005206,-0.000376,0.010335,0.030518,0.091553,0.030518
0.443692,-0.102986,0.480201,10.063273,0.008200,-0.002173,0.013328,0.030518,0.122070,0.000000
0.453758,-0.110770,0.481998,10.059082,0.000416,-0.000376,0.009137,0.000000,0.122070,-0.030518
0.463823,-0.109572,0.474214,10.056088,0.001614,-0.008160,0.006143,0.000000,0.152588,-0.030518
0.473888,-0.114961,0.480800,10.053094,-0.003775,-0.001574,0.003149,0.000000,0.122070,-0.030518
0.483954,-0.116757,0.480800,10.062076,-0.005571,-0.001574,0.012131,0.000000,0.122070,0.000000
0.494020,-0.115560,0.476010,10.057885,-0.004374,-0.006364,0.007939,-0.030518,0.091553,-0.030518
0.504085,-0.119152,0.479004,10.051897,-0.007966,-0.003370,0.001952,-0.030518,0.091553,-0.030518
0.514150,-0.125739,0.481998,10.049502,-0.014553,-0.000376,-0.000443,0.000000,0.122070,0.030518
0.524215,-0.121547,0.479004,10.040521,-0.010361,-0.003370,-0.009424,0.030518,0.091553,0.030518
0.534280,-0.120948,0.479603,10.049502,-0.009763,-0.002771,-0.000443,0.000000,0.091553,0.030518
0.544346,-0.131127,0.482596,10.057286,-0.019942,0.000222,0.007341,0.030518,0.061035,0.030518
0.554410,-0.126337,0.479004,10.053094,-0.015151,-0.003370,0.003149,0.030518,0.091553,-0.030518
0.564477,-0.128134,0.479004,10.047107,-0.016948,-0.003370,-0.002838,0.030518,0.091553,-0.061035
0.574542,-0.121547,0.476010,10.045909,-0.010361,-0.006364,-0.004036,0.030518,0.061035,-0.030518
0.584607,-0.114362,0.477208,10.051897,-0.003176,-0.005167,0.001952,0.000000,0.030518,-0.030518
0.594673,-0.113165,0.474813,10.052496,-0.001979,-0.007562,0.002551,0.030518,0.030518,-0.030518
0.604739,-0.116158,0.476609,10.051897,-0.004973,-0.005765,0.001952,0.000000,0.061035,-0.030518
0.614805,-0.111967,0.478405,10.048903,-0.000781,-0.003969,-0.001042,0.000000,0.061035,-0.091553
0.624870,-0.113165,0.475411,10.050699,-0.001979,-0.006963,0.000754,0.030518,0.030518,-0.061035
0.634935,-0.114362,0.471819,10.062076,-0.003176,-0.010555,0.012131,0.030518,0.000000,0.000000
0.645001,-0.114961,0.471819,10.062675,-0.003775,-0.010555,0.012730,0.030518,0.061035,0.000000
0.655066,-0.111368,0.472418,10.054891,-0.000183,-0.009957,0.004946,0.061035,0.030518,0.000000
0.665132,-0.106578,0.474813,10.051897,0.004607,-0.007562,0.001952,0.030518,0.030518,0.000000
0.675198,-0.102387,0.472418,10.050101,0.008799,-0.009957,0.000156,0.061035,0.030518,0.000000
0.685263,-0.104782,0.471220,10.059681,0.006404,-0.011154,0.009736,0.030518,0.061035,-0.030518
0.695329,-0.105381,0.469424,10.061477,0.005805,-0.012950,0.011532,0.030518,0.061035,0.000000
0.705394,-0.111967,0.467628,10.058483,-0.000781,-0.014747,0.008538,0.000000,0.061035,0.000000
0.715460,-0.108375,0.474214,10.058483,0.002811,-0.008160,0.008538,0.000000,0.061035,0.000000
0.725526,-0.112566,0.478405,10.049502,-0.001380,-0.003969,-0.000443,0.000000,0.091553,0.000000
0.735591,-0.113165,0.481998,10.048304,-0.001979,-0.000376,-0.001641,0.000000,0.061035,0.030518
0.745657,-0.111967,0.477806,10.053693,-0.000781,-0.004568,0.003748,-0.061035,0.061035,0.030518
0.755723,-0.113763,0.478405,10.045311,-0.002578,-0.003969,-0.004634,-0.030518,0.061035,0.030518
0.765788,-0.115560,0.479004,10.047107,-0.004374,-0.003370,-0.002838,-0.061035,0.061035,0.000000
0.775854,-0.120948,0.479603,10.051897,-0.009763,-0.002771,0.001952,-0.061035,0.061035,-0.030518
0.785919,-0.120350,0.478405,10.055490,-0.009164,-0.003969,0.005544,-0.061035,0.091553,-0.030518
0.795985,-0.123344,0.465831,10.050699,-0.012158,-0.016543,0.000754,-0.061035,0.091553,0.000000
0.806051,-0.117356,0.468226,10.051298,-0.006170,-0.014148,0.001353,-0.030518,0.091553,-0.030518
0.816116,-0.116757,0.474214,10.047706,-0.005571,-0.008160,-0.002239,0.000000,0.061035,-0.061035
0.826182,-0.117356,0.471819,10.047107,-0.006170,-0.010555,-0.002838,-0.030518,0.061035,-0.061035
0.836248,-0.119751,0.465831,10.048304,-0.008565,-0.016543,-0.001641,-0.030518,0.061035,-0.061035
0.846314,-0.115560,0.472418,10.053094,-0.004374,-0.009957,0.003149,0.000000,0.030518,-0.030518
0.856380,-0.116757,0.475411,10.053693,-0.005571,-0.006963,0.003748,-0.030518,0.030518,-0.061035
0.866446,-0.111368,0.479004,10.047706,-0.000183,-0.003370,-0.002239,-0.061035,0.061035,-0.061035
0.876512,-0.113165,0.477806,10.052496,-0.001979,-0.004568,0.002551,-0.030518,0.061035,-0.030518
0.886578,-0.110770,0.477806,10.054292,0.000416,-0.004568,0.004347,0.000000,0.061035,-0.030518
0.896642,-0.120948,0.480800,10.052496,-0.009763,-0.001574,0.002551,-0.030518,0.061035,-0.061035
0.906713,-0.126337,0.487985,10.054891,-0.015151,0.005611,0.004946,-0.030518,0.061035,-0.091553
0.916778,-0.121547,0.490380,10.050699,-0.010361,0.008006,0.000754,-0.030518,0.061035,-0.091553
0.926843,-0.122745,0.490380,10.054891,-0.011559,0.008006,0.004946,-0.061035,0.061035,-0.061035
0.936909,-0.115560,0.488584,10.063872,-0.004374,0.006210,0.013927,0.000000,0.061035,-0.061035
0.946975,-0.116757,0.482596,10.061477,-0.005571,0.000222,0.011532,-0.030518,0.030518,-0.061035
0.957040,-0.116158,0.482596,10.065070,-0.004973,0.000222,0.015125,-0.030518,0.061035,-0.030518
0.967106,-0.117356,0.487386,10.050101,-0.006170,0.005012,0.000156,-0.030518,0.091553,-0.061035
0.977171,-0.111368,0.477806,10.051298,-0.000183,-0.004568,0.001353,-0.061035,0.091553,-0.030518
0.987237,-0.118553,0.470023,10.062675,-0.007368,-0.012352,0.012730,-0.061035,0.091553,-0.061035
0.997302,-0.119152,0.476010,10.066866,-0.007966,-0.006364,0.016921,-0.061035,0.122070,-0.030518
1.007372,-0.116757,0.469424,10.054292,-0.005571,-0.012950,0.004347,-0.030518,0.091553,0.000000
1.017437,-0.116757,0.473615,10.053094,-0.005571,-0.008759,0.003149,-0.030518,0.091553,0.000000
1.027502,-0.110171,0.476609,10.059681,0.001015,-0.005765,0.009736,-0.091553,0.122070,-0.030518
1.037568,-0.114362,0.470023,10.060280,-0.003176,-0.012352,0.010335,-0.061035,0.091553,0.000000
1.047633,-0.119152,0.478405,10.057286,-0.007966,-0.003969,0.007341,-0.030518,0.061035,-0.030518
1.057698,-0.110770,0.483195,10.052496,0.000416,0.000821,0.002551,-0.061035,0.030518,-0.030518
1.067763,-0.109572,0.486788,10.048304,0.001614,0.004414,-0.001641,-0.061035,0.030518,-0.030518
1.077828,-0.107776,0.483794,10.057885,0.003410,0.001420,0.007939,-0.061035,0.061035,0.000000
1.087894,-0.108375,0.485590,10.059681,0.002811,0.003216,0.009736,-0.030518,0.061035,0.030518
1.097959,-0.108375,0.488584,10.055490,0.002811,0.006210,0.005544,0.030518,0.030518,0.030518
1.108025,-0.116757,0.495170,10.054891,-0.005571,0.012796,0.004946,0.030518,0.000000,0.030518
1.118090,-0.114362,0.489781,10.053094,-0.003176,0.007407,0.003149,-0.030518,0.030518,0.000000
1.128155,-0.101788,0.484991,10.057286,0.009397,0.002617,0.007341,-0.030518,0.030518,0.030518
1.138221,-0.103585,0.485590,10.064471,0.007601,0.003216,0.014526,-0.030518,0.061035,0.000000
1.148286,-0.106578,0.481399,10.062675,0.004607,-0.000975,0.012730,0.000000,0.061035,-0.030518
1.158351,-0.113763,0.474214,10.056088,-0.002578,-0.008160,0.006143,0.000000,0.030518,-0.030518
1.168416,-0.114961,0.471819,10.053693,-0.003775,-0.010555,0.003748,0.030518,0.061035,-0.030518
1.178482,-0.110171,0.470023,10.060280,0.001015,-0.012352,0.010335,0.030518,0.030518,0.000000
1.188547,-0.113763,0.479603,10.068662,-0.002578,-0.002771,0.018717,0.061035,0.030518,0.000000
1.198613,-0.116757,0.473016,10.068063,-0.005571,-0.009358,0.018118,0.061035,0.061035,0.030518
1.208678,-0.111368,0.474813,10.063273,-0.000183,-0.007562,0.013328,0.030518,0.091553,0.000000
1.218742,-0.116158,0.471220,10.048903,-0.004973,-0.011154,-0.001042,-0.030518,0.061035,0.000000
1.228808,-0.115560,0.468825,10.054292,-0.004374,-0.013549,0.004347,0.000000,0.091553,0.000000
1.238873,-0.118553,0.472418,10.062076,-0.007368,-0.009957,0.012131,-0.030518,0.061035,0.000000
1.249103,-0.115560,0.468226,10.063273,-0.004374,-0.014148,0.013328,-0.030518,0.061035,-0.030518
1.259169,-0.111368,0.471220,10.059681,-0.000183,-0.011154,0.009736,-0.030518,0.030518,0.000000
1.269235,-0.116757,0.475411,10.056088,-0.005571,-0.006963,0.006143,0.000000,0.030518,0.000000
1.279301,-0.109572,0.478405,10.059681,0.001614,-0.003969,0.009736,-0.030518,0.061035,0.000000
1.289366,-0.111368,0.485590,10.071656,-0.000183,0.003216,0.021711,0.000000,0.030518,-0.030518
1.299432,-0.116158,0.483794,10.066267,-0.004973,0.001420,0.016322,0.000000,0.030518,-0.030518
1.309498,-0.116158,0.479004,10.063273,-0.004973,-0.003370,0.013328,-0.030518,0.030518,-0.030518
1.319564,-0.117356,0.473615,10.061477,-0.006170,-0.008759,0.011532,0.000000,0.061035,-0.030518
1.329629,-0.116757,0.471220,10.061477,-0.005571,-0.011154,0.011532,0.000000,0.061035,-0.030518
1.339694,-0.113165,0.474214,10.063273,-0.001979,-0.008160,0.013328,0.000000,0.030518,0.000000
1.349760,-0.102986,0.473016,10.058483,0.008200,-0.009358,0.008538,-0.061035,0.000000,0.000000
1.359827,-0.108375,0.478405,10.050699,0.002811,-0.003969,0.000754,0.000000,0.030518,0.030518
1.369892,-0.109572,0.474214,10.047107,0.001614,-0.008160,-0.002838,-0.030518,0.061035,0.030518
1.379958,-0.111368,0.475411,10.056088,-0.000183,-0.006963,0.006143,0.030518,0.061035,0.000000
1.390024,-0.108973,0.477806,10.056088,0.002212,-0.004568,0.006143,0.030518,0.091553,0.030518
1.400089,-0.107776,0.479603,10.059681,0.003410,-0.002771,0.009736,0.000000,0.091553,0.000000
1.410155,-0.116757,0.485590,10.052496,-0.005571,0.003216,0.002551,0.030518,0.061035,-0.030518
1.420220,-0.116158,0.483794,10.051897,-0.004973,0.001420,0.001952,0.000000,0.061035,-0.030518
1.430286,-0.117356,0.480201,10.054891,-0.006170,-0.002173,0.004946,0.000000,0.030518,-0.030518
1.440351,-0.114362,0.478405,10.056687,-0.003176,-0.003969,0.006742,0.000000,0.030518,-0.030518
1.450416,-0.114961,0.477208,10.061477,-0.003775,-0.005167,0.011532,-0.030518,0.030518,-0.030518
1.460482,-0.111967,0.479004,10.059082,-0.000781,-0.003370,0.009137,-0.030518,0.030518,-0.030518
1.470548,-0.111967,0.480800,10.059681,-0.000781,-0.001574,0.009736,-0.061035,0.030518,-0.061035
1.480613,-0.111967,0.489183,10.070458,-0.000781,0.006809,0.020513,-0.061035,0.000000,-0.061035
1.490679,-0.114362,0.486189,10.072853,-0.003176,0.003815,0.022908,-0.061035,0.030518,-0.061035
1.500745,-0.119152,0.479603,10.063273,-0.007966,-0.002771,0.013328,-0.061035,0.000000,-0.030518
1.510812,-0.115560,0.482596,10.059681,-0.004374,0.000222,0.009736,-0.061035,0.030518,-0.030518
1.520878,-0.118553,0.493374,10.057885,-0.007368,0.011000,0.007939,-0.030518,0.000000,-0.030518
1.530943,-0.123344,0.490380,10.064471,-0.012158,0.008006,0.014526,0.000000,0.000000,-0.030518
1.541009,-0.122745,0.489781,10.065668,-0.011559,0.007407,0.015723,0.030518,0.000000,-0.030518
1.551074,-0.114362,0.480800,10.060878,-0.003176,-0.001574,0.010933,0.030518,0.030518,0.000000
1.561139,-0.114961,0.482596,10.054891,-0.003775,0.000222,0.004946,0.061035,0.030518,0.000000
1.571205,-0.111967,0.476010,10.054891,-0.000781,-0.006364,0.004946,0.030518,0.030518,0.000000
1.581271,-0.110171,0.472418,10.060280,0.001015,-0.009957,0.010335,0.030518,0.030518,0.000000
1.591336,-0.116158,0.476010,10.057885,-0.004973,-0.006364,0.007939,0.030518,0.061035,0.000000
1.601402,-0.116757,0.475411,10.060878,-0.005571,-0.006963,0.010933,0.030518,0.061035,0.000000
1.611467,-0.117356,0.476010,10.062675,-0.006170,-0.006364,0.012730,0.000000,0.061035,0.000000
1.621533,-0.108973,0.472418,10.062675,0.002212,-0.009957,0.012730,0.000000,0.061035,0.000000
1.631599,-0.107776,0.473615,10.063872,0.003410,-0.008759,0.013927,0.000000,0.061035,0.030518
1.641664,-0.110171,0.477806,10.066267,0.001015,-0.004568,0.016322,0.000000,0.061035,0.030518
1.651730,-0.109572,0.480201,10.058483,0.001614,-0.002173,0.008538,0.030518,0.061035,0.030518
1.661795,-0.107177,0.477806,10.049502,0.004009,-0.004568,-0.000443,0.030518,0.061035,0.030518
1.671861,-0.113165,0.479603,10.050101,-0.001979,-0.002771,0.000156,0.061035,0.061035,0.030518
1.681926,-0.114362,0.479603,10.056687,-0.003176,-0.002771,0.006742,0.030518,0.091553,0.030518
1.691993,-0.112566,0.478405,10.063872,-0.001380,-0.003969,0.013927,0.000000,0.061035,0.030518
1.702059,-0.105381,0.485590,10.064471,0.005805,0.003216,0.014526,0.030518,0.061035,0.030518
1.712124,-0.110171,0.480201,10.051298,0.001015,-0.002173,0.001353,0.030518,0.030518,0.000000
1.722189,-0.105980,0.477208,10.052496,0.005206,-0.005167,0.002551,0.030518,0.061035,0.030518
1.732256,-0.107776,0.484991,10.054292,0.003410,0.002617,0.004347,0.030518,0.030518,0.000000
1.742321,-0.108375,0.487386,10.057885,0.002811,0.005012,0.007939,0.000000,0.061035,-0.030518
1.752386,-0.109572,0.481998,10.054292,0.001614,-0.000376,0.004347,0.000000,0.030518,-0.030518
1.762452,-0.114961,0.482596,10.052496,-0.003775,0.000222,0.002551,0.000000,0.061035,-0.030518
1.772518,-0.113165,0.485590,10.058483,-0.001979,0.003216,0.008538,0.000000,0.061035,0.000000
1.782584,-0.117955,0.477208,10.063273,-0.006769,-0.005167,0.013328,0.000000,0.061035,0.030518
1.792649,-0.114362,0.486189,10.065070,-0.003176,0.003815,0.015125,0.000000,0.091553,0.030518
1.802714,-0.111368,0.483794,10.057286,-0.000183,0.001420,0.007341,0.000000,0.061035,0.030518
1.812780,-0.118553,0.483195,10.056088,-0.007368,0.000821,0.006143,0.000000,0.061035,0.030518
1.822845,-0.118553,0.479603,10.052496,-0.007368,-0.002771,0.002551,0.030518,0.091553,0.030518
1.832911,-0.112566,0.486788,10.057286,-0.001380,0.004414,0.007341,0.000000,0.061035,0.030518
1.842977,-0.110770,0.488584,10.056687,0.000416,0.006210,0.006742,0.000000,0.061035,0.030518
1.853043,-0.112566,0.492775,10.053693,-0.001380,0.010401,0.003748,0.030518,0.091553,0.061035
1.863109,-0.104782,0.493374,10.053094,0.006404,0.011000,0.003149,0.030518,0.061035,0.030518
1.873174,-0.110171,0.481998,10.050699,0.001015,-0.000376,0.000754,0.000000,0.061035,0.000000
1.883240,-0.114961,0.476010,10.064471,-0.003775,-0.006364,0.014526,-0.030518,0.061035,0.000000
1.893305,-0.116757,0.474813,10.061477,-0.005571,-0.007562,0.011532,-0.030518,0.061035,0.000000
1.903371,-0.125739,0.464634,10.057885,-0.014553,-0.017740,0.007939,-0.061035,0.061035,0.030518
1.913438,-0.116158,0.468825,10.051298,-0.004973,-0.013549,0.001353,-0.061035,0.091553,0.030518
1.923504,-0.140109,0.716710,10.035132,-0.028923,0.234335,-0.014813,0.061035,0.091553,0.518799
1.933570,-0.168250,1.046025,9.993818,-0.057064,0.563651,-0.056127,-0.030518,0.274658,2.868652
1.943636,-0.220342,1.174757,10.051897,-0.109156,0.692383,0.001952,-0.427246,1.068115,13.397217
1.953702,-0.182620,1.078358,9.964479,-0.071434,0.595983,-0.085466,0.091553,1.312256,18.585205
1.963767,-0.193997,0.862207,10.048903,-0.082811,0.379833,-0.001042,0.244141,1.831055,25.543213
1.973833,-0.113165,0.564626,9.994417,-0.001979,0.082252,-0.055529,0.213623,2.075195,27.160645
1.983898,-0.105980,0.310754,10.072255,0.005206,-0.171620,0.022310,-0.122070,2.166748,27.191162
1.993964,-0.081431,0.077239,10.064471,0.029755,-0.405135,0.014526,0.122070,1.861572,22.918701
2.004030,-0.082628,0.048499,10.074650,0.028558,-0.433875,0.024705,0.122070,1.708984,19.836426
2.014101,-0.085023,0.031135,10.099199,0.026163,-0.451239,0.049254,0.030518,1.159668,13.153076
2.024166,-0.098196,0.114362,10.103390,0.012990,-0.368012,0.053445,0.122070,0.885010,10.070801
2.034232,-0.092208,0.075443,10.108779,0.018978,-0.406931,0.058834,0.488281,0.305176,4.486084
2.044298,-0.105980,0.250280,10.103390,0.005206,-0.232095,0.053445,0.732422,-0.030518,2.044678
2.054363,-0.120948,0.341889,10.115365,-0.009763,-0.140485,0.065420,1.037598,-0.244141,0.823975
2.064429,-0.120948,0.347877,10.099199,-0.009763,-0.134498,0.049254,2.105713,-0.823975,-0.610352
2.074495,-0.108973,0.359852,10.068662,0.002212,-0.122522,0.018717,2.441406,-1.007080,-1.586914
2.084561,-0.071252,0.309556,10.049502,0.039934,-0.172818,-0.000443,2.319336,-1.129150,-3.356934
2.094626,-0.100591,0.458047,10.050101,0.010595,-0.024327,0.000156,1.831055,-1.068115,-4.882812
2.104691,-0.119751,0.611927,10.039922,-0.008565,0.129553,-0.010023,1.342773,-0.823975,-3.845215
2.114757,-0.112566,0.554447,10.025552,-0.001380,0.072073,-0.024393,0.823975,-0.549316,-3.112793
2.124823,-0.112566,0.518522,10.057885,-0.001380,0.036148,0.007939,0.579834,-0.427246,-2.899170
2.134889,-0.115560,0.453856,10.080038,-0.004374,-0.028518,0.030093,1.068115,-0.610352,-2.929688
2.144955,-0.101788,0.450264,10.066267,0.009397,-0.032110,0.016322,1.220703,-0.701904,-3.204346
2.155022,-0.094603,0.456251,10.046508,0.016583,-0.026123,-0.003437,0.885010,-0.610352,-3.997803
2.165087,-0.107177,0.496967,10.020762,0.004009,0.014592,-0.029183,0.488281,-0.549316,-4.516602
2.175153,-0.188009,0.613125,10.024953,-0.076823,0.130751,-0.024992,-0.305176,-0.213623,-3.997803
2.185219,-0.294587,0.607736,10.048903,-0.183402,0.125362,-0.001042,-0.610352,-0.091553,-3.814697
2.195285,-0.272433,0.587977,10.065668,-0.161248,0.105603,0.015723,-0.762939,0.000000,-3.692627
2.205351,-0.120350,0.570015,10.056088,-0.009164,0.087641,0.006143,-0.579834,0.030518,-3.295898
2.215416,-0.079036,0.556842,10.056088,0.032150,0.074468,0.006143,-0.457764,0.030518,-2.868652
2.225482,-0.127535,0.548459,10.058483,-0.016349,0.066085,0.008538,-0.274658,0.091553,-2.105713
2.235548,-0.215552,0.560435,10.060878,-0.104366,0.078060,0.010933,-0.183105,0.091553,-1.800537
2.245613,-0.283211,0.543669,10.056088,-0.172025,0.061295,0.006143,-0.122070,0.091553,-1.312256
2.255679,-0.231718,0.477208,10.071656,-0.120532,-0.005167,0.021711,-0.061035,0.091553,-1.434326
2.265745,-0.186812,0.510139,10.058483,-0.075626,0.027765,0.008538,0.000000,0.091553,-1.403809
2.275812,-0.170645,0.521516,10.026749,-0.059459,0.039141,-0.023196,-0.335693,0.274658,-0.305176
2.285878,-0.126337,0.504152,10.051298,-0.015151,0.021777,0.001353,-0.823975,0.427246,0.030518
2.295944,-0.061672,0.477208,10.069261,0.049514,-0.005167,0.019316,-1.068115,0.549316,0.030518
2.306009,-0.251477,0.441881,10.085427,-0.140291,-0.040493,0.035482,-0.946045,0.457764,-0.213623
2.316074,-0.463436,0.408950,10.076446,-0.352250,-0.073425,0.026501,-0.549316,0.335693,0.091553
2.326140,-0.264650,0.437690,10.044712,-0.153464,-0.044684,-0.005233,-0.518799,0.427246,0.671387
2.336205,0.053289,0.462838,10.048903,0.164475,-0.019537,-0.001042,-0.732422,0.488281,0.488281
2.346271,0.273032,0.531694,10.032737,0.384218,0.049320,-0.017208,-1.068115,0.610352,0.122070
2.356336,0.180824,0.520318,10.060280,0.292010,0.037944,0.010335,-1.403809,0.671387,0.030518
2.366402,0.063468,0.477208,10.074650,0.174654,-0.005167,0.024705,-0.915527,0.488281,0.030518
2.376467,0.017963,0.483794,10.071656,0.129148,0.001420,0.021711,-0.701904,0.366211,0.030518
2.386533,-0.007185,0.507744,10.045909,0.104001,0.025370,-0.004036,-0.640869,0.274658,0.030518
2.396598,-0.053289,0.474214,10.071656,0.057897,-0.008160,0.021711,-0.549316,0.213623,0.030518
2.406663,-0.064666,0.476010,10.066267,0.046520,-0.006364,0.016322,-0.427246,0.213623,0.030518
2.416730,-0.082029,0.477806,10.062076,0.029156,-0.004568,0.012131,-0.213623,0.152588,0.030518
2.426795,-0.097597,0.474214,10.060280,0.013589,-0.008160,0.010335,-0.152588,0.122070,0.000000
2.436861,-0.107177,0.482596,10.063872,0.004009,0.000222,0.013927,-0.061035,0.091553,0.030518
2.446926,-0.113165,0.482596,10.065070,-0.001979,0.000222,0.015125,-0.061035,0.091553,-0.030518
2.456994,-0.118553,0.482596,10.064471,-0.007368,0.000222,0.014526,-0.061035,0.061035,0.000000
2.467061,-0.110770,0.475411,10.052496,0.000416,-0.006963,0.002551,0.000000,0.061035,0.000000
2.477127,-0.120350,0.473016,10.053094,-0.009164,-0.009358,0.003149,0.000000,0.061035,0.030518
2.487193,-0.512534,0.446072,10.071057,-0.401348,-0.036302,0.021112,-0.030518,0.091553,-0.061035
2.497259,-0.491578,0.431104,10.068662,-0.380392,-0.051271,0.018717,0.061035,0.122070,-0.396729
2.507325,-0.216749,0.455054,10.065668,-0.105563,-0.027320,0.015723,0.061035,0.122070,-1.892090
2.517391,-0.164658,0.462838,10.063872,-0.053472,-0.019537,0.013927,0.030518,0.030518,-2.777100
2.527457,-0.185614,0.498164,10.065070,-0.074428,0.015790,0.015125,0.030518,-0.091553,-4.028320
2.537523,-0.242496,0.470621,10.070458,-0.131310,-0.011753,0.020513,0.000000,-0.183105,-4.486084
2.547588,-0.256866,0.429906,10.065668,-0.145680,-0.052468,0.015723,-0.122070,-0.274658,-5.310059
2.557654,-0.167651,0.426912,10.065070,-0.056466,-0.055462,0.015125,-0.030518,-0.335693,-5.432129
2.567721,-0.165256,0.449066,10.061477,-0.054071,-0.033308,0.011532,-0.305176,-0.305176,-5.249023
2.577787,-0.256866,0.461640,10.065070,-0.145680,-0.020734,0.015125,-0.457764,-0.274658,-5.737305
2.587853,-0.204774,0.491578,10.066267,-0.093588,0.009204,0.016322,-0.274658,-0.274658,-5.920410
2.597920,-0.183219,0.578397,10.050101,-0.072033,0.096023,0.000156,-0.213623,-0.305176,-5.767822
2.607987,-0.104782,0.601749,10.046508,0.006404,0.119375,-0.003437,-0.183105,-0.335693,-5.584717
2.618064,-0.102387,0.568817,10.056088,0.008799,0.086443,0.006143,0.061035,-0.366211,-5.401611
2.628133,-0.253273,0.574805,10.057885,-0.142088,0.092431,0.007939,-0.061035,-0.335693,-5.187988
2.638199,-0.285606,0.574206,10.057885,-0.174420,0.091832,0.007939,0.030518,-0.335693,-4.760742
2.648267,-0.129930,0.452060,10.066267,-0.018744,-0.030314,0.016322,0.091553,-0.335693,-3.845215
2.658335,-0.111967,0.390388,10.059082,-0.000781,-0.091986,0.009137,0.183105,-0.305176,-3.906250
2.668402,-0.134121,0.350272,10.072853,-0.022935,-0.132103,0.022908,0.183105,-0.274658,-4.669189
2.678468,-0.102387,0.371228,10.066267,0.008799,-0.111146,0.016322,0.213623,-0.335693,-5.157471
2.688534,-0.050295,0.404160,10.068662,0.060890,-0.078215,0.018717,0.183105,-0.427246,-5.920410
2.698599,-0.124541,0.529898,10.065668,-0.013355,0.047524,0.015723,0.274658,-0.457764,-5.981445
2.708665,-0.241298,0.521516,10.060280,-0.130112,0.039141,0.010335,0.305176,-0.488281,-6.072998
2.718730,-0.259261,0.482596,10.062675,-0.148075,0.000222,0.012730,0.366211,-0.610352,-6.713867
2.728795,-0.218546,0.475411,10.065070,-0.107360,-0.006963,0.015125,0.366211,-0.640869,-6.866455
2.738860,-0.237107,0.452659,10.071656,-0.125921,-0.029715,0.021711,0.396729,-0.579834,-6.103516
2.748926,-0.272433,0.439486,10.075248,-0.161248,-0.042888,0.025303,0.457764,-0.579834,-6.042480
2.758992,-0.291594,0.430505,10.072853,-0.180408,-0.051869,0.022908,0.335693,-0.640869,-6.195068
2.769057,-0.325723,0.390388,10.073452,-0.214537,-0.091986,0.023507,0.244141,-0.732422,-6.591797
2.779123,-0.375419,0.383802,10.066866,-0.264234,-0.098572,0.016921,0.213623,-0.732422,-7.049561
2.789189,-0.325723,0.448467,10.071057,-0.214537,-0.033907,0.021112,0.366211,-0.701904,-7.171631
2.799255,-0.292791,0.457449,10.060280,-0.181605,-0.024925,0.010335,0.152588,-0.640869,-6.164551
2.809321,-0.283810,0.446072,10.071057,-0.172624,-0.036302,0.021112,0.427246,-0.640869,-5.432129
2.819385,-0.271835,0.455054,10.065070,-0.160649,-0.027320,0.015125,0.274658,-0.610352,-5.493164
2.829451,-0.223934,0.433499,10.069860,-0.112749,-0.048876,0.019915,0.366211,-0.640869,-6.408691
2.839516,-0.231119,0.484393,10.072255,-0.119934,0.002019,0.022310,0.396729,-0.701904,-7.232666
2.849582,-0.274828,0.499362,10.052496,-0.163643,0.016987,0.002551,0.488281,-0.640869,-7.781982
2.859648,-0.303569,0.546663,10.054292,-0.192383,0.064289,0.004347,0.488281,-0.549316,-6.988525
2.869713,-0.219144,0.539478,10.055490,-0.107958,0.057104,0.005544,0.396729,-0.549316,-5.798340
2.879779,-0.289199,0.468825,10.071656,-0.178013,-0.013549,0.021711,0.366211,-0.518799,-3.845215
2.889844,-0.343685,0.437690,10.077643,-0.232500,-0.044684,0.027698,0.274658,-0.457764,-2.990723
2.899911,-0.387394,0.467628,10.060878,-0.276209,-0.014747,0.010933,-0.518799,-0.366211,-2.136230
2.909981,-0.210163,0.416135,10.066866,-0.098977,-0.066240,0.016921,-0.762939,-0.366211,-2.716064
2.920048,-0.270637,0.484991,10.041718,-0.159451,0.002617,-0.008227,-0.823975,-0.305176,-3.204346
2.930113,-0.245490,0.438887,10.106982,-0.134304,-0.043487,0.057037,-1.098633,-0.244141,-3.112793
2.940178,-0.259860,0.483195,10.053693,-0.148674,0.000821,0.003748,-0.701904,-0.091553,-3.265381
2.950244,-0.279020,0.395777,10.064471,-0.167834,-0.086597,0.014526,-0.915527,-0.213623,-3.326416
2.960309,-0.237706,0.329914,10.075248,-0.126520,-0.152460,0.025303,-1.068115,-0.213623,-3.723145
2.970374,-0.269440,0.559836,10.061477,-0.158254,0.077462,0.011532,-0.213623,-0.061035,-2.014160
2.980440,-0.237706,0.576002,10.054891,-0.126520,0.093628,0.004946,-0.061035,0.061035,-0.457764
2.990505,-0.188009,0.440085,10.059082,-0.076823,-0.042289,0.009137,0.274658,0.122070,-0.549316
3.000571,-0.244292,0.534089,10.009385,-0.133106,0.051715,-0.040560,0.823975,0.335693,0.427246
3.010643,-0.343087,0.472418,10.026151,-0.231901,-0.009957,-0.023795,0.640869,0.366211,0.640869
3.020709,-0.233514,0.441881,10.054292,-0.122329,-0.040493,0.004347,-0.335693,0.335693,0.976562
3.030775,-0.208367,0.495170,10.066866,-0.097181,0.012796,0.016921,-0.427246,0.274658,0.762939
3.040841,-0.168250,0.558638,10.114167,-0.057064,0.076264,0.064222,-0.183105,0.274658,2.197266
3.050908,-0.228126,0.540077,10.041119,-0.116940,0.057703,-0.008826,-0.427246,0.335693,3.021240
3.060973,-0.220941,0.564626,10.044113,-0.109755,0.082252,-0.005832,-0.366211,0.335693,2.929688
3.071039,-0.075443,0.545466,10.036928,0.035743,0.063092,-0.013017,0.396729,0.183105,1.892090
3.081105,-0.049697,0.580193,10.018367,0.061489,0.097819,-0.031578,0.885010,0.152588,0.701904
3.091170,0.123942,0.459844,10.041119,0.235128,-0.022530,-0.008826,0.396729,0.030518,-1.708984
3.101236,0.010179,0.548459,10.040521,0.121365,0.066085,-0.009424,0.396729,-0.183105,-2.960205
3.111302,-0.159269,0.686772,10.009984,-0.048083,0.204398,-0.039961,-0.671387,-0.244141,-1.861572
3.121367,-0.164658,0.513732,10.080637,-0.053472,0.031358,0.030692,-1.098633,-0.305176,-1.739502
3.131433,-0.122146,0.408950,10.075847,-0.010960,-0.073425,0.025902,-1.159668,-0.457764,-2.044678
3.141498,0.058079,0.314945,10.061477,0.169265,-0.167429,0.011532,-0.732422,-0.732422,-4.425049
3.151564,0.133522,0.406555,10.112371,0.244708,-0.075820,0.062426,-0.366211,-0.854492,-5.035400
3.161629,-0.004790,0.257465,10.190808,0.106396,-0.224910,0.140863,0.213623,-1.037598,-5.615234
3.171694,-0.061672,0.265248,9.984836,0.049514,-0.217126,-0.065109,1.434326,-1.403809,-8.148193
3.181759,-0.068258,0.347278,10.081835,0.042928,-0.135096,0.031890,1.251221,-1.586914,-10.650635
3.191826,-0.280816,0.416135,10.020762,-0.169630,-0.066240,-0.029183,1.190186,-1.342773,-9.735107
3.201891,-0.070054,0.542472,10.089020,0.041131,0.060098,0.039075,1.373291,-1.220703,-8.880615
3.211957,-0.273032,0.608335,10.093211,-0.161846,0.125961,0.043266,1.525879,-1.251221,-4.943848
3.222023,-0.296982,0.449665,10.024354,-0.185797,-0.032709,-0.025591,1.556396,-1.159668,-3.540039
3.232089,-0.417931,0.377814,10.106982,-0.306745,-0.104560,0.057037,0.793457,-1.098633,-4.211426
3.242155,-0.438289,0.476010,10.012379,-0.327103,-0.006364,-0.037566,0.488281,-0.946045,-4.058838
3.252220,-0.376018,0.389789,10.051897,-0.264832,-0.092585,0.001952,0.274658,-0.762939,-4.638672
3.262286,-0.368234,0.486189,10.041119,-0.257048,0.003815,-0.008826,0.091553,-0.549316,-4.882812
3.272351,-0.564626,0.502355,10.040521,-0.453440,0.019981,-0.009424,0.244141,-0.366211,-4.669189
3.282416,-0.444875,0.404160,10.061477,-0.333689,-0.078215,0.011532,0.335693,-0.213623,-4.150391
3.292482,-0.350272,0.368833,10.053094,-0.239086,-0.113541,0.003149,0.091553,-0.213623,-4.058838
3.302548,-0.382006,0.551453,10.028546,-0.270820,0.069079,-0.021399,0.091553,-0.122070,-2.593994
3.312614,-0.356259,0.529898,10.037527,-0.245073,0.047524,-0.012418,-0.488281,-0.152588,-2.716064
3.322679,-0.358654,0.556842,10.008188,-0.247468,0.074468,-0.041757,-0.183105,-0.061035,-3.326416
3.332745,-0.353265,0.559836,10.085427,-0.242080,0.077462,0.035482,-0.335693,-0.091553,-2.929688
3.342811,-0.274828,0.523911,10.015373,-0.163643,0.041536,-0.034572,-0.640869,0.091553,-3.173828
3.352877,-0.179028,0.602946,10.040521,-0.067842,0.120572,-0.009424,-0.091553,-0.122070,-5.157471
3.362943,-0.197589,0.505349,10.042916,-0.086403,0.022975,-0.007029,-0.671387,-0.244141,-4.730225
3.373009,-0.238903,0.422721,10.112371,-0.127717,-0.059653,0.062426,-1.220703,-0.427246,-5.828857
3.383075,-0.197589,0.381407,10.086625,-0.086403,-0.100967,0.036680,-1.403809,-0.518799,-6.805420
3.393140,-0.142504,0.424517,10.128538,-0.031318,-0.057857,0.078593,-1.770020,-0.946045,-8.178711
3.403206,-0.150287,0.437091,10.078242,-0.039102,-0.045283,0.028297,-1.800537,-1.251221,-8.087158
3.413271,-0.252076,0.502355,10.073452,-0.140890,0.019981,0.023507,-1.373291,-1.495361,-8.209229
3.423337,-0.149090,0.389789,10.075248,-0.037904,-0.092585,0.025303,-0.457764,-1.312256,-6.378174
3.433403,-0.022753,0.424517,10.077643,0.088433,-0.057857,0.027698,-0.091553,-1.251221,-5.462646
3.443468,-0.136516,0.555046,10.106982,-0.025330,0.072672,0.057037,0.549316,-0.915527,-4.333496
3.453536,-0.254471,0.571212,10.039323,-0.143285,0.088838,-0.010622,0.762939,-0.518799,-3.692627
3.463601,-0.265248,0.518522,10.053693,-0.154063,0.036148,0.003748,0.610352,-0.061035,-2.868652
3.473667,-0.092807,0.598156,10.058483,0.018379,0.115782,0.008538,0.305176,0.152588,-2.563477
3.483732,-0.096998,0.574805,10.027348,0.014187,0.092431,-0.022597,0.091553,0.457764,-1.892090
3.493798,-0.246088,0.599354,10.030342,-0.134902,0.116979,-0.019603,0.213623,1.068115,-1.708984
3.503864,-0.182021,0.496368,10.057286,-0.070836,0.013994,0.007341,0.213623,1.190186,-1.068115
3.513930,-0.050894,0.389789,10.057286,0.060292,-0.092585,0.007341,0.183105,1.495361,-1.159668
3.523996,-0.023950,0.355062,10.079440,0.087236,-0.127313,0.029495,0.091553,1.434326,-1.892090
3.534061,-0.052092,0.522114,10.108180,0.059094,0.039740,0.058235,0.244141,1.373291,-2.655029
3.544126,-0.279020,0.565225,10.052496,-0.167834,0.082850,0.002551,0.152588,1.068115,-3.387451
3.554191,-0.263452,0.609532,9.995015,-0.152266,0.127158,-0.054930,-0.030518,0.701904,-2.685547
3.564258,0.092208,0.531694,10.065668,0.203394,0.049320,0.015723,0.396729,0.427246,-1.800537
3.574324,0.085023,0.643063,10.071057,0.196209,0.160689,0.021112,0.335693,0.274658,-2.227783
3.584389,-0.125739,0.658032,10.011780,-0.014553,0.175657,-0.038165,0.274658,-0.091553,-2.319336
3.594455,-0.098795,0.626896,10.035132,0.012391,0.144522,-0.014813,-0.335693,-0.122070,-1.556396
3.604521,-0.088616,0.628693,10.058483,0.022570,0.146318,0.008538,0.518799,-0.030518,-1.556396
3.614587,-0.055684,0.559836,10.045909,0.055502,0.077462,-0.004036,0.244141,-0.061035,-1.251221
3.624653,-0.088017,0.542472,10.070458,0.023169,0.060098,0.020513,0.030518,-0.213623,-1.770020
3.634718,-0.180225,0.542472,10.041119,-0.069039,0.060098,-0.008826,0.640869,-0.518799,-2.655029
3.644785,-0.097597,0.581990,10.025552,0.013589,0.099616,-0.024393,0.579834,-0.701904,-2.990723
3.654851,-0.022753,0.547861,10.027947,0.088433,0.065487,-0.021998,0.640869,-0.579834,-3.753662
3.664917,0.037722,0.487386,10.015972,0.148907,0.005012,-0.033973,0.610352,-0.762939,-4.852295
3.674982,-0.087418,0.551453,10.063872,0.023768,0.069079,0.013927,0.183105,-0.793457,-5.798340
3.685047,-0.045505,0.434696,10.037527,0.065680,-0.047678,-0.012418,0.030518,-0.793457,-6.225586
3.695114,-0.037722,0.329315,10.038724,0.073464,-0.153059,-0.011221,-0.183105,-0.915527,-7.080078
3.705180,-0.044308,0.489183,9.960287,0.066878,0.006809,-0.089658,0.244141,-0.762939,-7.659912
3.715245,0.007784,0.523911,10.050101,0.118970,0.041536,0.000156,0.366211,-0.579834,-6.622314
3.725311,0.016765,0.520318,10.115964,0.127951,0.037944,0.066019,0.457764,-0.183105,-5.859375
3.735377,0.016166,0.581391,10.003997,0.127352,0.099017,-0.045948,0.366211,-0.030518,-5.798340
3.745450,0.012574,0.558040,10.125544,0.123760,0.075665,0.075599,-0.701904,0.000000,-6.866455
3.755518,0.017963,0.508942,10.048304,0.129148,0.026568,-0.001641,-0.640869,-0.152588,-7.873535
3.765584,0.073647,0.495769,10.026749,0.184833,0.013395,-0.023196,0.213623,-0.335693,-8.941650
3.775649,0.250280,0.645458,10.046508,0.361465,0.163084,-0.003437,0.610352,-0.335693,-9.063721
3.785715,0.108375,0.576002,10.050101,0.219560,0.093628,0.000156,-0.030518,-0.305176,-8.544922
3.795835,-0.093406,0.411943,10.067465,0.017780,-0.070431,0.017520,0.274658,-0.488281,-9.338379
3.805926,-0.002994,0.386197,10.050699,0.108192,-0.096177,0.000754,0.610352,-0.427246,-8.850098
3.816016,0.068258,0.436492,10.017768,0.179444,-0.045882,-0.032177,0.946045,-0.335693,-9.277344
3.826107,0.114961,0.540077,10.005194,0.226147,0.057703,-0.044751,1.953125,-0.183105,-9.460449
3.836197,0.013173,0.596360,10.029743,0.124358,0.113986,-0.020202,1.525879,-0.213623,-9.094238
3.846285,0.040715,0.473615,10.025552,0.151901,-0.008759,-0.024393,1.953125,-0.091553,-10.223389
3.856375,-0.059277,0.440684,10.048304,0.051909,-0.041691,-0.001641,1.068115,-0.213623,-10.894775
3.866465,-0.347877,0.550854,10.063872,-0.236691,0.068480,0.013927,-0.152588,-0.152588,-9.887695
3.876555,-0.383203,0.344284,10.061477,-0.272017,-0.138090,0.011532,-0.518799,0.000000,-8.575439
3.886644,-0.093406,0.231119,10.075847,0.017780,-0.251255,0.025902,-1.068115,0.274658,-7.873535
3.896806,-0.093406,0.260458,10.069261,0.017780,-0.221916,0.019316,-0.915527,0.488281,-7.720947
3.906977,-0.029339,0.381407,10.084230,0.081847,-0.100967,0.034285,1.068115,1.037598,-5.950928
3.917075,-0.352068,0.398771,10.017169,-0.240882,-0.083603,-0.032776,-0.427246,0.732422,-4.333496
3.927171,-0.075443,0.265248,10.064471,0.035743,-0.217126,0.014526,1.525879,0.732422,-5.310059
3.937268,0.177830,0.407752,10.150692,0.289016,-0.074622,0.100746,1.800537,0.610352,-4.943848
3.947366,-0.212558,0.544268,10.145303,-0.101372,0.061894,0.095358,-0.305176,0.366211,-3.631592
3.957463,-0.226928,0.632285,10.115964,-0.115742,0.149911,0.066019,-1.373291,0.152588,-1.525879
3.967560,-0.146695,0.527503,10.103989,-0.035509,0.045129,0.054044,-1.922607,0.061035,-0.305176
3.977657,-0.111368,0.349074,10.049502,-0.000183,-0.133300,-0.000443,-1.251221,-0.183105,-2.319336
3.987755,-0.005389,0.279020,10.109976,0.105797,-0.203354,0.060031,-0.671387,-0.396729,-4.394531
3.997879,-0.135319,0.469424,10.106384,-0.024133,-0.012950,0.056439,0.091553,-0.549316,-4.852295
4.007977,-0.286804,0.798140,10.046508,-0.175618,0.315766,-0.003437,0.244141,-0.610352,-3.540039
4.018073,-0.234113,0.614921,10.040521,-0.122927,0.132547,-0.009424,0.549316,-0.579834,-1.953125
4.028167,-0.058079,0.782573,10.004595,0.053107,0.300198,-0.045350,0.854492,-0.549316,-1.831055
4.038264,0.002994,0.671204,10.030941,0.114180,0.188830,-0.019004,0.366211,-0.976562,-3.051758
4.048362,-0.144899,0.839454,10.002799,-0.033713,0.357080,-0.047146,0.000000,-1.037598,-5.950928
4.058456,-0.096400,0.499362,10.041119,0.014786,0.016987,-0.008826,-0.061035,-1.190186,-7.385254
4.068553,-0.097597,0.552651,10.041119,0.013589,0.070277,-0.008826,0.549316,-0.762939,-9.277344
4.078650,-0.125140,0.313748,10.056687,-0.013954,-0.168627,0.006742,0.854492,-0.701904,-10.711670
4.088747,-0.228126,0.386796,10.048903,-0.116940,-0.095578,-0.001042,1.220703,-0.732422,-11.413574
4.098877,-0.435295,0.507145,10.039323,-0.324109,0.024771,-0.010622,-1.098633,-0.885010,-9.399414
4.108975,-0.249681,0.416733,10.085427,-0.138495,-0.065641,0.035482,-1.953125,-0.793457,-7.904053
4.119071,-0.487386,0.599952,10.069261,-0.376201,0.117578,0.019316,-2.044678,-0.335693,-5.493164
4.129168,-0.621508,0.431702,10.103390,-0.510322,-0.050672,0.053445,-2.777100,0.183105,-3.753662
4.139265,-0.392184,0.301174,10.062675,-0.280999,-0.181200,0.012730,-3.204346,0.610352,0.274658
4.149362,-0.285007,0.234113,10.086625,-0.173822,-0.248261,0.036680,-3.265381,0.946045,1.464844
4.159455,-0.285606,0.413141,10.072255,-0.174420,-0.069233,0.022310,-2.563477,0.732422,2.471924
4.169552,-0.286205,0.442480,10.112970,-0.175019,-0.039894,0.063025,-1.495361,0.457764,7.598877
4.179650,-0.379012,0.393981,10.153087,-0.267826,-0.088393,0.103142,-1.556396,0.915527,9.796143
4.189746,-0.171244,0.152084,10.056088,-0.060058,-0.330290,0.006143,-0.732422,-0.061035,11.932373
4.199868,-0.087418,0.138312,10.060878,0.023768,-0.344062,0.010933,-0.457764,-0.518799,10.498047
4.209965,0.131726,0.376018,10.056687,0.242912,-0.106356,0.006742,0.335693,-1.068115,8.636475
4.220062,0.103585,0.425715,10.066866,0.214770,-0.056659,0.016921,1.068115,-1.281738,7.568359
4.230160,-0.165855,0.693358,10.045909,-0.054669,0.210984,-0.004036,-0.396729,-0.213623,7.690430
4.240257,-0.317340,0.598755,10.054292,-0.206154,0.116381,0.004347,-0.701904,-0.061035,7.812500
4.250671,-0.111967,0.578397,10.043514,-0.000781,0.096023,-0.006431,-1.190186,0.213623,7.568359
4.260770,0.065264,0.622106,10.032138,0.176450,0.139732,-0.017807,-0.946045,-0.091553,5.920410
4.270867,-0.103585,0.518522,10.008188,0.007601,0.036148,-0.041757,-1.434326,-0.030518,4.211426
4.280965,-0.136516,0.376617,10.027947,-0.025330,-0.105757,-0.021998,-0.762939,-0.488281,0.549316
4.291062,-0.174836,0.432900,10.078841,-0.063651,-0.049474,0.028896,-0.244141,-0.640869,0.579834
4.301255,-0.226329,0.489781,10.037527,-0.115144,0.007407,-0.012418,0.152588,-0.671387,0.274658
4.311346,-0.202978,0.311353,10.056687,-0.091792,-0.171022,0.006742,0.305176,-0.885010,-1.068115
4.321440,-0.034129,0.507145,10.060280,0.077057,0.024771,0.010335,0.213623,-1.251221,-1.983643
4.331531,-0.044308,0.568218,10.042916,0.066878,0.085844,-0.007029,1.983643,-0.396729,-2.349854
4.341621,-0.053888,0.617316,10.043514,0.057298,0.134942,-0.006431,2.288818,-0.152588,-1.800537
4.351712,-0.232317,0.516725,10.055490,-0.121131,0.034351,0.005544,1.861572,-0.244141,-3.692627
4.361802,-0.216151,0.489781,10.023157,-0.104965,0.007407,-0.026788,1.556396,-0.274658,-4.119873
4.371893,-0.104183,0.474214,10.041119,0.007002,-0.008160,-0.008826,0.946045,-0.396729,-4.760742
4.381983,-0.122745,0.534688,10.003398,-0.011559,0.052314,-0.046547,0.946045,-0.091553,-5.157471
4.392073,0.038320,0.555046,10.072853,0.149506,0.072672,0.022908,1.129150,0.427246,-4.272461
4.402243,-0.032333,0.683179,10.034533,0.078853,0.200805,-0.015412,0.793457,0.732422,-3.906250
4.412338,-0.105381,0.724493,10.035132,0.005805,0.242119,-0.014813,0.701904,1.007080,-3.295898
4.422432,-0.128134,0.642464,10.033336,-0.016948,0.160090,-0.016609,-0.274658,0.671387,-4.486084
4.432529,-0.023950,0.814905,10.017768,0.087236,0.332531,-0.032177,-0.244141,0.671387,-4.486084
4.442626,-0.144300,0.449066,10.062675,-0.033114,-0.033308,0.012730,-1.190186,0.335693,-5.004883
4.452724,-0.097597,0.419128,10.086625,0.013589,-0.063246,0.036680,-0.701904,0.183105,-6.134033
4.462821,-0.215552,0.414338,10.038724,-0.104366,-0.068036,-0.011221,-1.068115,-0.061035,-5.126953
4.472917,-0.084424,0.390987,10.081236,0.026761,-0.091387,0.031291,-1.159668,-0.274658,-5.004883
4.483015,-0.138312,0.417332,10.064471,-0.027127,-0.065042,0.014526,-1.190186,-0.366211,-5.798340
4.493111,-0.025746,0.419727,10.069261,0.085439,-0.062647,0.019316,-0.793457,-0.579834,-7.019043
4.503243,-0.167651,0.495170,10.085427,-0.056466,0.012796,0.035482,-0.885010,-0.701904,-7.415771
4.513341,-0.057480,0.390388,10.039922,0.053705,-0.091986,-0.010023,-0.610352,-0.793457,-5.218506
4.523438,-0.098795,0.123942,10.075248,0.012391,-0.358432,0.025303,-0.457764,-0.762939,-4.150391
4.533535,-0.246088,0.280217,10.087822,-0.134902,-0.202157,0.037877,-0.213623,-0.854492,0.030518
4.543632,-0.183818,0.308958,10.089020,-0.072632,-0.173417,0.039075,-0.244141,-0.915527,1.892090
4.553729,-0.142504,0.474214,10.048903,-0.031318,-0.008160,-0.001042,0.061035,-1.007080,2.868652
4.563844,-0.108375,0.590372,10.053094,0.002811,0.107998,0.003149,0.457764,-0.915527,4.364014
4.573943,-0.219144,0.592169,10.083032,-0.107958,0.109794,0.033087,0.518799,-0.885010,3.570557
4.584040,-0.063468,0.664019,10.072853,0.047718,0.181645,0.022908,0.976562,-0.732422,2.258301
4.594139,0.007185,0.685574,10.062076,0.118371,0.203200,0.012131,1.098633,-0.671387,1.953125
4.604263,-0.007784,0.718506,10.005793,0.103402,0.236132,-0.044152,1.220703,-0.091553,0.579834
4.614360,-0.131127,0.693957,10.011780,-0.019942,0.211583,-0.038165,1.129150,0.030518,0.152588
4.624458,0.049098,0.711321,10.023157,0.160284,0.228947,-0.026788,1.281738,0.396729,1.159668
4.634554,-0.174238,0.568817,10.050101,-0.063052,0.086443,0.000156,0.457764,0.396729,0.854492
4.644651,-0.116757,0.450862,10.032138,-0.005571,-0.031512,-0.017807,0.183105,0.244141,0.488281
4.654747,-0.086819,0.567021,10.029743,0.024366,0.084647,-0.020202,-0.091553,0.488281,1.525879
4.664843,-0.116757,0.463436,10.019564,-0.005571,-0.018938,-0.030381,-0.366211,0.793457,3.234863
4.674936,-0.134121,0.338895,10.071057,-0.022935,-0.143479,0.021112,-0.610352,0.579834,4.211426
4.685033,-0.158071,0.361049,10.075847,-0.046886,-0.121325,0.025902,-0.610352,0.579834,4.760742
4.695129,-0.070054,0.145497,10.088421,0.041131,-0.336877,0.038476,0.061035,1.281738,5.859375
4.705252,-0.244891,0.423320,10.011182,-0.133705,-0.059054,-0.038763,0.152588,1.708984,6.805420
4.715349,-0.163460,0.440085,10.037527,-0.052274,-0.042289,-0.012418,-0.244141,1.861572,8.300781
4.725445,-0.037722,0.539478,10.072255,0.073464,0.057104,0.022310,-1.281738,1.831055,7.965088
4.735541,-0.115560,0.634081,10.050699,-0.004374,0.151707,0.000754,-1.403809,1.892090,7.049561
4.745638,-0.061073,0.502355,10.005194,0.050113,0.019981,-0.044751,-0.671387,1.770020,6.164551
4.755735,-0.079634,0.432301,10.026151,0.031551,-0.050073,-0.023795,-0.610352,1.464844,4.882812
4.765831,0.046703,0.394579,10.047107,0.157889,-0.087795,-0.002838,-1.098633,0.671387,2.685547
4.775927,-0.358654,0.429906,10.089020,-0.247468,-0.052468,0.039075,-1.617432,0.457764,2.471924
4.786023,-0.224533,0.305964,10.051298,-0.113347,-0.176410,0.001353,-1.770020,0.305176,1.678467
4.796119,-0.057480,0.396376,10.051298,0.053705,-0.085998,0.001353,-0.854492,0.213623,1.373291
4.806241,-0.132325,0.401765,10.004595,-0.021139,-0.080610,-0.045350,-0.610352,0.305176,1.556396
4.816338,-0.065863,0.125739,10.095606,0.045323,-0.356636,0.045661,0.366211,0.366211,0.396729
4.826434,-0.301174,0.527503,10.066866,-0.189988,0.045129,0.016921,0.244141,0.488281,0.946045
4.836530,-0.247885,0.519719,10.086625,-0.136699,0.037345,0.036680,-0.762939,-0.061035,2.471924
4.846627,-0.420925,0.378413,10.137519,-0.309739,-0.103961,0.087574,-0.610352,-0.061035,2.502441
4.856723,-0.132924,0.374821,10.161469,-0.021738,-0.107554,0.111524,0.518799,0.335693,4.364014
4.866819,-0.344284,0.632884,10.018965,-0.233098,0.150510,-0.030980,1.312256,0.640869,5.706787
4.876915,-0.250878,0.485590,10.071057,-0.139693,0.003216,0.021112,0.610352,0.244141,6.011963
4.887012,-0.173639,0.076042,10.083032,-0.062453,-0.406332,0.033087,1.831055,0.244141,1.251221
4.897108,-0.211959,0.913700,10.038724,-0.100773,0.431326,-0.011221,2.258301,0.488281,2.441406
4.907333,-0.313149,0.339494,10.062675,-0.201963,-0.142880,0.012730,2.410889,1.190186,8.087158
4.917430,-0.249082,0.916694,9.989626,-0.137896,0.434320,-0.060319,1.892090,1.312256,8.636475
4.927527,-0.256866,0.754431,9.927356,-0.145680,0.272057,-0.122589,0.732422,1.373291,11.260986
4.937624,-0.082029,0.470023,10.058483,0.029156,-0.012352,0.008538,0.244141,0.885010,6.927490
4.947720,0.024549,0.578996,9.923165,0.135735,0.096622,-0.126780,0.366211,0.671387,5.157471
4.957816,0.011975,0.373623,10.018367,0.123161,-0.108751,-0.031578,0.030518,0.061035,-0.274658
4.967912,-0.071252,0.588576,10.116563,0.039934,0.106202,0.066617,0.000000,0.030518,0.030518
4.978008,-0.253872,0.662223,10.042317,-0.142686,0.179849,-0.007628,-1.342773,-0.091553,2.075195
4.988104,-0.125140,0.581990,10.078841,-0.013954,0.099616,0.028896,-1.434326,0.061035,3.082275
4.998200,-0.066462,0.493374,10.077643,0.044724,0.011000,0.027698,-1.739502,0.000000,4.089355
5.008322,-0.043110,0.693957,9.980046,0.068075,0.211583,-0.069899,-0.915527,0.488281,4.791260
5.018417,-0.220941,0.623903,10.037527,-0.109755,0.141528,-0.012418,-1.922607,0.457764,6.835938
5.028514,-0.200583,0.429307,10.115365,-0.089397,-0.053067,0.065420,-0.762939,-0.183105,6.103516
5.038610,-0.174238,0.361648,10.103390,-0.063052,-0.120726,0.053445,-0.244141,-0.671387,4.394531
5.048706,-0.130529,0.490979,10.009984,-0.019343,0.008605,-0.039961,0.366211,-0.640869,5.462646
5.058803,-0.058678,0.531096,10.001602,0.052508,0.048721,-0.048343,0.976562,-0.366211,6.408691
5.068899,0.065863,0.611927,9.986034,0.177049,0.129553,-0.063911,1.281738,-0.305176,6.561279
5.078992,-0.143102,0.598156,10.021959,-0.031917,0.115782,-0.027986,0.793457,-0.457764,5.554199
5.089088,-0.065863,0.605341,9.989626,0.045323,0.122967,-0.060319,0.396729,-0.122070,5.279541
5.099184,0.016166,0.435295,9.997410,0.127352,-0.047079,-0.052535,0.122070,0.091553,5.615234
5.109315,-0.147892,0.500559,9.992021,-0.036707,0.018185,-0.057924,0.030518,0.274658,5.096436
5.119411,-0.242496,0.395777,10.026151,-0.131310,-0.086597,-0.023795,0.000000,0.549316,6.225586
5.129508,-0.282014,0.383203,10.004595,-0.170828,-0.099171,-0.045350,-0.396729,0.762939,6.591797
5.139603,-0.169448,0.400567,9.998608,-0.058262,-0.081807,-0.051337,-0.640869,0.915527,6.042480
5.149699,-0.323328,0.506547,10.029144,-0.212142,0.024172,-0.020801,-0.274658,0.885010,5.584717
5.159792,-0.346080,0.340093,10.047107,-0.234895,-0.142281,-0.002838,-1.037598,1.159668,4.730225
5.169888,-0.227527,0.478405,10.029743,-0.116341,-0.003969,-0.020202,-0.915527,0.976562,3.906250
5.179983,-0.330513,0.659229,10.105186,-0.219327,0.176855,0.055241,-1.068115,0.640869,3.875732
5.190081,-0.458646,0.443677,10.021959,-0.347460,-0.038697,-0.027986,0.427246,0.518799,3.601074
5.200179,-0.279020,0.377216,9.998009,-0.167834,-0.105159,-0.051936,1.434326,0.762939,3.875732
5.210307,-0.340093,0.413141,10.042916,-0.228907,-0.069233,-0.007029,0.732422,-0.183105,2.532959
5.220403,-0.443677,0.568218,9.958491,-0.332492,0.085844,-0.091454,0.885010,-0.335693,2.471924
5.230500,-0.364043,0.435894,10.005793,-0.252857,-0.046481,-0.044152,0.518799,0.030518,3.967285
5.240597,-0.183219,0.457449,10.020163,-0.072033,-0.024925,-0.029782,0.183105,-0.061035,4.272461
5.250693,-0.195793,0.486788,10.083631,-0.084607,0.004414,0.033686,-0.610352,0.000000,4.852295
5.260788,-0.177830,0.240101,10.088421,-0.066644,-0.242273,0.038476,-0.579834,0.152588,4.150391
5.270885,-0.019160,0.241298,10.105785,0.092026,-0.241076,0.055840,0.183105,0.030518,3.936768
5.280981,-0.071851,0.492775,10.081835,0.039335,0.010401,0.031890,1.831055,0.091553,5.371094
5.291077,-0.309556,0.549058,10.011780,-0.198370,0.066684,-0.038165,1.251221,0.000000,4.852295
5.301174,-0.356858,0.515528,9.983639,-0.245672,0.033154,-0.066306,0.244141,-0.030518,4.028320
5.311295,-0.084424,0.431702,9.947714,0.026761,-0.050672,-0.102231,-0.091553,0.091553,4.394531
5.321391,-0.304766,0.451461,10.014774,-0.193580,-0.030913,-0.035171,-0.366211,0.213623,5.126953
5.331487,-0.220941,0.344284,10.036329,-0.109755,-0.138090,-0.013616,-0.610352,0.305176,6.378174
5.341583,-0.017364,0.317939,10.092014,0.093822,-0.164435,0.042069,-1.007080,-0.030518,7.324219
5.351680,-0.257465,0.404758,9.956695,-0.146279,-0.077616,-0.093250,-0.518799,-0.305176,7.476807
5.361777,-0.168250,0.302371,10.107581,-0.057064,-0.180003,0.057636,-0.488281,-0.335693,8.178711
5.371874,-0.013173,0.301174,10.083631,0.098013,-0.181200,0.033686,-0.091553,0.335693,9.460449
5.381970,-0.127535,0.219144,10.128538,-0.016349,-0.263230,0.078593,0.488281,0.366211,8.575439
5.392066,-0.123942,0.311951,9.960287,-0.012756,-0.170423,-0.089658,-0.183105,0.732422,7.476807
5.402162,0.038919,0.273631,10.062076,0.150105,-0.208743,0.012131,-0.579834,0.518799,6.774902
5.412283,0.038320,0.277822,10.064471,0.149506,-0.204552,0.014526,-0.915527,0.366211,5.920410
5.422380,0.085023,0.493973,10.077643,0.196209,0.011599,0.027698,0.061035,0.457764,4.608154
5.432477,0.062869,0.581990,10.009984,0.174055,0.099616,-0.039961,0.549316,0.640869,4.608154
5.442572,-0.127535,0.573607,10.008787,-0.016349,0.091233,-0.041158,-0.732422,0.640869,4.486084
5.452668,-0.235311,0.574805,9.992021,-0.124125,0.092431,-0.057924,-0.885010,0.823975,3.875732
5.462764,-0.212558,0.523312,10.042317,-0.101372,0.040938,-0.007628,-0.183105,0.640869,3.417969
5.472859,-0.056283,0.335303,9.980046,0.054903,-0.147071,-0.069899,0.762939,0.854492,2.746582
5.483431,-0.023351,0.499362,10.007589,0.087834,0.016987,-0.042356,1.251221,1.037598,1.098633
5.493582,-0.580193,0.775986,10.092014,-0.469008,0.293612,0.042069,1.403809,0.823975,1.525879
5.503690,-0.481998,0.711321,9.972263,-0.370812,0.228947,-0.077682,1.708984,0.671387,2.777100
5.513924,-0.248483,0.502954,9.909992,-0.137297,0.020580,-0.139953,2.166748,0.335693,4.913330
5.524022,-0.137714,0.609532,10.023755,-0.026528,0.127158,-0.026190,1.861572,0.305176,5.706787
5.534877,-0.111368,0.628094,9.998608,-0.000183,0.145720,-0.051337,-0.701904,-0.244141,4.638672
5.545006,-0.162263,0.556842,10.053094,-0.051077,0.074468,0.003149,-1.281738,-0.396729,3.387451
5.555134,-0.278421,0.638871,10.029144,-0.167235,0.156497,-0.020801,-1.312256,-0.091553,2.044678
5.565257,-0.213157,0.633483,10.041718,-0.101971,0.151109,-0.008227,-1.586914,0.335693,2.929688
5.575362,-0.123344,0.425116,10.009385,-0.012158,-0.057258,-0.040560,-1.525879,0.244141,1.434326
5.585470,-0.069456,0.422721,10.086625,0.041730,-0.059653,0.036680,-1.220703,0.305176,0.061035
5.595597,-0.144300,0.450862,9.977651,-0.033114,-0.031512,-0.072294,-1.007080,0.305176,-0.915527
5.605707,-0.270038,0.534089,10.079440,-0.158853,0.051715,0.029495,-0.579834,0.396729,-0.488281
5.615811,-0.240101,0.564626,10.063273,-0.128915,0.082252,0.013328,-1.037598,0.518799,0.457764
5.625910,-0.224533,0.474813,10.067465,-0.113347,-0.007562,0.017520,0.122070,0.213623,3.387451
5.636005,-0.119751,0.623903,10.058483,-0.008565,0.141528,0.008538,0.885010,0.213623,3.265381
5.646094,-0.213755,0.622106,10.045909,-0.102570,0.139732,-0.004036,0.427246,-0.030518,4.455566
5.656181,-0.210163,0.478405,10.039323,-0.098977,-0.003969,-0.010622,0.488281,-0.396729,2.471924
5.666258,-0.214953,0.499960,10.007589,-0.103767,0.017586,-0.042356,0.793457,-0.244141,2.014160
5.676324,-0.114362,0.492775,9.993818,-0.003176,0.010401,-0.056127,-0.671387,-0.274658,0.732422
5.686400,-0.266446,0.459245,10.020762,-0.155260,-0.023129,-0.029183,-1.434326,-0.427246,-0.457764
5.696473,-0.155676,0.607137,9.977651,-0.044490,0.124763,-0.072294,-1.800537,-0.793457,0.366211
5.706548,-0.016765,0.587977,10.014175,0.094421,0.105603,-0.035770,-1.678467,-0.701904,2.838135
5.716621,0.091011,0.449066,10.078841,0.202197,-0.033308,0.028896,-0.488281,-1.281738,2.624512
5.726693,-0.113763,0.410147,10.053094,-0.002578,-0.072227,0.003149,0.488281,-1.037598,2.777100
5.736759,-0.227527,0.673599,10.039922,-0.116341,0.191225,-0.010023,1.098633,-0.854492,4.516602
5.746831,-0.019759,0.490380,10.063273,0.091427,0.008006,0.013328,0.671387,-0.427246,7.598877
5.756904,-0.079634,0.491578,10.124945,0.031551,0.009204,0.075000,0.885010,0.061035,8.361816
5.766970,-0.083227,0.534688,10.035132,0.027959,0.052314,-0.014813,1.770020,1.525879,9.490967
5.777048,-0.043709,0.557441,10.016570,0.067477,0.075067,-0.033375,1.037598,1.892090,10.528564
5.787123,0.091011,0.602347,9.929152,0.202197,0.119973,-0.120793,0.030518,2.502441,11.657715
5.797190,-0.273032,0.521516,9.929751,-0.161846,0.039141,-0.120194,0.152588,2.929688,12.298584
5.807262,0.025148,0.251477,10.154883,0.136333,-0.230897,0.104938,-1.251221,2.593994,14.190674
5.817334,-0.183818,0.296384,10.082433,-0.072632,-0.185990,0.032488,-2.258301,1.342773,13.153076
5.827401,-0.015568,0.453257,9.974059,0.095618,-0.029117,-0.075886,-0.518799,1.312256,12.359619
5.837473,0.159868,0.429906,10.099797,0.271053,-0.052468,0.049852,-0.976562,1.342773,12.786865
5.847546,-0.022154,0.452060,10.045909,0.089032,-0.030314,-0.004036,-0.488281,1.464844,12.054443
5.857612,-0.116158,0.504750,9.989028,-0.004973,0.022376,-0.060917,-0.518799,1.098633,11.413574
5.867684,-0.006586,0.346080,10.057286,0.104599,-0.136294,0.007341,-0.823975,0.793457,11.688232
5.877757,0.010179,0.296384,10.124346,0.121365,-0.185990,0.074401,-0.823975,0.579834,11.016846
5.887824,0.095202,0.425715,10.042916,0.206388,-0.056659,-0.007029,-0.579834,0.305176,8.575439
5.897898,-0.031135,0.428708,10.064471,0.080051,-0.053666,0.014526,-0.762939,0.366211,7.690430
5.907971,0.056283,0.389789,10.020163,0.167469,-0.092585,-0.029782,-0.518799,-0.396729,6.500244
5.918037,-0.011376,0.319136,10.170450,0.099809,-0.163238,0.120505,-0.305176,-0.396729,6.317139
5.928108,-0.031734,0.350870,10.129735,0.079452,-0.131504,0.079790,0.396729,-0.946045,4.364014
5.938180,-0.072449,0.381407,10.041718,0.038736,-0.100967,-0.008227,0.427246,-1.098633,3.631592
5.948251,-0.043709,0.305964,10.164463,0.067477,-0.176410,0.114518,1.403809,-0.976562,4.272461
5.958324,0.014969,0.398771,10.111174,0.126155,-0.083603,0.061229,1.281738,-0.915527,2.746582
5.968397,0.038919,0.461640,10.108779,0.150105,-0.020734,0.058834,0.183105,-0.640869,2.075195
5.978464,-0.079036,0.377216,9.945319,0.032150,-0.105159,-0.104626,-0.244141,0.305176,1.159668
5.988536,-0.057480,0.268841,10.312355,0.053705,-0.213533,0.262410,-1.403809,0.305176,0.457764
5.998608,0.029339,0.348475,10.182426,0.140525,-0.133899,0.132481,-1.068115,0.122070,-1.068115
6.008673,0.020956,0.298180,10.104587,0.132142,-0.184194,0.054642,-1.068115,0.305176,-1.983643
6.018750,-0.155676,0.191003,10.090816,-0.044490,-0.291371,0.040871,-0.396729,0.335693,-3.540039
6.028823,-0.145497,0.285606,9.955497,-0.034312,-0.196768,-0.094448,1.556396,-0.549316,-5.065918
6.038891,-0.110770,0.199984,10.053094,0.000416,-0.282390,0.003149,0.518799,-0.549316,-4.180908
6.048965,-0.333506,0.206570,9.950707,-0.222321,-0.275804,-0.099238,1.281738,-0.732422,-7.537842
6.059037,-0.369432,0.300575,10.050699,-0.258246,-0.181799,0.000754,0.701904,-0.793457,-7.720947
6.069104,-0.475411,0.481998,10.012379,-0.364226,-0.000376,-0.037566,0.732422,-0.793457,-3.082275
6.079178,-0.262853,0.545466,10.150692,-0.151668,0.063092,0.100746,1.586914,-0.549316,-1.190186
6.089250,0.017963,0.580193,9.875264,0.129148,0.097819,-0.174681,1.678467,-0.610352,-0.457764
6.099315,0.106578,0.376018,10.023157,0.217764,-0.106356,-0.026788,-1.770020,0.091553,-2.777100
6.109388,-0.152682,0.559836,10.124346,-0.041497,0.077462,0.074401,-0.762939,0.366211,-2.593994
6.119460,-0.159269,0.546663,9.972861,-0.048083,0.064289,-0.077084,1.403809,1.129150,2.563477
6.129526,0.268841,0.305365,9.981843,0.380027,-0.177009,-0.068102,0.762939,0.976562,4.058838
6.139602,0.040117,0.225731,10.013577,0.151302,-0.256644,-0.036368,0.000000,1.098633,1.556396
6.149675,0.003593,0.530497,9.965676,0.114778,0.048123,-0.084269,-0.823975,1.037598,2.471924
6.159740,0.052690,0.421523,10.068662,0.163876,-0.060851,0.018717,-1.098633,1.220703,1.770020
6.169812,-0.086221,0.456251,10.025552,0.024965,-0.026123,-0.024393,-1.251221,0.213623,-0.152588
6.179889,-0.156874,0.431702,10.011780,-0.045688,-0.050672,-0.038165,-1.251221,0.274658,0.427246
6.189956,0.041913,0.459245,10.029743,0.153099,-0.023129,-0.020202,-1.068115,0.457764,1.953125
6.200027,-0.095801,0.717308,10.026749,0.015385,0.234934,-0.023196,-0.030518,0.396729,3.540039
6.210099,-0.116757,0.605940,10.032737,-0.005571,0.123566,-0.017208,-0.885010,0.793457,6.134033
6.220166,-0.090412,0.550854,10.078841,0.020774,0.068480,0.028896,-1.770020,1.312256,5.310059
6.230237,-0.062869,0.722098,10.045311,0.048317,0.239724,-0.004634,-1.800537,1.007080,4.486084
6.240308,-0.034129,0.639470,10.111174,0.077057,0.157096,0.061229,-2.258301,1.037598,4.669189
6.250375,-0.165855,0.735870,9.985435,-0.054669,0.253496,-0.064510,-0.976562,0.610352,4.180908
6.260442,-0.107177,0.722098,10.057885,0.004009,0.239724,0.007939,-0.152588,0.427246,6.164551
6.270519,0.119152,0.575403,10.274035,0.230338,0.093029,0.224090,-0.244141,0.335693,6.591797
6.280586,-0.070054,0.714913,10.175240,0.041131,0.232539,0.125295,0.579834,0.762939,6.072998
6.290653,-0.094005,0.744252,9.991423,0.017181,0.261878,-0.058522,1.525879,0.793457,5.767822
6.300721,-0.058079,0.557441,9.996812,0.053107,0.075067,-0.053134,1.312256,0.701904,6.866455
6.310788,0.186812,0.466430,10.054292,0.297997,-0.015944,0.004347,0.823975,0.457764,7.812500
6.320855,0.168250,0.510738,9.947115,0.279436,0.028364,-0.102830,0.579834,0.701904,7.720947
6.330923,0.189805,0.446671,9.989626,0.300991,-0.035703,-0.060319,-0.244141,0.671387,6.622314
6.340989,0.220941,0.498164,9.967473,0.332126,0.015790,-0.082472,-0.274658,0.915527,6.683350
6.351057,0.105980,0.463436,10.032737,0.217165,-0.018938,-0.017208,-0.335693,1.129150,6.286621
6.361123,0.382604,0.460443,9.954300,0.493790,-0.021932,-0.095645,-0.701904,1.129150,5.310059
6.371189,0.267045,0.451461,9.928553,0.378230,-0.030913,-0.121392,-0.823975,0.946045,4.608154
6.381255,0.116158,0.446072,9.969269,0.227344,-0.036302,-0.080676,0.091553,1.129150,4.913330
6.391322,0.217947,0.331710,9.972263,0.329133,-0.150664,-0.077682,0.183105,0.823975,5.462646
6.401388,0.219144,0.345482,9.942325,0.330330,-0.136893,-0.107620,0.183105,0.671387,4.882812
6.411455,0.135917,0.266446,10.153087,0.247103,-0.215928,0.103142,1.190186,1.037598,5.157471
6.421522,0.104183,0.280816,10.057885,0.215369,-0.201558,0.007939,2.502441,1.159668,5.493164
6.431587,0.120350,0.406555,10.006990,0.231536,-0.075820,-0.042955,1.495361,0.823975,4.364014
6.441653,0.022753,0.425715,10.024953,0.133938,-0.056659,-0.024992,0.152588,0.396729,3.540039
6.451721,0.063468,0.390987,10.058483,0.174654,-0.091387,0.008538,-0.152588,0.518799,3.875732
6.461787,-0.115560,0.517923,9.982441,-0.004374,0.035549,-0.067504,-0.335693,0.518799,4.150391
6.471854,-0.008981,0.456251,10.096804,0.102204,-0.026123,0.046859,-0.427246,0.305176,3.631592
6.481920,-0.044308,0.522114,10.033336,0.066878,0.039740,-0.016609,-0.091553,-0.213623,2.624512
6.491986,-0.127535,0.458047,9.989626,-0.016349,-0.024327,-0.060319,-1.037598,-0.122070,1.098633
6.502053,-0.002395,0.295785,10.142309,0.108791,-0.186589,0.092364,-0.518799,0.000000,0.579834
6.512119,-0.050894,0.329315,9.995015,0.060292,-0.153059,-0.054930,-0.854492,-0.091553,-0.305176
6.522183,-0.062869,0.356858,10.109377,0.048317,-0.125516,0.059432,-0.091553,-0.396729,-1.678467
6.532266,-0.168849,0.411345,10.027348,-0.057663,-0.071030,-0.022597,-0.274658,-0.579834,-1.220703
6.542332,-0.177231,0.274230,10.053693,-0.066046,-0.208144,0.003748,0.274658,-0.488281,0.030518
6.552398,-0.238304,0.355660,10.152488,-0.127119,-0.126714,0.102543,0.976562,-0.671387,-0.610352
6.562464,-0.160466,0.561033,9.975256,-0.049281,0.078659,-0.074689,2.593994,-0.549316,-0.457764
6.572531,0.023351,0.481399,10.190209,0.134537,-0.000975,0.140264,2.014160,-0.366211,0.122070
6.582596,-0.121547,0.595162,10.060280,-0.010361,0.112788,0.010335,3.601074,-0.274658,-0.274658
6.592663,-0.045505,0.526306,10.130334,0.065680,0.043931,0.080389,0.335693,0.091553,-0.610352
6.602730,-0.127535,0.541873,10.132729,-0.016349,0.059499,0.082784,2.044678,-0.335693,-0.976562
6.612799,-0.298180,0.502954,10.024953,-0.186994,0.020580,-0.024992,1.190186,0.183105,-0.457764
6.622865,-0.215552,0.387993,10.142908,-0.104366,-0.094381,0.092963,0.091553,-0.122070,-1.739502
6.632931,-0.079036,0.484991,9.983639,0.032150,0.002617,-0.066306,1.403809,-0.213623,-3.082275
6.643004,-0.096400,0.619711,10.054292,0.014786,0.137337,0.004347,2.105713,0.030518,-2.899170
6.653076,-0.374222,0.786165,9.947115,-0.263036,0.303791,-0.102830,0.732422,0.122070,-2.593994
6.663141,0.064666,-0.037123,10.116563,0.175851,-0.519497,0.066617,-2.227783,0.976562,-5.981445
6.673212,-0.070054,0.204774,10.229128,0.041131,-0.277600,0.179183,-1.312256,-0.885010,-7.843018
6.683283,-0.556243,0.794548,9.925560,-0.445057,0.312174,-0.124385,-1.617432,-1.342773,-6.011963
6.693348,-0.562231,0.793949,9.984836,-0.451045,0.311575,-0.065109,-2.532959,0.366211,-3.051758
6.703438,-0.207169,0.075443,9.998009,-0.095983,-0.406931,-0.051936,-1.861572,-0.183105,-6.195068
6.713509,-0.149090,0.286205,10.277029,-0.037904,-0.196169,0.227084,-1.525879,-0.335693,-7.751465
6.723573,0.040715,0.348475,10.354268,0.151901,-0.133899,0.304323,2.716064,-1.251221,-5.218506
6.733645,-0.549058,0.518522,10.025552,-0.437872,0.036148,-0.024393,-0.061035,-0.793457,-4.425049
6.743717,-0.620310,0.581990,10.009984,-0.509124,0.099616,-0.039961,-1.434326,-0.152588,-4.852295
6.753782,-0.295186,0.480800,10.080038,-0.184000,-0.001574,0.030093,-0.823975,0.610352,-4.608154
6.763856,-0.231718,0.437091,10.126143,-0.120532,-0.045283,0.076198,-0.946045,0.885010,-4.089355
6.773928,-0.499362,0.528102,10.030941,-0.388176,0.045728,-0.019004,-0.122070,0.732422,-4.028320
6.783993,-0.399968,0.443079,10.025552,-0.288782,-0.039296,-0.024393,-0.488281,0.518799,-3.936768
6.794064,-0.477208,0.534089,9.951306,-0.366022,0.051715,-0.098639,-0.732422,0.305176,-4.455566
6.804134,-0.264650,0.438289,9.970466,-0.153464,-0.044086,-0.079479,-0.427246,-0.335693,-4.882812
6.814198,-0.323328,0.372426,10.033336,-0.212142,-0.109949,-0.016609,-1.068115,-0.335693,-4.547119
6.824270,-0.054487,0.443079,10.040521,0.056699,-0.039296,-0.009424,-1.068115,-0.122070,-1.434326
6.834342,0.024549,0.465233,9.917177,0.135735,-0.017142,-0.132768,-1.495361,0.305176,0.030518
6.844406,-0.105980,0.341889,10.096804,0.005206,-0.140485,0.046859,-1.312256,0.946045,1.190186
6.854478,-0.099393,0.383802,10.093211,0.011792,-0.098572,0.043266,-1.556396,1.037598,1.800537
6.864548,0.001796,0.476010,10.102192,0.112982,-0.006364,0.052247,-1.403809,0.457764,4.028320
6.874614,-0.079634,0.538879,10.095007,0.031551,0.056505,0.045062,-0.885010,0.061035,4.211426
6.884687,-0.136516,0.576002,10.089020,-0.025330,0.093628,0.039075,-0.183105,-0.305176,3.570557
6.894759,-0.071851,0.560435,9.986034,0.039335,0.078060,-0.063911,0.030518,-0.305176,3.692627
6.904824,-0.253872,0.590372,9.942924,-0.142686,0.107998,-0.107021,-0.610352,-0.335693,3.265381
6.914896,-0.292192,0.498763,9.945917,-0.181007,0.016389,-0.104028,1.037598,-1.159668,0.793457
6.924968,-0.317340,0.350870,10.043514,-0.206154,-0.131504,-0.006431,-0.274658,-1.190186,-0.396729
6.935035,-0.349673,0.413141,9.974059,-0.238487,-0.069233,-0.075886,-2.868652,-0.915527,-5.645752
6.945107,-0.382604,0.157473,10.138716,-0.271419,-0.324902,0.088771,-2.441406,-0.946045,-7.995605
6.955180,-0.309556,0.321531,10.184821,-0.198370,-0.160843,0.134876,-1.525879,-0.915527,-8.697510
6.965244,-0.351469,0.306563,10.063273,-0.240283,-0.175812,0.013328,-0.732422,-1.007080,-7.812500
6.975320,-0.261656,0.332309,10.079440,-0.150470,-0.150065,0.029495,-1.220703,-0.549316,-6.866455
6.985390,-0.313748,0.459844,10.057286,-0.202562,-0.022530,0.007341,-0.579834,-0.549316,-5.004883
6.995457,-0.455652,0.210163,9.983040,-0.344467,-0.272211,-0.066905,-0.762939,-0.457764,-5.035400
7.005527,-0.158670,0.209564,10.206376,-0.047484,-0.272810,0.156431,4.302979,-0.549316,-2.655029
7.015608,0.053289,0.553848,10.056687,0.164475,0.071474,0.006742,5.920410,0.030518,-0.274658
7.025674,-0.092208,0.516725,9.880653,0.018978,0.034351,-0.169292,5.310059,0.274658,1.953125
7.035747,0.082029,0.490979,10.054891,0.193215,0.008605,0.004946,2.716064,0.213623,-1.251221
7.045818,0.323926,0.432900,10.053094,0.435112,-0.049474,0.003149,2.258301,0.396729,-2.716064
7.055884,0.262255,0.327519,9.917776,0.373440,-0.154855,-0.132169,0.305176,0.579834,-7.476807
7.065956,-0.003593,0.573008,9.895023,0.107593,0.090634,-0.154922,-3.356934,1.403809,-7.568359
7.076028,-0.299377,0.747246,10.240505,-0.188192,0.264872,0.190560,-2.990723,1.434326,-4.272461
7.086093,0.188608,0.282014,10.101594,0.299794,-0.200361,0.051649,-0.518799,0.976562,-2.410889
7.096165,0.260458,0.107177,10.069860,0.371644,-0.375197,0.019915,0.732422,0.457764,-2.166748
7.106236,0.112566,0.128134,10.337503,0.223752,-0.354241,0.287558,-4.058838,1.770020,-2.685547
7.116302,0.153880,0.467029,10.036329,0.265066,-0.015345,-0.013616,-2.716064,0.457764,-5.218506
7.126374,0.067659,0.119751,10.087822,0.178845,-0.362623,0.037877,-2.471924,0.335693,-5.859375
7.136450,0.056283,0.757425,10.018965,0.167469,0.275051,-0.030980,-2.258301,-0.030518,-7.232666
7.146516,-0.005988,0.758024,10.035731,0.105198,0.275650,-0.014214,-1.953125,-0.244141,-5.126953
7.156589,0.362845,0.173639,10.298584,0.474031,-0.308735,0.248639,-0.793457,-1.251221,-8.605957
7.166660,0.279619,0.423918,9.965078,0.390804,-0.058456,-0.084868,2.410889,-2.044678,-9.979248
7.176726,-0.174836,0.594564,10.032737,-0.063651,0.112189,-0.017208,1.525879,-2.014160,-12.115479
7.186798,-0.046703,0.559836,10.009385,0.064483,0.077462,-0.040560,0.488281,-1.922607,-12.817383
7.196870,0.187410,0.456850,10.076446,0.298596,-0.025524,0.026501,-1.007080,-1.922607,-13.458252
7.206943,-0.073647,0.470621,9.966275,0.037539,-0.011753,-0.083670,-0.762939,-2.014160,-14.160156
7.217008,-0.071252,0.390388,10.023157,0.039934,-0.091986,-0.026788,-1.068115,-1.739502,-13.061523
7.227081,-0.026944,0.349074,9.990824,0.084242,-0.133300,-0.059121,-0.854492,-1.617432,-12.908936
7.237153,-0.068258,0.450862,10.087224,0.042928,-0.031512,0.037278,-0.610352,-0.305176,-10.925293
7.247219,-0.179626,0.419727,10.090217,-0.068441,-0.062647,0.040272,-0.610352,0.091553,-9.582520
7.257295,-0.244891,0.440085,9.979448,-0.133705,-0.042289,-0.070497,-0.488281,0.610352,-7.629395
7.267371,-0.090412,0.528701,10.009984,0.020774,0.046326,-0.039961,-1.281738,0.671387,-4.638672
7.277437,-0.144899,0.664618,10.037527,-0.033713,0.182244,-0.012418,-0.976562,0.854492,-2.502441
7.287508,-0.214953,0.705932,9.987830,-0.103767,0.223558,-0.062115,-0.457764,0.549316,-1.068115
7.297580,-0.275427,0.379611,10.136321,-0.164241,-0.102764,0.086376,-1.007080,0.549316,-0.976562
7.307646,-0.238304,0.480201,10.021360,-0.127119,-0.002173,-0.028585,-0.213623,0.183105,0.000000
7.317718,-0.293390,0.444875,10.108180,-0.182204,-0.037499,0.058235,-0.030518,0.000000,0.244141
7.327790,-0.183219,0.513133,10.041718,-0.072033,0.030759,-0.008227,1.037598,-0.305176,0.640869
7.337856,-0.144300,0.487985,10.048903,-0.033114,0.005611,-0.001042,1.434326,-0.640869,0.976562
7.347928,-0.000599,0.406555,10.030342,0.110587,-0.075820,-0.019603,1.922607,-1.098633,-0.793457
7.358000,-0.172441,0.552651,10.001602,-0.061256,0.070277,-0.048343,1.983643,-1.556396,-4.028320
7.368065,-0.149090,0.510139,9.983040,-0.037904,0.027765,-0.066905,1.647949,-1.617432,-4.730225
7.378138,-0.180225,0.520917,10.037527,-0.069039,0.038543,-0.012418,1.281738,-1.251221,-5.950928
7.388212,-0.130529,0.562231,9.995015,-0.019343,0.079857,-0.054930,0.274658,-1.190186,-5.187988
7.398281,-0.099393,0.595162,10.015373,0.011792,0.112788,-0.034572,0.549316,-1.190186,-4.516602
7.408353,-0.221539,0.532293,10.062076,-0.110354,0.049919,0.012131,1.434326,-0.610352,-0.732422
7.418425,-0.441282,0.388592,10.039323,-0.330097,-0.093782,-0.010622,0.244141,-0.823975,-1.007080
7.428491,-0.189805,0.284409,10.011780,-0.078620,-0.197966,-0.038165,-0.244141,-1.373291,-2.685547
7.438563,-0.063468,0.444276,10.034533,0.047718,-0.038098,-0.015412,0.305176,-1.403809,-1.983643
7.448636,-0.052690,0.418530,10.033934,0.058495,-0.063844,-0.016011,0.549316,-1.159668,-2.227783
7.458705,-0.018561,0.428110,10.012379,0.092624,-0.054264,-0.037566,0.152588,-1.220703,-2.716064
7.468778,-0.217348,0.431104,9.984836,-0.106162,-0.051271,-0.065109,-0.183105,-1.129150,-3.082275
7.478850,-0.301174,0.571811,10.011780,-0.189988,0.089437,-0.038165,-0.061035,-0.427246,-0.396729
7.488917,-0.322130,0.497565,9.963880,-0.210944,0.015191,-0.086065,-0.549316,-0.122070,1.495361
7.498988,-0.164658,0.358055,10.074650,-0.053472,-0.124319,0.024705,-0.457764,0.488281,2.838135
7.509061,-0.034728,0.339494,9.999207,0.076458,-0.142880,-0.050738,-0.305176,0.701904,3.051758
7.519127,-0.082628,0.426912,10.063872,0.028558,-0.055462,0.013927,-0.823975,0.976562,3.540039
7.529204,-0.282014,0.445474,10.121951,-0.170828,-0.036901,0.072006,-0.091553,1.190186,3.753662
7.539278,-0.429307,0.558638,10.022558,-0.318121,0.076264,-0.027387,0.366211,1.556396,5.706787
7.549344,0.007784,0.414937,10.200987,0.118970,-0.067437,0.151042,0.030518,1.617432,7.568359
7.559416,0.116158,0.547861,10.015373,0.227344,0.065487,-0.034572,0.122070,1.617432,7.324219
7.569494,-0.229323,0.584984,10.014175,-0.118137,0.102609,-0.035770,1.037598,1.373291,6.103516
7.579560,-0.053289,0.489781,10.103390,0.057897,0.007407,0.053445,1.617432,0.946045,5.310059
7.589633,0.056283,0.677791,10.069860,0.167469,0.195416,0.019915,-0.488281,0.976562,7.904053
7.599705,-0.174238,0.721500,9.822574,-0.063052,0.239125,-0.227371,-0.244141,1.220703,7.720947
7.609771,0.254471,0.332309,10.048304,0.365657,-0.150065,-0.001641,-2.105713,1.495361,7.446289
7.619844,0.008383,0.177231,10.135124,0.119568,-0.305143,0.085179,0.488281,1.220703,3.662109
7.629914,-0.004790,0.382006,9.933344,0.106396,-0.100369,-0.116602,0.976562,0.610352,1.129150
7.639979,-0.115560,0.392783,9.912986,-0.004374,-0.089591,-0.136959,2.807617,0.793457,4.455566
7.650055,0.128732,0.114961,10.065668,0.239918,-0.367413,0.015723,1.739502,0.305176,2.410889
7.660128,0.169448,0.382006,10.088421,0.280633,-0.100369,0.038476,-1.281738,-0.823975,0.640869
7.670194,-0.566422,0.951422,10.061477,-0.455236,0.469047,0.011532,0.823975,-0.030518,4.211426
7.680263,0.028141,0.664618,10.075847,0.139327,0.182244,0.025902,3.448486,0.396729,8.697510
7.690336,-0.452060,0.455652,10.026749,-0.340874,-0.026722,-0.023196,-1.556396,-1.373291,1.739502
7.700403,-0.403561,0.446671,10.177635,-0.292375,-0.035703,0.127690,-2.075195,-1.983643,0.915527
7.710470,-0.279619,0.442480,10.026151,-0.168433,-0.039894,-0.023795,-2.197266,-0.366211,2.624512
7.720538,-0.180824,0.268841,10.070458,-0.069638,-0.213533,0.020513,-2.044678,0.213623,2.929688
7.730604,-0.255070,0.364642,9.967473,-0.143884,-0.117732,-0.082472,0.274658,0.701904,1.647949
7.740670,0.013173,0.402962,10.081835,0.124358,-0.079412,0.031890,-0.396729,0.823975,0.854492
7.750737,-0.200583,0.271236,10.269844,-0.089397,-0.211138,0.219899,-0.640869,0.366211,-0.091553
7.760802,-0.029938,0.686772,10.060280,0.081248,0.204398,0.010335,0.122070,0.244141,-2.258301
7.770869,-0.250878,0.784369,9.976454,-0.139693,0.301995,-0.073491,-0.427246,0.396729,-2.471924
7.780936,-0.191602,0.592169,9.889634,-0.080416,0.109794,-0.160311,1.525879,1.098633,-0.793457
7.791007,-0.195194,0.477208,10.017169,-0.084008,-0.005167,-0.032776,0.213623,0.518799,-0.701904
7.801075,-0.229922,0.477208,10.028546,-0.118736,-0.005167,-0.021399,0.701904,0.549316,0.274658
7.811142,0.267045,0.017963,10.014774,0.378230,-0.464412,-0.035171,0.000000,-0.030518,0.396729
7.821208,0.010179,0.438887,10.114766,0.121365,-0.043487,0.064821,-0.213623,-0.396729,-2.258301
7.831275,-0.087418,0.595162,9.997410,0.023768,0.112788,-0.052535,-0.488281,-0.915527,-2.410889
7.841342,0.022753,0.814905,10.002200,0.133938,0.332531,-0.047745,-0.030518,-0.579834,-1.129150
7.851408,-0.088616,0.419727,9.984836,0.022570,-0.062647,-0.065109,-2.044678,-0.793457,-0.823975
7.861475,-0.155078,0.380808,10.092014,-0.043892,-0.101566,0.042069,-2.166748,-1.098633,-2.502441
7.871541,0.021555,0.453257,10.054292,0.132741,-0.029117,0.004347,0.610352,-0.701904,-2.563477
7.881607,0.023351,0.389789,10.144704,0.134537,-0.092585,0.094759,1.129150,-0.854492,-2.380371
7.891675,-0.122146,0.447869,10.079440,-0.010960,-0.034505,0.029495,0.976562,-0.976562,-1.586914
7.901741,-0.056882,0.241897,10.078242,0.054304,-0.240477,0.028297,-0.122070,-0.823975,-3.509521
7.911807,-0.114961,0.113763,10.138118,-0.003775,-0.368611,0.088173,0.701904,-0.549316,-4.821777
7.921875,-0.191602,0.459844,10.016570,-0.080416,-0.022530,-0.033375,1.281738,-0.183105,-1.098633
7.931941,-0.189805,0.369432,10.039323,-0.078620,-0.112942,-0.010622,1.403809,0.061035,-0.274658
7.942007,-0.002994,0.547262,10.012379,0.108192,0.064888,-0.037566,0.457764,0.244141,1.068115
7.952074,0.089214,0.312550,10.080637,0.200400,-0.169824,0.030692,0.030518,0.183105,-1.037598
7.962141,-0.229323,0.304766,10.092612,-0.118137,-0.177608,0.042667,-2.410889,0.030518,-1.342773
7.972206,-0.091609,0.443079,10.105186,0.019576,-0.039296,0.055241,-2.441406,-0.152588,-1.586914
7.982273,0.201780,0.476010,10.038126,0.312966,-0.006364,-0.011819,-1.312256,0.457764,0.549316
7.992339,-0.305964,0.365240,10.053693,-0.194778,-0.117134,0.003748,-1.068115,0.457764,1.251221
8.002405,-0.302970,0.279020,10.035132,-0.191784,-0.203354,-0.014813,-1.617432,0.366211,-0.701904
8.012481,-0.262255,0.261057,10.033934,-0.151069,-0.221317,-0.016011,-1.647949,0.579834,-1.586914
8.022549,-0.023950,0.338895,10.092014,0.087236,-0.143479,0.042069,-1.464844,0.823975,-0.427246
8.032785,-0.047900,0.392184,10.052496,0.063285,-0.090190,0.002551,-0.823975,1.312256,-0.518799
8.042959,-0.342488,0.451461,10.037527,-0.231302,-0.030913,-0.012418,-0.732422,1.342773,-0.152588
8.053025,-0.298180,0.407752,10.040521,-0.186994,-0.074622,-0.009424,-0.610352,1.312256,1.556396
8.063096,-0.149090,0.553848,10.006990,-0.037904,0.071474,-0.042955,0.030518,1.678467,3.051758
8.073167,-0.330513,0.478405,10.017169,-0.219327,-0.003969,-0.032776,-0.488281,1.434326,3.143311
8.083237,-0.380209,0.586780,10.111772,-0.269024,0.104406,0.061827,-0.152588,1.861572,3.662109
8.093308,-0.117356,0.273631,10.081835,-0.006170,-0.208743,0.031890,-2.197266,1.464844,2.166748
8.103380,-0.411345,0.568817,10.103989,-0.300159,0.086443,0.054044,-4.364014,0.549316,-1.037598
8.113445,-0.111967,0.477208,10.308164,-0.000781,-0.005167,0.258219,-3.662109,0.152588,-0.366211
8.123517,0.040117,0.507744,10.024354,0.151302,0.025370,-0.025591,-1.892090,-0.518799,-0.732422
8.133589,-0.312550,0.656834,9.998608,-0.201364,0.174460,-0.051337,-0.091553,-0.854492,0.183105
8.143655,-0.407752,0.624501,9.865085,-0.296566,0.142127,-0.184860,1.007080,-0.915527,0.427246
8.153726,-0.258662,0.476609,10.080637,-0.147476,-0.005765,0.030692,0.579834,-1.434326,2.166748
8.163796,-0.192799,0.472418,10.042916,-0.081613,-0.009957,-0.007029,0.823975,-1.159668,2.014160
8.173862,-0.277224,0.492775,10.027348,-0.166038,0.010401,-0.022597,0.457764,-0.793457,1.190186
8.183933,-0.135917,0.419128,10.070458,-0.024732,-0.063246,0.020513,0.762939,-0.701904,1.129150
8.194005,-0.218546,0.442480,10.129136,-0.107360,-0.039894,0.079191,0.457764,-0.366211,1.220703
8.204072,-0.191602,0.529898,10.054292,-0.080416,0.047524,0.004347,-0.488281,0.854492,0.915527
8.214143,-0.317340,0.490979,10.065070,-0.206154,0.008605,0.015125,-0.335693,1.464844,0.610352
8.224213,-0.133522,0.361049,9.962084,-0.022337,-0.121325,-0.087861,-0.335693,2.044678,0.183105
8.234278,-0.146096,0.314346,10.113569,-0.034910,-0.168028,0.063624,0.946045,1.800537,0.000000
8.244349,-0.051493,0.347877,9.791439,0.059693,-0.134498,-0.258506,3.967285,1.556396,0.396729
8.254428,-0.259860,0.220342,10.099199,-0.148674,-0.262032,0.049254,1.495361,0.885010,0.579834
8.264494,-0.170645,0.074844,10.168654,-0.059459,-0.407530,0.118709,1.831055,0.823975,-1.007080
8.274572,-0.294587,0.675396,10.041119,-0.183402,0.193021,-0.008826,0.366211,0.366211,-0.274658
8.284648,-0.399370,0.570015,10.072853,-0.288184,0.087641,0.022908,-1.098633,0.366211,3.295898
8.294715,0.264650,0.086819,10.221345,0.375835,-0.395555,0.171400,-1.770020,-0.274658,4.394531
8.304791,0.157473,0.170645,10.223740,0.268658,-0.311729,0.173795,-1.678467,-0.518799,3.570557
8.314865,-0.296384,0.479603,10.205777,-0.185198,-0.002771,0.155832,-0.457764,-1.098633,3.509521
8.324930,-0.135917,0.554447,9.745334,-0.024732,0.072073,-0.304611,-0.427246,-0.640869,3.631592
8.335004,0.286804,0.176034,9.977053,0.397989,-0.306340,-0.072892,-1.037598,0.030518,3.204346
8.345076,0.024549,0.441881,9.965078,0.135735,-0.040493,-0.084868,0.640869,-0.152588,-0.976562
8.355142,0.027543,0.443677,9.972861,0.138729,-0.038697,-0.077084,0.549316,-0.274658,-1.068115
8.365216,0.016765,0.362845,10.024354,0.127951,-0.119529,-0.025591,-0.061035,-0.335693,-1.831055
8.375288,0.080832,0.383203,9.971065,0.192018,-0.099171,-0.078880,-0.091553,-0.213623,-2.899170
8.385353,0.130529,0.416135,10.018367,0.241714,-0.066240,-0.031578,-0.213623,0.122070,-2.960205
8.395429,0.052690,0.322729,10.153087,0.163876,-0.159645,0.103142,-0.762939,0.579834,-1.678467
8.405501,0.225132,0.408950,10.134525,0.336318,-0.073425,0.084580,-0.183105,0.732422,-1.556396
8.415567,0.092807,0.313748,10.168055,0.203993,-0.168627,0.118110,0.854492,0.549316,-2.502441
8.425639,0.067061,0.477806,10.109377,0.178246,-0.004568,0.059432,0.946045,0.091553,-3.509521
8.435710,-0.007784,0.239502,10.075248,0.103402,-0.242872,0.025303,0.061035,-0.091553,-5.615234
8.445777,-0.127535,0.469424,9.990225,-0.016349,-0.012950,-0.059720,-0.061035,-0.305176,-7.110596
8.455849,-0.110171,0.621508,9.974059,0.001015,0.139133,-0.075886,-0.152588,-0.854492,-6.042480
8.465920,-0.079036,0.722098,10.048903,0.032150,0.239724,-0.001042,0.610352,-0.671387,-6.225586
8.475987,-0.296384,0.538281,10.111772,-0.185198,0.055906,0.061827,0.000000,-0.549316,-4.791260
8.486059,-0.199984,0.357457,10.082433,-0.088798,-0.124917,0.032488,-0.640869,-0.732422,-4.821777
8.496131,-0.298180,0.306563,10.100995,-0.186994,-0.175812,0.051050,-0.457764,-0.854492,-4.638672
8.506197,-0.425116,0.626896,10.021360,-0.313930,0.144522,-0.028585,-0.305176,-0.122070,-1.129150
8.516271,-0.066462,0.503553,9.916578,0.044724,0.021179,-0.133367,0.061035,0.183105,-0.152588
8.526342,-0.062869,0.320334,10.100396,0.048317,-0.162040,0.050451,-0.793457,-0.244141,-2.685547
8.536408,-0.480800,0.611927,10.115964,-0.369614,0.129553,0.066019,-0.579834,-0.244141,-2.319336
8.546480,-0.656235,0.581990,10.050101,-0.545050,0.099616,0.000156,1.586914,-0.061035,-0.122070
8.556551,-0.237706,0.213755,10.031539,-0.126520,-0.268619,-0.018406,0.488281,-0.091553,0.305176
8.566616,-0.108375,0.145497,9.992620,0.002811,-0.336877,-0.057325,1.739502,-0.427246,-0.274658
8.576689,-0.546064,0.250878,10.038126,-0.434879,-0.231496,-0.011819,1.495361,-0.885010,-2.380371
8.586760,-0.395777,0.274230,10.063872,-0.284591,-0.208144,0.013927,2.380371,-0.762939,-0.488281
8.596826,-0.218546,0.480201,10.069860,-0.107360,-0.002173,0.019915,2.014160,-0.885010,1.159668
8.606900,-0.211959,0.298180,10.066267,-0.100773,-0.184194,0.016322,1.586914,-1.342773,0.823975
8.616971,-0.397573,0.417931,10.099199,-0.286387,-0.064443,0.049254,1.129150,-1.617432,-1.312256
8.627037,-0.769999,0.594564,9.984238,-0.658813,0.112189,-0.065707,-0.976562,-1.556396,-0.610352
8.637110,-0.210762,0.550854,10.030941,-0.099576,0.068480,-0.019004,-0.915527,-0.946045,2.502441
8.647183,-0.049098,0.675396,10.036928,0.062088,0.193021,-0.013017,-0.579834,0.213623,4.425049
8.657250,-0.320933,0.576002,9.998608,-0.209747,0.093628,-0.051337,-0.793457,0.396729,3.784180
8.667321,-0.377216,0.542472,10.090816,-0.266030,0.060098,0.040871,-1.556396,0.610352,3.540039
8.677393,-0.147892,0.420925,10.047706,-0.036707,-0.061449,-0.002239,-0.793457,1.403809,4.882812
8.687460,-0.295785,0.408351,10.075248,-0.184599,-0.074023,0.025303,-0.762939,1.495361,6.103516
8.697535,-0.120350,0.217947,10.038724,-0.009164,-0.264427,-0.011221,0.061035,1.525879,4.852295
8.707608,-0.283211,0.366438,10.102791,-0.172025,-0.115936,0.052846,-2.044678,1.159668,3.662109
8.717675,-0.192799,0.383203,10.068063,-0.081613,-0.099171,0.018118,-3.143311,0.762939,3.509521
8.727747,-0.095801,0.214953,10.163864,0.015385,-0.267421,0.113919,-1.312256,0.152588,3.295898
8.737819,-0.133522,0.297581,10.020163,-0.022337,-0.184793,-0.029782,1.861572,0.305176,6.652832
8.747886,-0.285007,0.344883,10.096205,-0.173822,-0.137491,0.046260,-0.152588,-0.152588,6.591797
8.757965,-0.468226,0.423918,10.042916,-0.357041,-0.058456,-0.007029,-0.762939,-0.091553,7.141113
8.768043,0.061672,0.380209,10.054891,0.172858,-0.102165,0.004946,2.563477,1.373291,10.559082
8.778116,0.001796,0.404160,9.895622,0.112982,-0.078215,-0.154323,1.953125,1.342773,9.948730
8.788188,-0.161664,0.436492,10.013577,-0.050478,-0.045882,-0.036368,0.854492,1.007080,7.171631
8.798260,-0.352667,0.556243,9.998009,-0.241481,0.073869,-0.051936,0.732422,1.281738,6.622314
8.808326,-0.120948,0.670605,10.185419,-0.009763,0.188231,0.135474,0.244141,1.098633,7.812500
8.818398,-0.134121,0.529299,9.975256,-0.022935,0.046925,-0.074689,1.129150,1.373291,7.781982
8.828470,-0.171244,0.504750,10.095007,-0.060058,0.022376,0.045062,-0.122070,1.464844,6.958008
8.838536,-0.126936,0.000599,10.020163,-0.015750,-0.481775,-0.029782,-0.488281,1.220703,5.401611
8.848607,-0.208965,0.274230,10.070458,-0.097780,-0.208144,0.020513,-0.030518,0.915527,2.899170
8.858679,0.132325,0.317340,10.048903,0.243511,-0.165034,-0.001042,2.258301,1.403809,6.500244
8.868745,-0.325723,0.353864,10.024953,-0.214537,-0.128510,-0.024992,-0.640869,1.037598,4.974365
8.878816,-0.446072,0.368234,10.164463,-0.334887,-0.114140,0.114518,0.274658,1.678467,4.119873
8.888892,-0.350870,0.389789,10.008188,-0.239685,-0.092585,-0.041757,-0.396729,1.586914,5.493164
8.898967,-0.192799,0.247286,10.080038,-0.081613,-0.235088,0.030093,1.983643,0.701904,3.021240
8.909039,-0.204175,0.867596,9.908795,-0.092990,0.385222,-0.141150,2.838135,0.396729,2.807617
8.919113,-0.211360,0.490979,10.086625,-0.100175,0.008605,0.036680,0.579834,-0.091553,3.906250
8.929179,-0.205373,0.238903,9.983639,-0.094187,-0.243471,-0.066306,1.800537,-0.122070,2.014160
8.939251,-0.080233,0.252675,9.985435,0.030953,-0.229700,-0.064510,0.152588,-0.701904,3.173828
8.949342,-0.195194,0.352667,9.977651,-0.084008,-0.129708,-0.072294,-0.610352,0.091553,1.647949
8.959416,-0.172441,0.410746,10.050101,-0.061256,-0.071628,0.000156,-0.122070,0.122070,0.640869
8.969487,-0.276625,0.533491,9.971664,-0.165439,0.051116,-0.078281,-1.800537,-0.366211,2.716064
8.979559,0.053289,0.354463,10.168055,0.164475,-0.127911,0.118110,0.183105,-0.579834,0.732422
8.989624,0.037722,0.259261,10.127939,0.148907,-0.223113,0.077994,-1.007080,-0.640869,0.122070
8.999696,-0.251477,0.422721,10.019564,-0.140291,-0.059653,-0.030381,1.007080,-1.007080,-3.082275
9.009767,-0.035925,0.431104,10.007589,0.075260,-0.051271,-0.042356,1.464844,-1.129150,-2.502441
9.019845,-0.298779,0.429906,10.014774,-0.187593,-0.052468,-0.035171,-0.030518,-0.579834,0.885010
9.029921,-0.348475,0.484991,10.063872,-0.237290,0.002617,0.013927,-0.213623,-0.366211,-0.183105
9.039995,-0.143102,0.366438,9.986633,-0.031917,-0.115936,-0.063312,0.335693,0.823975,0.000000
9.050062,-0.264650,0.505349,10.018367,-0.153464,0.022975,-0.031578,0.946045,1.373291,2.136230
9.060134,-0.270038,0.684976,9.966275,-0.158853,0.202601,-0.083670,1.312256,1.556396,5.126953
9.070205,-0.116757,0.489183,10.017169,-0.005571,0.006809,-0.032776,-3.356934,0.640869,5.187988
9.080272,0.116158,-0.189805,10.189012,0.227344,-0.672179,0.139067,-2.899170,-0.030518,2.288818
9.090340,-0.323926,0.349074,10.144105,-0.212741,-0.133300,0.094160,-0.366211,0.335693,2.014160
9.100411,-0.692759,0.106578,10.096205,-0.581574,-0.375796,0.046260,-3.082275,0.061035,1.800537
9.110477,-0.496368,0.322729,10.014774,-0.385182,-0.159645,-0.035171,-0.274658,0.579834,0.457764
9.120544,-0.182620,0.290995,9.965078,-0.071434,-0.191379,-0.084868,-3.875732,1.281738,3.112793
9.130611,-0.426912,0.075443,10.254875,-0.315726,-0.406931,0.204930,-1.678467,0.823975,2.288818
9.140677,-0.405357,0.474214,10.036329,-0.294171,-0.008160,-0.013616,1.373291,-0.457764,3.326416
9.150744,-0.214953,0.384401,9.876462,-0.103767,-0.097974,-0.173483,1.281738,-0.091553,5.920410
9.160809,-0.329315,0.344883,9.990824,-0.218129,-0.137491,-0.059121,2.258301,-0.762939,2.349854
9.170875,-0.308958,0.549657,9.990824,-0.197772,0.067283,-0.059121,1.617432,-0.793457,2.593994
9.180941,-0.330513,0.476010,10.049502,-0.219327,-0.006364,-0.000443,0.122070,-0.701904,4.455566
9.191008,-0.115560,0.569416,10.034533,-0.004374,0.087042,-0.015412,0.549316,0.000000,3.692627
9.201081,-0.093406,1.132844,10.075248,0.017780,0.650470,0.025303,1.342773,0.610352,3.906250
9.211147,-0.336500,0.978964,9.815389,-0.225314,0.496590,-0.234556,0.183105,1.129150,2.899170
9.221215,-0.397573,0.644260,10.135723,-0.286387,0.161886,0.085778,-1.556396,0.701904,2.563477
9.231280,-0.065863,0.470023,10.114167,0.045323,-0.012352,0.064222,-0.610352,0.305176,-0.701904
9.241346,-0.138312,0.336500,10.054891,-0.027127,-0.145874,0.004946,0.000000,0.518799,0.030518
9.251413,-0.205972,0.305964,9.920171,-0.094786,-0.176410,-0.129774,-0.579834,0.640869,-3.540039
9.261478,-0.599952,0.228724,10.045311,-0.488767,-0.253650,-0.004634,-1.251221,0.335693,-3.570557
9.271543,-0.393981,0.174238,10.165660,-0.282795,-0.308136,0.115715,-2.746582,-0.122070,-3.631592
9.281610,-0.371228,0.105381,9.869277,-0.260042,-0.376993,-0.180668,-0.335693,0.274658,-2.990723
9.291676,-0.586181,0.212558,9.917177,-0.474995,-0.269816,-0.132768,0.061035,0.610352,0.366211
9.301746,-0.443677,0.570015,10.135124,-0.332492,0.087641,0.085179,0.122070,0.885010,11.169434
9.311813,-0.091011,0.110770,10.211765,0.020175,-0.371604,0.161819,-0.488281,1.251221,12.817383
9.321879,-0.035327,0.282612,10.044712,0.075859,-0.199762,-0.005233,-0.274658,1.281738,10.498047
9.331945,-0.167053,0.501757,10.052496,-0.055867,0.019382,0.002551,-0.915527,0.854492,10.864258
9.342012,-0.071851,0.483794,9.997410,0.039335,0.001420,-0.052535,-0.030518,0.732422,9.613037
9.352078,0.186812,0.506547,10.078841,0.297997,0.024172,0.028896,-0.823975,0.701904,11.688232
9.362149,0.320933,0.571212,10.011182,0.432118,0.088838,-0.038763,-0.366211,0.671387,10.803223
9.372217,0.180824,0.343087,10.090816,0.292010,-0.139288,0.040871,1.068115,0.579834,7.873535
9.382282,0.029938,0.573008,9.938732,0.141124,0.090634,-0.111213,1.708984,0.976562,7.568359
9.392350,0.169448,0.580193,10.009385,0.280633,0.097819,-0.040560,0.640869,1.098633,8.941650
9.402416,-0.143701,0.759221,10.048304,-0.032515,0.276847,-0.001641,0.122070,0.885010,7.202148
9.412483,-0.003593,0.290995,10.124346,0.107593,-0.191379,0.074401,0.305176,1.129150,5.767822
9.422548,0.244292,0.216151,10.004595,0.355478,-0.266224,-0.045350,0.091553,0.640869,3.509521
9.432614,0.152682,0.510139,9.948312,0.263868,0.027765,-0.101633,-0.518799,0.793457,2.410889
9.442679,0.025148,0.244891,9.992620,0.136333,-0.237483,-0.057325,-0.701904,0.793457,-0.061035
9.452751,-0.108973,0.310155,9.946516,0.002212,-0.172219,-0.103429,-1.220703,0.610352,0.122070
9.462828,-0.396974,0.531096,10.108779,-0.285789,0.048721,0.058834,-1.434326,0.518799,3.479004
9.472919,0.332908,0.526306,10.053693,0.444094,0.043931,0.003748,1.251221,0.274658,4.669189
9.483002,0.277224,0.149090,10.151290,0.388409,-0.333284,0.101345,0.579834,-0.030518,4.760742
9.493069,-0.216749,0.159868,10.067465,-0.105563,-0.322507,0.017520,-0.122070,-0.274658,1.220703
9.503134,-0.043110,0.338297,10.090217,0.068075,-0.144078,0.040272,-0.030518,-0.091553,2.075195
9.513200,-0.017963,0.465831,9.941127,0.093223,-0.016543,-0.108818,1.190186,0.000000,5.462646
9.523265,0.251477,0.251477,10.103989,0.362663,-0.230897,0.054044,0.122070,-0.091553,6.134033
9.533329,0.026345,0.490979,9.955497,0.137531,0.008605,-0.094448,0.091553,0.366211,4.913330
9.543394,0.317340,0.400567,9.902208,0.428526,-0.081807,-0.147737,-0.640869,1.129150,3.875732
9.553459,0.076042,0.492177,9.951306,0.187228,0.009802,-0.098639,-2.197266,1.434326,1.708984
9.563524,0.216749,0.183219,10.014774,0.327935,-0.299155,-0.035171,-0.793457,0.549316,-2.349854
9.573589,0.217947,0.070653,10.257270,0.329133,-0.411721,0.207325,-1.800537,0.244141,-5.584717
9.583655,0.255070,0.662223,10.126741,0.366255,0.179849,0.076796,0.610352,-0.762939,-9.033203
9.593719,0.524509,0.541274,10.100396,0.635695,0.058900,0.050451,0.488281,-1.251221,-7.720947
9.603784,-0.021555,0.687371,10.041119,0.089631,0.204996,-0.008826,0.213623,-2.075195,-12.817383
9.613849,0.107776,0.788560,10.025552,0.218962,0.306186,-0.024393,0.640869,-1.922607,-12.847900
9.623914,0.337099,0.303569,10.039922,0.448285,-0.178805,-0.010023,0.732422,-1.586914,-9.338379
9.633978,-0.603545,0.182021,10.066267,-0.492359,-0.300353,0.016322,-1.098633,-1.922607,-10.559082
9.644042,-0.443677,0.234712,10.023157,-0.332492,-0.247662,-0.026788,-0.732422,-1.464844,-9.002686
9.654107,0.085622,0.323328,10.036329,0.196808,-0.159047,-0.013616,-0.823975,-0.976562,-4.699707
9.664172,-0.003593,0.162861,10.077045,0.107593,-0.319513,0.027100,-0.152588,-0.915527,-4.760742
9.674237,-0.202978,-0.004191,10.159673,-0.091792,-0.486565,0.109728,1.068115,-0.793457,-6.072998
9.684301,0.040117,0.325124,10.183024,0.151302,-0.157250,0.133079,0.366211,-0.946045,-4.913330
9.694366,-0.410147,0.666414,10.102192,-0.298961,0.184040,0.052247,0.671387,-0.854492,-4.669189
9.704431,-0.305365,0.039518,10.241104,-0.194179,-0.442856,0.191158,0.762939,-0.427246,-3.936768
9.714495,-0.285007,0.188009,10.072853,-0.173822,-0.294365,0.022908,0.061035,-0.366211,-2.624512
9.724561,-0.376617,0.200583,10.008188,-0.265431,-0.281791,-0.041757,-0.213623,-0.183105,0.183105
9.734625,-0.216749,0.160466,9.971065,-0.105563,-0.321908,-0.078880,-0.274658,-0.091553,1.586914
9.744690,-0.261057,0.224533,10.124346,-0.149871,-0.257841,0.074401,0.091553,0.885010,8.331299
9.754755,-0.273032,0.809517,9.998608,-0.161846,0.327142,-0.051337,0.518799,1.556396,14.373779
9.764820,0.159868,0.564626,10.102192,0.271053,0.082252,0.052247,1.342773,1.434326,15.136719
9.774885,-0.195194,0.650248,9.969868,-0.084008,0.167874,-0.080077,0.122070,0.915527,11.047363
9.784949,-0.150886,0.819097,9.955497,-0.039700,0.336723,-0.094448,-0.274658,0.946045,11.810303
9.795014,0.347877,0.521516,9.979448,0.459062,0.039141,-0.070497,1.983643,0.640869,12.084961
9.805079,0.358055,0.647853,9.926158,0.469241,0.165479,-0.123787,0.915527,0.793457,9.948730
9.815145,-0.105381,0.716111,10.075847,0.005805,0.233737,0.025902,-1.556396,0.579834,8.087158
9.825218,0.031135,0.478405,10.087822,0.142321,-0.003969,0.037877,-1.892090,0.854492,7.720947
9.835284,0.209564,0.642464,9.958491,0.320750,0.160090,-0.091454,-1.831055,0.579834,7.629395
9.845349,-0.004191,0.668210,10.218351,0.106995,0.185836,0.168406,-0.823975,0.335693,6.683350
9.855414,0.098795,0.655637,10.126741,0.209980,0.173262,0.076796,0.061035,0.122070,5.950928
9.865478,-0.099393,0.426912,9.950707,0.011792,-0.055462,-0.099238,-0.488281,0.518799,4.119873
9.875543,-0.104183,0.399370,10.024354,0.007002,-0.083005,-0.025591,-0.305176,0.793457,3.845215
9.885608,0.118553,0.519120,10.110575,0.229739,0.036746,0.060630,1.037598,1.129150,5.828857
9.895672,0.113763,0.395777,10.115365,0.224949,-0.086597,0.065420,1.403809,0.915527,4.333496
9.905736,0.129930,0.680186,9.976454,0.241116,0.197811,-0.073491,2.410889,0.457764,2.929688
9.915802,0.095801,0.503553,9.880054,0.206987,0.021179,-0.169891,1.251221,0.396729,1.647949
9.925867,-0.067659,0.571811,10.027348,0.043526,0.089437,-0.022597,-0.488281,0.518799,-1.892090
9.935932,0.116757,0.508942,10.012978,0.227943,0.026568,-0.036967,-0.122070,-0.030518,-7.385254
9.945997,-0.083826,0.581391,10.032138,0.027360,0.099017,-0.017807,-0.335693,-0.305176,-7.110596
9.956062,0.172441,0.329315,10.123748,0.283627,-0.153059,0.073803,0.335693,-0.518799,-4.730225
9.966127,-0.115560,0.434696,10.156080,-0.004374,-0.047678,0.106135,0.427246,-0.396729,-4.302979
9.976192,-0.106578,0.367635,9.789044,0.004607,-0.114739,-0.260901,1.953125,-0.549316,-3.723145
9.986257,0.015568,0.372426,10.093810,0.126753,-0.109949,0.043865,-1.281738,0.000000,-1.892090
9.996322,-0.029938,0.308958,10.205777,0.081248,-0.173417,0.155832,-0.488281,0.183105,-1.129150
10.006387,-0.058079,0.056283,10.231523,0.053107,-0.426091,0.181578,0.061035,-0.366211,-1.190186
10.016471,-0.209564,0.423918,10.018367,-0.098378,-0.058456,-0.031578,0.091553,-0.335693,-1.007080
10.026537,-0.085023,0.420326,10.159673,0.026163,-0.062048,0.109728,-0.366211,0.122070,1.434326
10.036603,-0.096400,0.549657,9.847123,0.014786,0.067283,-0.202822,0.122070,0.183105,2.563477
10.046668,-0.023351,0.481399,10.085427,0.087834,-0.000975,0.035482,-0.366211,0.396729,3.967285
10.056733,0.103585,0.366438,9.972861,0.214770,-0.115936,-0.077084,0.305176,0.122070,2.502441
10.066799,-0.028740,0.437690,9.982441,0.082446,-0.044684,-0.067504,-0.061035,0.061035,0.976562
10.076864,0.005988,0.425715,10.177635,0.117173,-0.056659,0.127690,-0.335693,-0.091553,2.044678
10.086930,-0.004191,0.402363,10.091415,0.106995,-0.080011,0.041470,-0.335693,0.152588,2.655029
10.096995,0.005389,0.453257,10.051897,0.116575,-0.029117,0.001952,0.823975,0.274658,2.685547
10.107067,-0.056283,0.316143,10.111174,0.054903,-0.166232,0.061229,-0.488281,0.396729,1.983643
10.117131,-0.152084,0.379611,10.044712,-0.040898,-0.102764,-0.005233,0.427246,0.396729,1.037598
10.127196,-0.177231,0.389191,9.998009,-0.066046,-0.093183,-0.051936,1.068115,0.305176,1.159668
10.137261,-0.125739,0.465831,9.951905,-0.014553,-0.016543,-0.098040,0.579834,0.091553,0.366211
10.147326,-0.270637,0.497565,9.983639,-0.159451,0.015191,-0.066306,-0.030518,0.122070,-1.068115
10.157390,-0.217348,0.520917,9.908795,-0.106162,0.038543,-0.141150,-0.366211,0.152588,-1.007080
10.167455,-0.376617,0.578397,9.951306,-0.265431,0.096023,-0.098639,-0.274658,0.335693,-1.098633
10.177519,-0.058079,0.196392,10.111772,0.053107,-0.285983,0.061827,0.152588,0.274658,-2.044678
10.187585,-0.079036,0.505349,9.956695,0.032150,0.022975,-0.093250,-1.220703,0.274658,-4.211426
10.197649,-0.323328,0.351469,10.132729,-0.212142,-0.130905,0.082784,1.251221,0.213623,-3.143311
10.207715,-0.063468,0.233514,10.048903,0.047718,-0.248860,-0.001042,1.037598,0.518799,-0.762939
10.217781,-0.394579,0.440684,10.175240,-0.283394,-0.041691,0.125295,1.190186,0.427246,-4.058838
10.227845,-0.384401,0.280816,10.054891,-0.273215,-0.201558,0.004946,1.037598,0.335693,-2.349854
10.237911,-0.336500,0.340692,10.087822,-0.225314,-0.141683,0.037877,-0.274658,0.518799,1.251221
10.247976,-0.231718,0.227527,9.993219,-0.120532,-0.254847,-0.056726,-0.823975,0.640869,0.091553
10.258043,-0.121547,0.413141,10.084828,-0.010361,-0.069233,0.034883,-1.220703,0.366211,-2.075195
10.268109,-0.196392,0.343685,10.120754,-0.085206,-0.138689,0.070809,-0.549316,0.518799,-2.166748
10.278173,-0.138911,-0.082029,10.074051,-0.027725,-0.564404,0.024106,0.640869,0.549316,-1.342773
10.288239,-0.295186,0.319735,9.968670,-0.184000,-0.162639,-0.081275,-1.342773,-0.213623,-1.892090
10.298304,-0.385598,0.434097,10.133926,-0.274412,-0.048277,0.083981,-2.166748,-0.671387,-2.502441
10.308370,-0.289797,0.434696,10.104587,-0.178612,-0.047678,0.054642,-2.136230,-0.732422,-3.936768
10.318434,-0.189207,0.294587,9.974059,-0.078021,-0.187787,-0.075886,-1.464844,-0.946045,-5.218506
10.328500,-0.049098,0.210762,10.174043,0.062088,-0.271612,0.124098,0.305176,-1.342773,-7.354736
10.338565,-0.409548,0.352667,10.071656,-0.298363,-0.129708,0.021711,0.488281,-1.464844,-6.927490
10.348630,-0.457449,0.514929,10.067465,-0.346263,0.032555,0.017520,0.915527,-1.586914,-5.889893
10.358695,-0.310754,0.395777,10.084230,-0.199568,-0.086597,0.034285,0.823975,-1.770020,-3.448486
10.368761,-0.111967,0.460443,10.058483,-0.000781,-0.021932,0.008538,0.915527,-1.770020,-3.051758
10.378826,-0.136516,0.196392,10.036928,-0.025330,-0.285983,-0.013017,0.488281,-1.434326,-5.432129
10.388894,-0.199984,0.225132,10.038724,-0.088798,-0.257242,-0.011221,0.152588,-1.342773,-7.629395
10.398959,-0.299976,0.275427,10.059681,-0.188790,-0.206947,0.009736,-0.183105,-0.732422,-7.507324
10.409024,-0.381407,0.441881,10.104587,-0.270221,-0.040493,0.054642,-0.122070,-0.366211,-5.126953
10.419089,-0.276026,0.244292,10.124346,-0.164840,-0.238082,0.074401,-0.122070,-0.122070,-3.021240
10.429154,-0.277822,0.207768,10.057286,-0.166636,-0.274606,0.007341,0.183105,-0.183105,-1.953125
10.439219,-0.428708,0.296384,10.072255,-0.317523,-0.185990,0.022310,0.305176,0.030518,-1.190186
10.449285,-0.070054,0.071851,10.168654,0.041131,-0.410524,0.118709,0.183105,0.183105,2.166748
10.459350,-0.075443,0.168849,10.175240,0.035743,-0.313525,0.125295,1.007080,0.091553,2.563477
10.469415,-0.180824,0.179028,10.175839,-0.069638,-0.303346,0.125894,1.373291,0.366211,3.967285
10.479480,-0.072449,0.535287,10.020163,0.038736,0.052913,-0.029782,0.885010,0.488281,5.035400
10.489546,-0.076042,0.574805,10.101594,0.035144,0.092431,0.051649,0.518799,0.823975,6.408691
10.499611,0.211360,0.635279,9.996812,0.322546,0.152905,-0.053134,1.068115,1.190186,8.056641
10.509677,0.059277,0.489781,10.059681,0.170463,0.007407,0.009736,0.335693,1.220703,7.202148
10.519742,-0.164658,0.571811,10.126143,-0.053472,0.089437,0.076198,-1.068115,0.427246,2.807617
10.529806,0.097597,0.655038,10.074650,0.208783,0.172664,0.024705,-0.793457,0.671387,1.464844
10.539871,0.134121,0.722098,10.018367,0.245307,0.239724,-0.031578,-0.427246,0.793457,0.793457
10.550002,0.068857,0.568218,10.018367,0.180043,0.085844,-0.031578,-0.579834,0.823975,0.000000
10.560067,0.016166,0.532293,10.021360,0.127352,0.049919,-0.028585,-0.274658,0.427246,-1.617432
10.570132,-0.061073,0.700543,9.957294,0.050113,0.218169,-0.092651,-0.122070,0.244141,-2.105713
10.580197,0.097597,0.522713,9.999207,0.208783,0.040339,-0.050738,-0.549316,0.213623,-1.312256
10.590262,0.135319,0.371228,10.041718,0.246504,-0.111146,-0.008227,-0.396729,-0.427246,-3.234863
10.600327,0.144300,0.398771,10.048903,0.255486,-0.083603,-0.001042,-0.701904,-0.457764,-4.913330
10.610393,0.109572,0.469424,10.082433,0.220758,-0.012950,0.032488,-0.061035,-0.579834,-5.706787
10.620481,0.100591,0.397573,10.021360,0.211777,-0.084801,-0.028585,-0.335693,-0.488281,-6.195068
10.630575,0.079036,0.326920,10.034533,0.190221,-0.155454,-0.015412,-0.518799,-0.762939,-9.429932
10.640672,-0.125140,0.465831,9.996213,-0.013954,-0.016543,-0.053732,-0.823975,-0.701904,-10.070801
10.650768,-0.020358,0.257465,10.029743,0.090828,-0.224910,-0.020202,-1.251221,-0.488281,-10.131836
10.660866,-0.077239,0.319735,10.094409,0.033946,-0.162639,0.044464,-1.068115,-0.732422,-11.322021
10.670962,-0.082029,0.256267,10.088421,0.029156,-0.226107,0.038476,-0.854492,-0.793457,-11.352539
10.681058,0.053888,0.316143,10.032138,0.165074,-0.166232,-0.017807,0.549316,-0.793457,-9.918213
10.691154,-0.111967,0.493973,10.042916,-0.000781,0.011599,-0.007029,0.122070,-0.854492,-10.498047
10.701254,-0.285007,0.540077,10.063273,-0.173822,0.057703,0.013328,0.274658,-0.366211,-8.789062
10.711349,-0.202379,0.214953,10.059681,-0.091193,-0.267421,0.009736,-0.152588,-0.579834,-8.483887
10.721439,-0.010778,0.190404,10.068662,0.100408,-0.291970,0.018717,-0.030518,-0.793457,-9.063721
10.731530,-0.133522,0.437690,10.051298,-0.022337,-0.044684,0.001353,0.396729,-0.762939,-9.613037
10.741621,-0.259860,0.282014,10.044113,-0.148674,-0.200361,-0.005832,0.000000,-1.129150,-10.803223
10.751711,-0.205373,0.396974,10.005194,-0.094187,-0.085400,-0.044751,-0.396729,-1.342773,-10.833740
10.761801,-0.270038,0.330513,10.045909,-0.158853,-0.151861,-0.004036,-0.915527,-1.434326,-9.552002
10.771891,-0.315544,0.348475,10.050699,-0.204358,-0.133899,0.000754,-0.823975,-1.342773,-7.995605
10.781981,-0.149090,0.268242,10.069860,-0.037904,-0.214132,0.019915,-0.274658,-1.068115,-6.713867
10.792070,-0.235311,0.328716,10.048304,-0.124125,-0.153658,-0.001641,0.091553,-0.915527,-5.920410
10.802160,-0.216749,0.074246,10.165660,-0.105563,-0.408129,0.115715,-0.274658,-0.915527,-5.676270
10.812244,-0.148491,0.196392,10.139914,-0.037305,-0.285983,0.089969,0.030518,-0.457764,-5.584717
10.822333,-0.370031,0.377216,10.059082,-0.258845,-0.105159,0.009137,0.091553,-0.030518,-3.875732
10.832431,-0.411943,0.377216,10.086625,-0.300758,-0.105159,0.036680,-0.183105,0.213623,-2.685547
10.842526,-0.176034,0.422721,10.065070,-0.064848,-0.059653,0.015125,0.366211,0.488281,-1.159668
10.852624,-0.271835,0.668809,10.029144,-0.160649,0.186435,-0.020801,0.427246,0.518799,-0.946045
10.862720,-0.390388,0.372426,9.996213,-0.279202,-0.109949,-0.053732,0.305176,0.762939,-0.457764
10.872817,-0.143701,0.102986,10.121951,-0.032515,-0.379388,0.072006,-0.274658,0.366211,-2.502441
10.882914,-0.228126,0.246687,10.103390,-0.116940,-0.235687,0.053445,-0.335693,0.396729,-3.112793
10.893007,-0.689167,0.607137,10.118359,-0.577981,0.124763,0.068414,-0.488281,0.823975,-1.953125
10.903100,-0.489781,0.708926,10.172845,-0.378596,0.226552,0.122900,-1.220703,1.190186,0.305176
10.913192,-0.222737,0.437091,10.080637,-0.111551,-0.045283,0.030692,-1.403809,1.403809,0.610352
10.923284,-0.574206,0.106578,10.041119,-0.463020,-0.375796,-0.008826,-1.464844,1.556396,1.098633
10.933370,-0.564027,-0.001198,10.011182,-0.452841,-0.483572,-0.038763,-2.380371,1.708984,2.532959
10.943458,-0.453856,0.431104,10.009385,-0.342670,-0.051271,-0.040560,-1.770020,1.861572,8.514404
10.953544,-0.504750,0.540676,10.120754,-0.393565,0.058302,0.070809,-0.122070,2.532959,11.291504
10.963630,-0.145497,0.275427,10.186018,-0.034312,-0.206947,0.136073,2.593994,2.227783,14.495850
10.973717,-0.108973,0.070653,10.169253,0.002212,-0.411721,0.119308,3.601074,1.678467,13.977051
10.983804,-0.170046,0.348475,10.120754,-0.058861,-0.133899,0.070809,4.180908,1.342773,11.322021
10.993891,-0.179626,0.123344,10.190209,-0.068441,-0.359031,0.140264,2.593994,0.732422,9.246826
11.003978,-0.313149,0.199984,10.066866,-0.201963,-0.282390,0.016921,1.861572,0.640869,7.385254
11.014878,-0.261656,0.403561,10.081236,-0.150470,-0.078813,0.031291,1.708984,0.701904,8.911133
11.024969,-0.301772,0.252675,10.100995,-0.190587,-0.229700,0.051050,1.251221,0.946045,8.728027
11.035058,-0.274230,0.517324,9.994417,-0.163044,0.034950,-0.055529,0.793457,0.915527,8.026123
11.045150,-0.383203,0.316143,9.972263,-0.272017,-0.166232,-0.077682,-1.068115,0.762939,8.819580
11.055240,0.039518,0.046104,10.081236,0.150704,-0.436270,0.031291,-1.129150,-0.091553,6.500244
11.065328,-0.128134,0.578996,10.037527,-0.016948,0.096622,-0.012418,1.678467,0.122070,5.554199
11.075418,-0.274230,0.745450,9.926757,-0.163044,0.263076,-0.123188,-0.671387,-0.030518,10.925293
11.085506,-0.042512,0.623304,10.112371,0.068674,0.140930,0.062426,0.183105,-0.244141,10.009766
11.095597,0.032932,0.622106,9.888437,0.144117,0.139732,-0.161508,2.288818,-0.610352,7.965088
11.105684,0.176034,0.406555,10.015972,0.287220,-0.075820,-0.033973,1.281738,-0.488281,5.645752
11.115822,-0.162263,0.807122,10.089020,-0.051077,0.324747,0.039075,1.251221,-0.488281,4.089355
11.125916,0.038320,0.682581,9.947714,0.149506,0.200206,-0.102231,-0.335693,0.122070,2.593994
11.136015,-0.077838,0.563428,10.059082,0.033348,0.081054,0.009137,-0.946045,0.305176,0.610352
11.146109,-0.234113,0.313748,10.093211,-0.122927,-0.168627,0.043266,-0.915527,0.793457,-1.647949
11.156207,-0.087418,0.604144,10.144704,0.023768,0.121770,0.094759,0.976562,0.946045,-3.051758
11.166304,0.347278,0.258662,10.105186,0.458464,-0.223712,0.055241,0.335693,0.915527,-7.781982
11.176403,-0.085622,0.603545,9.998608,0.025564,0.121171,-0.051337,0.061035,0.396729,-8.850098
11.186496,-0.282014,0.962798,9.943522,-0.170828,0.480424,-0.106423,1.190186,0.488281,-8.392334
11.196593,0.169448,0.631686,10.026749,0.280633,0.149312,-0.023196,0.854492,-0.122070,-6.683350
11.206687,0.116158,0.493973,10.141710,0.227344,0.011599,0.091765,0.457764,-0.762939,-7.171631
11.216782,-0.362247,0.511935,9.992620,-0.251061,0.029561,-0.057325,-1.678467,-1.342773,-7.629395
11.226880,-0.217947,0.501158,9.944121,-0.106761,0.018784,-0.105824,-2.166748,-1.312256,-6.469727
11.236977,-0.086221,0.295186,10.075248,0.024965,-0.187188,0.025303,-2.258301,-1.403809,-3.692627
11.247076,-0.046104,0.401765,10.032737,0.065082,-0.080610,-0.017208,-2.349854,-1.220703,-2.746582
11.257174,-0.205972,0.422122,9.935140,-0.094786,-0.060252,-0.114805,-1.464844,-0.549316,-3.875732
11.267272,0.337698,0.478405,10.144704,0.448884,-0.003969,0.094759,-0.793457,-0.061035,-3.479004
11.277370,-0.181423,0.647853,10.023157,-0.070237,0.165479,-0.026788,-1.525879,0.549316,-1.739502
11.287467,-0.099992,0.550256,9.990824,0.011194,0.067882,-0.059121,-2.166748,1.159668,-1.312256
11.297564,0.107177,0.325723,10.121951,0.218363,-0.156651,0.072006,-1.647949,1.190186,-0.091553
11.307662,0.265248,0.280816,10.127340,0.376434,-0.201558,0.077395,-0.183105,1.068115,1.007080
11.317759,0.038919,0.303569,10.184821,0.150105,-0.178805,0.134876,0.610352,0.854492,1.586914
11.327851,-0.077239,0.489781,9.939331,0.033946,0.007407,-0.110614,0.091553,1.037598,2.838135
11.337942,0.019160,0.354463,10.119556,0.130346,-0.127911,0.069611,-0.579834,0.518799,2.746582
11.348032,0.000000,0.391586,10.021959,0.111186,-0.090788,-0.027986,-0.885010,0.366211,3.143311
11.358122,-0.161065,0.464035,10.047706,-0.049879,-0.018339,-0.002239,0.152588,0.457764,3.234863
11.368213,-0.253273,0.397573,10.050101,-0.142088,-0.084801,0.000156,0.061035,0.305176,2.441406
11.378304,-0.165855,0.233514,10.083631,-0.054669,-0.248860,0.033686,0.305176,0.061035,1.098633
11.388394,-0.270637,0.346080,10.072853,-0.159451,-0.136294,0.022908,-0.274658,-0.274658,0.579834
11.398484,-0.304766,0.444276,10.060280,-0.193580,-0.038098,0.010335,0.030518,-0.030518,2.868652
11.408575,-0.338297,0.224533,10.127939,-0.227111,-0.257841,0.077994,0.732422,-0.366211,3.997803
11.418665,-0.415536,-0.002395,9.994417,-0.304350,-0.484769,-0.055529,2.258301,-0.366211,4.699707
11.428757,-0.307760,0.344883,10.034533,-0.196574,-0.137491,-0.015412,2.777100,-0.122070,7.202148
11.438854,-0.299976,0.370629,10.003997,-0.188790,-0.111745,-0.045948,2.899170,0.518799,8.392334
11.448951,0.005988,0.196392,10.080637,0.117173,-0.285983,0.030692,1.525879,0.457764,6.866455
11.459049,-0.077239,0.275427,10.026151,0.033946,-0.206947,-0.023795,0.976562,0.427246,4.577637
11.469146,-0.188608,0.272433,9.997410,-0.077422,-0.209941,-0.052535,-0.274658,0.030518,2.563477
11.479242,-0.061672,0.347877,10.005194,0.049514,-0.134498,-0.044751,0.701904,0.122070,2.227783
11.489339,-0.102387,0.499960,9.914782,0.008799,0.017586,-0.135163,0.701904,0.427246,2.655029
11.499435,0.035925,0.358055,10.090217,0.147111,-0.124319,0.040272,-1.190186,0.213623,2.044678
11.509532,0.066462,0.431702,10.007589,0.177648,-0.050672,-0.042356,-0.152588,0.183105,0.183105
11.519629,-0.121547,0.681383,9.946516,-0.010361,0.199009,-0.103429,0.152588,0.213623,0.823975
11.529725,0.032932,0.631686,10.139315,0.144117,0.149312,0.089370,-0.305176,-0.122070,0.000000
11.539822,-0.185015,0.458646,10.103989,-0.073829,-0.023728,0.054044,-1.129150,-0.732422,-2.746582
11.549920,-0.113763,0.648452,10.011182,-0.002578,0.166077,-0.038763,-0.305176,-0.701904,-2.227783
11.560017,-0.120350,0.611329,10.003398,-0.009164,0.128955,-0.046547,-3.601074,-1.525879,-3.601074
11.570116,-0.085023,0.443677,10.010583,0.026163,-0.038697,-0.039362,-3.295898,-1.586914,-5.737305
11.580213,-0.085622,0.345482,10.082433,0.025564,-0.136893,0.032488,-2.929688,-1.556396,-6.317139
11.590310,-0.213157,0.356858,9.966275,-0.101971,-0.125516,-0.083670,-1.647949,-0.854492,-6.103516
11.600406,-0.164059,0.353265,10.112970,-0.052873,-0.129109,0.063025,-1.525879,-0.701904,-5.889893
11.610503,-0.204774,0.343685,10.036928,-0.093588,-0.138689,-0.013017,-1.678467,-0.274658,-5.218506
11.620599,-0.261057,0.363444,10.080038,-0.149871,-0.118930,0.030093,-1.556396,-0.122070,-5.310059
11.630692,-0.183818,0.309556,9.954899,-0.072632,-0.172818,-0.095046,-1.098633,0.335693,-4.394531
11.640785,-0.255668,0.239502,10.028546,-0.144483,-0.242872,-0.021399,-0.488281,0.488281,-4.119873
11.650881,-0.164059,0.260458,10.044113,-0.052873,-0.221916,-0.005832,-0.549316,0.335693,-4.119873
11.660978,-0.195194,0.354463,10.099199,-0.084008,-0.127911,0.049254,-1.281738,0.122070,-4.791260
11.671075,-0.295785,0.417931,10.186617,-0.184599,-0.064443,0.136672,-1.068115,-0.549316,-5.981445
11.681171,-0.232317,0.493374,10.203382,-0.121131,0.011000,0.153437,-0.610352,-1.037598,-2.807617
11.691267,-0.193997,0.516127,10.022558,-0.082811,0.033753,-0.027387,0.335693,-1.312256,-0.396729
11.701364,-0.255668,0.377814,10.073452,-0.144483,-0.104560,0.023507,2.044678,-0.579834,0.396729
11.711468,0.025746,0.426912,10.172845,0.136932,-0.055462,0.122900,1.953125,-0.488281,0.518799
11.721566,-0.201182,0.471220,10.054891,-0.089996,-0.011154,0.004946,2.319336,-0.427246,-1.220703
11.731663,-0.116158,0.574805,9.975256,-0.004973,0.092431,-0.074689,2.075195,-0.244141,-4.058838
11.741760,-0.067659,0.734073,10.042317,0.043526,0.251699,-0.007628,3.021240,-0.366211,-5.126953
11.751858,-0.232317,0.729882,9.977651,-0.121131,0.247508,-0.072294,2.960205,-0.274658,-5.645752
11.761955,-0.305365,0.549058,9.865684,-0.194179,0.066684,-0.184261,2.380371,-0.091553,-4.638672
11.772052,-0.225132,0.276625,10.082433,-0.113946,-0.205749,0.032488,-0.335693,-0.396729,-5.157471
11.782149,-0.304766,0.443079,9.960886,-0.193580,-0.039296,-0.089059,-1.068115,0.122070,-3.051758
11.792246,-0.179028,0.670007,9.953701,-0.067842,0.187633,-0.096244,-0.091553,0.518799,-2.136230
11.802342,-0.079036,0.447270,10.078841,0.032150,-0.035104,0.028896,-1.403809,0.549316,0.122070
11.812438,-0.283211,0.508343,10.073452,-0.172025,0.025969,0.023507,-2.105713,0.488281,-1.647949
11.822534,-0.075443,0.302371,10.180031,0.035743,-0.180003,0.130085,-2.197266,0.305176,-1.556396
11.832712,-0.091609,0.385598,10.142908,0.019576,-0.096776,0.092963,-1.373291,0.305176,-1.281738
11.842812,-0.153281,0.454455,10.034533,-0.042095,-0.027919,-0.015412,-1.617432,0.030518,-2.197266
11.852905,-0.235311,0.464035,9.951905,-0.124125,-0.018339,-0.098040,-1.037598,0.274658,-2.105713
11.862998,-0.014969,0.398771,10.002200,0.096217,-0.083603,-0.047745,-0.030518,-0.396729,-1.159668
11.873090,-0.200583,0.399370,10.095606,-0.089397,-0.083005,0.045661,0.061035,-0.457764,0.000000
11.883183,-0.105381,0.252675,10.119556,0.005805,-0.229700,0.069611,0.488281,-0.396729,1.678467
11.893275,0.050894,0.253872,10.118359,0.162080,-0.228502,0.068414,1.098633,-0.762939,2.593994
11.903368,-0.088017,0.400567,10.086026,0.023169,-0.081807,0.036081,1.281738,-0.823975,2.838135
11.913460,-0.038320,0.413740,10.003398,0.072865,-0.068635,-0.046547,1.159668,-0.549316,2.868652
11.923556,0.067061,0.425715,10.001003,0.178246,-0.056659,-0.048942,1.251221,-0.427246,2.624512
11.933646,0.002395,0.449665,10.053094,0.113581,-0.032709,0.003149,2.105713,-0.366211,1.678467
11.943803,-0.177231,0.436492,10.026749,-0.066046,-0.045882,-0.023196,1.251221,-0.549316,1.159668
11.953890,-0.252076,0.381407,10.035731,-0.140890,-0.100967,-0.014214,0.610352,-0.427246,0.640869
11.963976,-0.169448,0.459245,10.072255,-0.058262,-0.023129,0.022310,0.030518,-0.610352,1.037598
11.974061,-0.193997,0.537682,10.017169,-0.082811,0.055308,-0.032776,-0.274658,-0.274658,1.678467
11.984151,-0.150287,0.422721,10.016570,-0.039102,-0.059653,-0.033375,0.091553,-0.122070,2.227783
11.994236,-0.170046,0.428110,10.021959,-0.058861,-0.054264,-0.027986,-0.152588,0.183105,2.502441
12.004322,-0.189207,0.419128,10.034533,-0.078021,-0.063246,-0.015412,-0.183105,0.244141,2.349854
12.014408,-0.047302,0.302371,10.084828,0.063884,-0.180003,0.034883,-0.183105,0.457764,2.532959
12.024494,-0.056882,0.271835,10.150093,0.054304,-0.210539,0.100148,-0.183105,0.640869,2.502441
12.034582,0.022753,0.198188,10.098001,0.133938,-0.284186,0.048056,1.464844,0.793457,2.777100
12.044671,-0.123344,0.345482,10.045311,-0.012158,-0.136893,-0.004634,1.281738,0.732422,2.807617
12.054757,-0.332309,0.287402,10.086625,-0.221123,-0.194972,0.036680,-0.793457,0.701904,3.936768
12.064842,-0.128134,0.419727,10.086026,-0.016948,-0.062647,0.036081,-0.823975,0.610352,4.547119
12.074931,-0.253273,0.415536,10.112371,-0.142088,-0.066838,0.062426,-0.213623,0.518799,4.364014
12.085016,-0.052690,0.441881,10.047706,0.058495,-0.040493,-0.002239,-0.244141,0.640869,4.150391
12.095106,0.055684,0.442480,10.047107,0.166870,-0.039894,-0.002838,-0.701904,0.244141,3.601074
12.105197,-0.332309,0.493973,10.001602,-0.221123,0.011599,-0.048343,-0.640869,0.366211,3.570557
12.115286,-0.264650,0.368234,10.049502,-0.153464,-0.114140,-0.000443,-1.007080,0.579834,3.295898
12.125372,-0.138312,0.417332,10.080637,-0.027127,-0.065042,0.030692,-1.525879,0.610352,2.288818
12.135467,-0.040117,0.512534,10.109377,0.071069,0.030160,0.059432,-0.671387,0.854492,2.319336
12.145559,-0.104782,0.474214,10.135124,0.006404,-0.008160,0.085179,0.061035,0.976562,3.021240
12.155654,-0.184417,0.323328,10.020762,-0.073231,-0.159047,-0.029183,-0.305176,0.640869,2.136230
12.165750,-0.094603,0.331710,10.002799,0.016583,-0.150664,-0.047146,-0.152588,0.335693,-0.091553
12.175845,0.102986,0.498164,9.966275,0.214172,0.015790,-0.083670,0.488281,0.396729,0.488281
12.185936,0.168849,0.343087,10.010583,0.280035,-0.139288,-0.039362,-0.396729,0.091553,-0.335693
12.196031,-0.083826,0.521516,10.005194,0.027360,0.039141,-0.044751,-0.976562,-0.579834,-4.638672
12.206124,0.082029,0.648452,9.953102,0.193215,0.166077,-0.096843,-0.701904,-0.457764,-3.356934
12.216232,0.089813,0.277822,10.124945,0.200999,-0.204552,0.075000,1.464844,-0.183105,-2.624512
12.226324,0.041913,0.316741,9.993818,0.153099,-0.165633,-0.056127,2.075195,-0.152588,-3.906250
12.236413,-0.121547,0.371228,9.992021,-0.010361,-0.111146,-0.057924,2.899170,-0.061035,-3.387451
12.246499,-0.102387,0.339494,10.075248,0.008799,-0.142880,0.025303,1.739502,-0.518799,-2.471924
12.256588,-0.227527,0.387993,10.054891,-0.116341,-0.094381,0.004946,1.373291,-0.793457,-3.387451
12.266675,-0.092208,0.244891,10.143506,0.018978,-0.237483,0.093561,1.220703,-1.068115,-2.929688
12.276763,-0.114961,0.223336,10.119556,-0.003775,-0.259039,0.069611,0.732422,-0.976562,-3.326416
12.286853,-0.159868,0.386796,10.008787,-0.048682,-0.095578,-0.041158,1.312256,-0.854492,-3.387451
12.296942,-0.204774,0.407153,10.036329,-0.093588,-0.075221,-0.013616,0.396729,-0.793457,-1.434326
12.307030,-0.156874,0.411943,10.039323,-0.045688,-0.070431,-0.010622,0.061035,-0.610352,0.457764
12.317120,0.134121,0.414937,10.048304,0.245307,-0.067437,-0.001641,0.762939,-0.366211,1.708984
12.327208,0.077838,0.350870,10.080038,0.189024,-0.131504,0.030093,0.457764,-0.427246,2.716064
12.337299,-0.028740,0.237706,10.066866,0.082446,-0.244668,0.016921,2.044678,-0.274658,-1.556396
12.347397,0.013173,0.349673,10.034533,0.124358,-0.132701,-0.015412,2.288818,-0.396729,-1.495361
12.357494,-0.197589,0.682581,10.064471,-0.086403,0.200206,0.014526,1.251221,-0.244141,-0.854492
12.367592,-0.160466,0.375419,10.133328,-0.049281,-0.106955,0.083383,1.922607,0.091553,0.335693
12.377691,-0.116757,0.468226,9.936936,-0.005571,-0.014148,-0.113009,0.946045,-0.030518,1.434326
12.387788,0.347278,0.465233,10.265054,0.458464,-0.017142,0.215109,-0.488281,-0.305176,2.044678
12.397884,0.210762,0.368234,10.113569,0.321948,-0.114140,0.063624,-2.838135,-0.823975,1.586914
12.407981,-0.053289,0.487386,9.950109,0.057897,0.005012,-0.099836,-0.549316,-0.976562,-2.410889
12.418078,-0.016765,0.543071,10.034533,0.094421,0.060697,-0.015412,-0.579834,-0.793457,-0.854492
12.428174,0.110770,0.538879,10.045909,0.221955,0.056505,-0.004036,-0.427246,-0.732422,3.509521
12.438263,0.143701,0.599952,10.005194,0.254887,0.117578,-0.044751,0.732422,-0.518799,3.387451
12.448352,0.406555,0.512534,9.951306,0.517740,0.030160,-0.098639,1.251221,-0.549316,3.051758
12.458442,0.082029,0.319735,10.095007,0.193215,-0.162639,0.045062,0.915527,-0.823975,1.098633
12.468533,0.004191,0.534688,10.044113,0.115377,0.052314,-0.005832,-0.335693,-0.793457,-0.091553
12.478623,0.083227,0.714913,9.979448,0.194413,0.232539,-0.070497,-0.061035,-0.427246,1.556396
12.488714,0.058678,0.693358,9.966874,0.169864,0.210984,-0.083071,-0.793457,-0.122070,3.234863
12.498804,0.220941,0.484991,10.038126,0.332126,0.002617,-0.011819,-0.335693,-0.061035,-0.488281
12.508894,0.007784,0.494572,10.061477,0.118970,0.012197,0.011532,-0.793457,-0.030518,-2.014160
12.518985,-0.073647,0.577798,10.046508,0.037539,0.095424,-0.003437,-1.678467,-0.122070,-2.166748
12.529075,0.087418,0.562830,10.068662,0.198604,0.080455,0.018717,0.762939,0.366211,-1.129150
12.539165,0.229323,0.372426,10.004595,0.340509,-0.109949,-0.045350,-1.312256,0.122070,-0.610352
12.549255,-0.215552,0.553250,10.011182,-0.104366,0.070875,-0.038763,-1.708984,0.213623,-0.640869
12.559345,-0.039518,0.429307,10.056687,0.071668,-0.053067,0.006742,-1.373291,0.152588,-0.274658
12.569438,-0.050295,0.469424,10.020762,0.060890,-0.012950,-0.029183,-0.762939,0.366211,1.190186
12.579529,-0.113165,0.449665,10.084828,-0.001979,-0.032709,0.034883,-0.488281,0.305176,1.617432
12.589619,-0.023351,0.432301,10.069860,0.087834,-0.050073,0.019915,0.091553,0.274658,1.800537
