time,ax_raw,ay_raw,az_raw,ax,ay,az,gx,gy,gz
0.000938,-0.062869,0.033530,10.078242,0.001321,-0.004042,0.016439,-0.030518,0.030518,-0.030518
0.011030,-0.062271,0.025148,10.071057,0.001920,-0.012424,0.009254,-0.061035,0.061035,-0.030518
0.021114,-0.068258,0.025148,10.064471,-0.004068,-0.012424,0.002667,-0.030518,0.061035,-0.030518
0.031203,-0.061672,0.026944,10.065070,0.002519,-0.010628,0.003266,0.000000,0.091553,-0.030518
0.041295,-0.066462,0.022753,10.062076,-0.002272,-0.014819,0.000272,0.000000,0.061035,-0.061035
0.051383,-0.065264,0.029339,10.057286,-0.001074,-0.008233,-0.004518,0.000000,0.061035,-0.061035
0.061474,-0.065863,0.024549,10.058483,-0.001673,-0.013023,-0.003320,0.030518,0.000000,-0.030518
0.071564,-0.070054,0.028740,10.062675,-0.005864,-0.008832,0.000871,0.000000,0.000000,-0.030518
0.081654,-0.068857,0.036524,10.072853,-0.004667,-0.001048,0.011050,0.030518,-0.030518,0.000000
0.091744,-0.068258,0.037123,10.071656,-0.004068,-0.000449,0.009853,0.000000,0.000000,0.030518
0.101835,-0.067659,0.038919,10.065070,-0.003469,0.001347,0.003266,0.000000,0.030518,0.030518
0.111926,-0.068857,0.035925,10.060280,-0.004667,-0.001647,-0.001524,0.000000,0.000000,0.030518
0.122015,-0.068857,0.037123,10.062675,-0.004667,-0.000449,0.000871,0.000000,0.030518,-0.030518
0.132106,-0.066462,0.036524,10.062675,-0.002272,-0.001048,0.000871,0.000000,0.061035,0.030518
0.142196,-0.064067,0.034728,10.066866,0.000123,-0.002844,0.005062,0.000000,0.061035,0.061035
0.152286,-0.059875,0.033530,10.058483,0.004315,-0.004042,-0.003320,0.000000,0.061035,0.000000
0.162376,-0.066462,0.034728,10.060280,-0.002272,-0.002844,-0.001524,0.030518,0.061035,0.030518
0.172467,-0.067659,0.032333,10.065668,-0.003469,-0.005239,0.003865,0.061035,0.061035,0.030518
0.182557,-0.068258,0.032932,10.072255,-0.004068,-0.004640,0.010451,0.030518,0.061035,0.030518
0.192646,-0.061672,0.034728,10.072853,0.002519,-0.002844,0.011050,0.030518,0.061035,0.000000
0.202732,-0.056882,0.035327,10.070458,0.007309,-0.002245,0.008655,0.030518,0.030518,0.030518
0.212821,-0.059875,0.045505,10.070458,0.004315,0.007934,0.008655,0.030518,0.061035,0.061035
0.222909,-0.060474,0.046104,10.075248,0.003716,0.008532,0.013445,-0.030518,0.061035,0.030518
0.232998,-0.063468,0.045505,10.070458,0.000722,0.007934,0.008655,-0.030518,0.091553,0.030518
0.243087,-0.061672,0.043110,10.059082,0.002519,0.005538,-0.002721,-0.030518,0.030518,-0.030518
0.253176,-0.065264,0.041913,10.065070,-0.001074,0.004341,0.003266,-0.061035,0.030518,-0.030518
0.263264,-0.068258,0.037123,10.063273,-0.004068,-0.000449,0.001470,-0.091553,-0.030518,-0.030518
0.273525,-0.070054,0.028740,10.073452,-0.005864,-0.008832,0.011649,-0.061035,0.000000,-0.061035
0.283617,-0.061073,0.026345,10.077045,0.003117,-0.011227,0.015241,-0.030518,-0.030518,-0.030518
0.293708,-0.061073,0.031135,10.069261,0.003117,-0.006437,0.007457,-0.061035,0.000000,0.000000
0.303822,-0.061073,0.032932,10.070458,0.003117,-0.004640,0.008655,-0.061035,0.000000,0.000000
0.313913,-0.065264,0.036524,10.066267,-0.001074,-0.001048,0.004464,-0.061035,0.000000,0.030518
0.324002,-0.058079,0.032333,10.072853,0.006111,-0.005239,0.011050,-0.061035,0.030518,0.061035
0.334093,-0.051493,0.034728,10.071656,0.012697,-0.002844,0.009853,-0.061035,0.061035,0.030518
0.344191,-0.057480,0.034728,10.074051,0.006710,-0.002844,0.012248,-0.030518,0.061035,0.030518
0.354287,-0.059875,0.033530,10.068063,0.004315,-0.004042,0.006260,-0.061035,0.030518,0.000000
0.364383,-0.057480,0.037123,10.071656,0.006710,-0.000449,0.009853,-0.061035,0.061035,0.000000
0.374479,-0.059277,0.034129,10.074650,0.004914,-0.003443,0.012846,-0.030518,0.061035,0.061035
0.384571,-0.055684,0.034129,10.075847,0.008506,-0.003443,0.014044,-0.030518,0.000000,0.030518
0.394658,-0.056283,0.040715,10.073452,0.007907,0.003143,0.011649,-0.030518,0.000000,0.030518
0.404755,-0.060474,0.044907,10.075248,0.003716,0.007335,0.013445,0.000000,0.000000,0.030518
0.414852,-0.060474,0.043709,10.075248,0.003716,0.006137,0.013445,-0.030518,0.000000,0.030518
0.424944,-0.060474,0.046104,10.080637,0.003716,0.008532,0.018834,0.030518,0.030518,0.000000
0.435034,-0.064666,0.050295,10.078841,-0.000475,0.012724,0.017038,0.030518,0.030518,0.030518
0.445119,-0.069456,0.047302,10.076446,-0.005265,0.009730,0.014643,0.061035,0.030518,0.000000
0.455206,-0.065264,0.042512,10.069860,-0.001074,0.004940,0.008056,0.061035,0.061035,-0.030518
0.465296,-0.064067,0.042512,10.070458,0.000123,0.004940,0.008655,0.030518,0.061035,-0.030518
0.475387,-0.055085,0.041913,10.077643,0.009105,0.004341,0.015840,0.000000,0.061035,-0.061035
0.485486,-0.062869,0.037722,10.077643,0.001321,0.000150,0.015840,0.030518,0.061035,-0.030518
0.495573,-0.060474,0.032932,10.074650,0.003716,-0.004640,0.012846,0.000000,0.091553,-0.030518
0.505659,-0.064666,0.035327,10.062675,-0.000475,-0.002245,0.000871,0.000000,0.061035,0.000000
0.515747,-0.068857,0.032333,10.060280,-0.004667,-0.005239,-0.001524,0.000000,0.091553,-0.030518
0.525847,-0.064666,0.036524,10.071057,-0.000475,-0.001048,0.009254,0.030518,0.030518,0.000000
0.535934,-0.069456,0.038320,10.069860,-0.005265,0.000748,0.008056,0.030518,0.030518,0.030518
0.546021,-0.068258,0.038320,10.064471,-0.004068,0.000748,0.002667,0.030518,-0.030518,0.030518
0.556107,-0.066462,0.034728,10.065668,-0.002272,-0.002844,0.003865,0.030518,-0.030518,0.030518
0.566193,-0.067659,0.034728,10.057286,-0.003469,-0.002844,-0.004518,0.030518,-0.030518,0.030518
0.576279,-0.067061,0.043110,10.066866,-0.002870,0.005538,0.005062,0.030518,0.000000,0.030518
0.586382,-0.070054,0.044308,10.067465,-0.005864,0.006736,0.005661,0.000000,0.030518,0.030518
0.596469,-0.067061,0.038919,10.060878,-0.002870,0.001347,-0.000925,-0.030518,0.030518,0.000000
0.606556,-0.063468,0.039518,10.065070,0.000722,0.001946,0.003266,-0.030518,0.000000,0.030518
0.616643,-0.056882,0.033530,10.071057,0.007309,-0.004042,0.009254,-0.061035,0.000000,0.030518
0.626729,-0.056882,0.035925,10.073452,0.007309,-0.001647,0.011649,-0.061035,0.000000,0.000000
0.636824,-0.061672,0.037123,10.072255,0.002519,-0.000449,0.010451,-0.061035,-0.030518,0.000000
0.646934,-0.057480,0.038919,10.069860,0.006710,0.001347,0.008056,-0.030518,0.000000,-0.030518
0.657026,-0.058079,0.037123,10.068063,0.006111,-0.000449,0.006260,-0.030518,0.000000,-0.030518
0.667120,-0.062869,0.032932,10.068063,0.001321,-0.004640,0.006260,-0.061035,0.000000,-0.061035
0.677215,-0.061073,0.036524,10.073452,0.003117,-0.001048,0.011649,-0.061035,0.000000,-0.030518
0.687312,-0.052092,0.040117,10.071057,0.012099,0.002545,0.009254,-0.030518,-0.030518,0.000000
0.697406,-0.055085,0.039518,10.070458,0.009105,0.001946,0.008655,-0.030518,0.000000,0.000000
0.707502,-0.061073,0.035327,10.065070,0.003117,-0.002245,0.003266,0.000000,0.000000,0.000000
0.717594,-0.063468,0.039518,10.064471,0.000722,0.001946,0.002667,0.000000,-0.030518,0.030518
0.727710,-0.061073,0.038919,10.064471,0.003117,0.001347,0.002667,0.030518,0.000000,0.000000
0.737798,-0.066462,0.043110,10.062675,-0.002272,0.005538,0.000871,0.061035,0.000000,-0.061035
0.747888,-0.070054,0.040117,10.061477,-0.005864,0.002545,-0.000326,0.061035,-0.030518,-0.030518
0.757975,-0.073048,0.036524,10.057286,-0.008858,-0.001048,-0.004518,0.061035,0.030518,-0.030518
0.768064,-0.074844,0.041314,10.060280,-0.010654,0.003742,-0.001524,0.030518,0.030518,0.030518
0.778150,-0.071252,0.043709,10.068662,-0.007062,0.006137,0.006859,0.030518,0.061035,0.030518
0.788254,-0.068258,0.040117,10.064471,-0.004068,0.002545,0.002667,0.061035,0.061035,0.000000
0.798341,-0.067061,0.040715,10.063872,-0.002870,0.003143,0.002069,0.030518,0.091553,-0.030518
0.808427,-0.071252,0.035327,10.063872,-0.007062,-0.002245,0.002069,-0.030518,0.061035,-0.030518
0.818514,-0.064666,0.032333,10.068662,-0.000475,-0.005239,0.006859,-0.030518,0.061035,0.030518
0.828604,-0.074246,0.035925,10.078841,-0.010055,-0.001647,0.017038,0.000000,0.030518,0.061035
0.838695,-0.069456,0.037123,10.074650,-0.005265,-0.000449,0.012846,-0.030518,0.061035,0.061035
0.848810,-0.059875,0.035327,10.074051,0.004315,-0.002245,0.012248,-0.061035,0.030518,0.000000
0.858907,-0.065264,0.035327,10.073452,-0.001074,-0.002245,0.011649,-0.061035,0.000000,0.000000
0.869007,-0.064666,0.036524,10.076446,-0.000475,-0.001048,0.014643,-0.061035,0.030518,0.030518
0.879105,-0.058678,0.037722,10.084828,0.005512,0.000150,0.023025,-0.061035,0.000000,0.030518
0.889200,-0.053888,0.040715,10.082433,0.010302,0.003143,0.020630,-0.061035,0.000000,-0.030518
0.899341,-0.056882,0.044308,10.077643,0.007309,0.006736,0.015840,-0.091553,0.030518,0.000000
0.909443,-0.057480,0.037123,10.069261,0.006710,-0.000449,0.007457,-0.091553,0.030518,0.000000
0.919539,-0.058678,0.040117,10.068063,0.005512,0.002545,0.006260,-0.061035,0.030518,0.000000
0.929634,-0.061672,0.040715,10.073452,0.002519,0.003143,0.011649,-0.030518,-0.030518,0.000000
0.939726,-0.061672,0.038919,10.078841,0.002519,0.001347,0.017038,-0.030518,0.000000,0.061035
0.949815,-0.067659,0.037123,10.075248,-0.003469,-0.000449,0.013445,-0.061035,0.030518,0.061035
0.959905,-0.062869,0.035327,10.077045,0.001321,-0.002245,0.015241,-0.030518,-0.030518,0.091553
0.970010,-0.067659,0.036524,10.075248,-0.003469,-0.001048,0.013445,-0.030518,-0.030518,0.061035
0.980112,-0.071851,0.037722,10.067465,-0.007660,0.000150,0.005661,0.000000,-0.030518,0.061035
0.990204,-0.071252,0.043709,10.066866,-0.007062,0.006137,0.005062,0.030518,-0.030518,-0.030518
1.000306,-0.065264,0.043110,10.068662,-0.001074,0.005538,0.006859,0.030518,-0.030518,0.000000
1.010396,-0.062271,0.041314,10.074051,0.001920,0.003742,0.012248,0.000000,0.030518,0.030518
1.020485,-0.064666,0.044907,10.078841,-0.000475,0.007335,0.017038,0.000000,0.000000,0.030518
1.030576,-0.060474,0.043709,10.075248,0.003716,0.006137,0.013445,0.000000,0.000000,0.000000
1.040679,-0.061672,0.042512,10.063872,0.002519,0.004940,0.002069,-0.030518,-0.030518,0.000000
1.050770,-0.052690,0.041913,10.070458,0.011500,0.004341,0.008655,-0.030518,0.000000,0.030518
1.060860,-0.062869,0.034728,10.063273,0.001321,-0.002844,0.001470,0.030518,-0.030518,-0.030518
1.070950,-0.064067,0.032333,10.066267,0.000123,-0.005239,0.004464,0.000000,0.000000,0.000000
1.081039,-0.065264,0.029938,10.055490,-0.001074,-0.007634,-0.006314,0.000000,0.000000,0.030518
1.091132,-0.064666,0.027543,10.051298,-0.000475,-0.010029,-0.010505,-0.030518,0.000000,0.061035
1.101222,-0.062869,0.025746,10.056687,0.001321,-0.011825,-0.005116,0.000000,0.000000,0.030518
1.111311,-0.069456,0.031734,10.059681,-0.005265,-0.005838,-0.002123,0.030518,0.000000,0.030518
1.121411,-0.069456,0.037722,10.059082,-0.005265,0.000150,-0.002721,0.000000,0.000000,0.000000
1.131503,-0.071252,0.028141,10.063872,-0.007062,-0.009430,0.002069,-0.061035,0.030518,0.000000
1.141593,-0.067659,0.027543,10.061477,-0.003469,-0.010029,-0.000326,-0.061035,0.000000,-0.030518
1.151684,-0.075443,0.036524,10.060878,-0.011253,-0.001048,-0.000925,-0.030518,0.000000,-0.030518
1.161774,-0.072449,0.033530,10.058483,-0.008259,-0.004042,-0.003320,-0.030518,0.030518,-0.061035
1.171864,-0.068258,0.035925,10.057286,-0.004068,-0.001647,-0.004518,-0.030518,-0.030518,-0.061035
1.181954,-0.065264,0.037123,10.064471,-0.001074,-0.000449,0.002667,0.000000,0.000000,-0.091553
1.192045,-0.059875,0.036524,10.065668,0.004315,-0.001048,0.003865,0.000000,0.030518,-0.061035
1.202136,-0.056882,0.031734,10.065668,0.007309,-0.005838,0.003865,0.030518,0.030518,-0.091553
1.212225,-0.065264,0.028740,10.065070,-0.001074,-0.008832,0.003266,0.030518,0.000000,-0.061035
1.222316,-0.063468,0.033530,10.072255,0.000722,-0.004042,0.010451,0.091553,0.000000,-0.030518
1.232406,-0.061073,0.034129,10.074051,0.003117,-0.003443,0.012248,0.122070,0.030518,-0.030518
1.242499,-0.056882,0.032333,10.071057,0.007309,-0.005239,0.009254,0.091553,0.030518,0.000000
1.252595,-0.062271,0.040117,10.065070,0.001920,0.002545,0.003266,0.061035,0.000000,0.030518
1.262690,-0.061073,0.040715,10.069261,0.003117,0.003143,0.007457,0.030518,0.030518,0.030518
1.272787,-0.067061,0.040715,10.072853,-0.002870,0.003143,0.011050,0.000000,0.030518,0.030518
1.282898,-0.063468,0.041913,10.068063,0.000722,0.004341,0.006260,-0.030518,0.030518,0.030518
1.292994,-0.062271,0.043709,10.067465,0.001920,0.006137,0.005661,-0.030518,0.030518,0.030518
1.303091,-0.061672,0.043709,10.069261,0.002519,0.006137,0.007457,-0.030518,0.030518,0.030518
1.313188,-0.062271,0.034129,10.062076,0.001920,-0.003443,0.000272,-0.061035,0.000000,0.000000
1.323285,-0.065863,0.035925,10.065668,-0.001673,-0.001647,0.003865,-0.061035,0.000000,0.000000
1.333382,-0.060474,0.033530,10.067465,0.003716,-0.004042,0.005661,-0.061035,0.030518,0.000000
1.343473,-0.058678,0.040715,10.068063,0.005512,0.003143,0.006260,-0.030518,0.030518,0.000000
1.353563,-0.056882,0.040715,10.063872,0.007309,0.003143,0.002069,-0.030518,0.030518,0.030518
1.363653,-0.061073,0.040117,10.062675,0.003117,0.002545,0.000871,-0.061035,0.030518,0.030518
1.373743,-0.060474,0.043709,10.069261,0.003716,0.006137,0.007457,-0.030518,0.061035,0.030518
1.383829,-0.066462,0.043709,10.072255,-0.002272,0.006137,0.010451,0.000000,0.091553,0.000000
1.393919,-0.071252,0.044907,10.066866,-0.007062,0.007335,0.005062,0.000000,0.061035,0.000000
1.404009,-0.068258,0.043110,10.067465,-0.004068,0.005538,0.005661,0.000000,0.061035,-0.030518
1.414098,-0.071851,0.040715,10.071656,-0.007660,0.003143,0.009853,0.000000,0.030518,-0.061035
1.424187,-0.068857,0.040117,10.073452,-0.004667,0.002545,0.011649,0.000000,0.030518,-0.030518
1.434277,-0.062869,0.033530,10.069860,0.001321,-0.004042,0.008056,-0.030518,0.000000,0.000000
1.444371,-0.068258,0.037722,10.071057,-0.004068,0.000150,0.009254,-0.030518,0.000000,0.000000
1.454467,-0.063468,0.040117,10.066267,0.000722,0.002545,0.004464,-0.030518,0.000000,-0.030518
1.464563,-0.062271,0.034129,10.069261,0.001920,-0.003443,0.007457,-0.030518,-0.030518,-0.061035
1.474656,-0.062271,0.034129,10.069261,0.001920,-0.003443,0.007457,0.030518,0.000000,-0.091553
1.484755,-0.061672,0.032333,10.074051,0.002519,-0.005239,0.012248,0.061035,0.000000,-0.061035
1.494852,-0.064067,0.033530,10.069860,0.000123,-0.004042,0.008056,0.000000,0.000000,-0.091553
1.504946,-0.065863,0.033530,10.068063,-0.001673,-0.004042,0.006260,0.000000,0.000000,-0.061035
1.515045,-0.067061,0.037722,10.068063,-0.002870,0.000150,0.006260,0.000000,0.000000,-0.061035
1.525138,-0.062869,0.035925,10.070458,0.001321,-0.001647,0.008655,0.030518,0.000000,-0.061035
1.535247,-0.063468,0.034728,10.064471,0.000722,-0.002844,0.002667,0.030518,0.000000,-0.030518
1.545385,-0.065264,0.035327,10.062076,-0.001074,-0.002245,0.000272,0.000000,0.030518,0.000000
1.555486,-0.062271,0.028141,10.057885,0.001920,-0.009430,-0.003919,0.030518,0.030518,0.030518
1.565597,-0.068857,0.027543,10.058483,-0.004667,-0.010029,-0.003320,0.030518,0.030518,0.030518
1.575684,-0.063468,0.021555,10.069261,0.000722,-0.016017,0.007457,0.030518,0.030518,0.000000
1.585771,-0.069456,0.025148,10.072255,-0.005265,-0.012424,0.010451,0.030518,0.030518,0.000000
1.595858,-0.066462,0.026944,10.075847,-0.002272,-0.010628,0.014044,0.000000,0.030518,-0.061035
1.605948,-0.065264,0.028141,10.073452,-0.001074,-0.009430,0.011649,0.000000,0.061035,-0.030518
1.616034,-0.067659,0.027543,10.077045,-0.003469,-0.010029,0.015241,0.000000,0.091553,0.030518
1.626120,-0.066462,0.031135,10.073452,-0.002272,-0.006437,0.011649,0.030518,0.061035,0.030518
1.636206,-0.068258,0.032333,10.069860,-0.004068,-0.005239,0.008056,0.061035,0.030518,0.030518
1.646286,-0.073048,0.036524,10.071057,-0.008858,-0.001048,0.009254,0.091553,0.030518,0.030518
1.656364,-0.071851,0.034129,10.068063,-0.007660,-0.003443,0.006260,0.061035,0.061035,0.030518
1.666442,-0.075443,0.026944,10.079440,-0.011253,-0.010628,0.017636,0.030518,0.061035,0.000000
1.676522,-0.073048,0.032333,10.078841,-0.008858,-0.005239,0.017038,0.030518,0.061035,0.000000
1.686603,-0.076641,0.036524,10.058483,-0.012450,-0.001048,-0.003320,0.000000,0.091553,0.000000
1.696681,-0.078437,0.038919,10.057286,-0.014247,0.001347,-0.004518,0.000000,0.122070,-0.030518
1.706761,-0.072449,0.039518,10.058483,-0.008259,0.001946,-0.003320,0.030518,0.091553,0.000000
1.716840,-0.068857,0.036524,10.062675,-0.004667,-0.001048,0.000871,0.061035,0.061035,0.000000
1.726919,-0.067659,0.040117,10.068662,-0.003469,0.002545,0.006859,0.061035,0.061035,0.000000
1.736997,-0.065264,0.040117,10.072255,-0.001074,0.002545,0.010451,0.091553,0.030518,-0.030518
1.747090,-0.065264,0.033530,10.069860,-0.001074,-0.004042,0.008056,0.122070,0.030518,0.030518
1.757183,-0.064067,0.032333,10.060878,0.000123,-0.005239,-0.000925,0.061035,0.030518,0.000000
1.767279,-0.067061,0.028141,10.071656,-0.002870,-0.009430,0.009853,0.061035,0.030518,0.030518
1.777373,-0.058678,0.032333,10.072853,0.005512,-0.005239,0.011050,0.030518,0.030518,-0.030518
1.787470,-0.061073,0.035327,10.074650,0.003117,-0.002245,0.012846,0.030518,0.000000,-0.030518
1.797561,-0.064666,0.039518,10.069261,-0.000475,0.001946,0.007457,0.061035,0.000000,-0.030518
1.807657,-0.071851,0.045505,10.061477,-0.007660,0.007934,-0.000326,0.061035,0.000000,-0.030518
1.817750,-0.071252,0.037722,10.066866,-0.007062,0.000150,0.005062,0.061035,0.030518,0.000000
1.827847,-0.059875,0.029938,10.063872,0.004315,-0.007634,0.002069,0.061035,0.030518,0.030518
1.837942,-0.059875,0.027543,10.068662,0.004315,-0.010029,0.006859,0.061035,0.030518,0.030518
1.848031,-0.060474,0.026944,10.062076,0.003716,-0.010628,0.000272,0.091553,0.030518,0.030518
1.858117,-0.074844,0.028141,10.057885,-0.010654,-0.009430,-0.003919,0.030518,0.030518,0.000000
1.868205,-0.076042,0.025746,10.063872,-0.011852,-0.011825,0.002069,0.030518,0.030518,0.030518
1.878291,-0.067061,0.023351,10.068662,-0.002870,-0.014220,0.006859,0.000000,0.030518,0.030518
1.888379,-0.068258,0.038320,10.069860,-0.004068,0.000748,0.008056,0.000000,0.000000,0.030518
1.898466,-0.070054,0.034728,10.066267,-0.005864,-0.002844,0.004464,0.000000,0.000000,0.030518
1.908555,-0.064666,0.029938,10.063872,-0.000475,-0.007634,0.002069,0.000000,0.030518,0.030518
1.918640,-0.065264,0.032333,10.078841,-0.001074,-0.005239,0.017038,0.000000,0.061035,0.000000
1.928729,-0.067659,0.033530,10.084828,-0.003469,-0.004042,0.023025,0.000000,0.061035,0.000000
1.938818,-0.061073,0.035327,10.081236,0.003117,-0.002245,0.019433,0.000000,0.030518,0.000000
1.948910,-0.061073,0.041314,10.071656,0.003117,0.003742,0.009853,0.000000,0.030518,0.000000
1.959069,-0.064666,0.037722,10.067465,-0.000475,0.000150,0.005661,0.030518,0.000000,0.000000
1.969165,-0.065863,0.035327,10.073452,-0.001673,-0.002245,0.011649,0.030518,0.000000,-0.061035
1.979260,-0.065863,0.034129,10.072853,-0.001673,-0.003443,0.011050,0.030518,0.000000,-0.030518
1.989355,-0.067659,0.039518,10.069261,-0.003469,0.001946,0.007457,0.030518,0.000000,0.000000
1.999450,-0.067659,0.040715,10.065668,-0.003469,0.003143,0.003865,0.030518,0.030518,0.000000
2.009547,-0.066462,0.041913,10.062076,-0.002272,0.004341,0.000272,0.000000,0.030518,-0.030518
2.019643,-0.071851,0.035327,10.071656,-0.007660,-0.002245,0.009853,0.000000,0.030518,-0.030518
2.029738,-0.064067,0.038919,10.071057,0.000123,0.001347,0.009254,0.000000,0.030518,-0.061035
2.039835,-0.069456,0.040117,10.077045,-0.005265,0.002545,0.015241,0.030518,0.061035,-0.030518
2.049922,-0.071252,0.041913,10.078841,-0.007062,0.004341,0.017038,0.030518,0.030518,0.000000
2.060013,-0.065264,0.044907,10.069860,-0.001074,0.007335,0.008056,0.000000,0.000000,0.000000
2.070101,-0.059875,0.051493,10.073452,0.004315,0.013921,0.011649,0.030518,0.030518,0.030518
2.080190,-0.063468,0.048499,10.074650,0.000722,0.010927,0.012846,0.000000,0.061035,0.000000
2.090278,-0.066462,0.050295,10.072853,-0.002272,0.012724,0.011050,0.000000,0.030518,0.030518
2.100367,-0.071851,0.042512,10.073452,-0.007660,0.004940,0.011649,0.000000,0.030518,0.030518
2.110457,-0.072449,0.048499,10.063872,-0.008259,0.010927,0.002069,-0.030518,0.000000,0.030518
2.120545,-0.066462,0.047900,10.070458,-0.002272,0.010329,0.008655,-0.030518,0.000000,0.030518
2.130635,-0.065264,0.044308,10.075847,-0.001074,0.006736,0.014044,-0.061035,0.000000,0.000000
2.140723,-0.065264,0.043110,10.074051,-0.001074,0.005538,0.012248,-0.030518,0.000000,0.000000
2.150834,-0.067659,0.041314,10.071057,-0.003469,0.003742,0.009254,-0.061035,-0.030518,-0.030518
2.160931,-0.068258,0.038320,10.069261,-0.004068,0.000748,0.007457,-0.030518,0.000000,0.000000
2.171028,-0.067659,0.035327,10.074051,-0.003469,-0.002245,0.012248,-0.030518,0.000000,0.000000
2.181124,-0.065863,0.003593,10.077045,-0.001673,-0.033979,0.015241,-0.030518,0.030518,0.000000
2.191221,-0.101788,-0.024549,10.165062,-0.037598,-0.062121,0.103258,0.732422,0.000000,0.030518
2.201317,-0.146096,-0.195194,10.408156,-0.081906,-0.232766,0.346353,5.493164,-1.403809,-0.030518
2.211413,-0.149090,-0.238903,10.497969,-0.084900,-0.276475,0.436166,10.375977,-2.868652,0.061035
2.221510,-0.167053,-0.340692,10.632689,-0.102862,-0.378263,0.570886,23.284912,-6.622314,0.030518
2.231607,-0.155676,-0.302371,10.623708,-0.091486,-0.339943,0.561905,30.822754,-8.789062,-0.091553
2.241704,-0.127535,-0.201780,10.535092,-0.063345,-0.239352,0.473289,43.945312,-12.542725,-0.305176
2.251795,-0.044308,0.078437,10.289004,0.019882,0.040865,0.227201,48.278809,-13.763428,-0.396729
2.261886,0.119751,0.302371,10.172247,0.183941,0.264799,0.110443,51.208496,-14.526367,-0.457764
2.271975,0.045505,1.053210,9.130413,0.109696,1.015638,-0.931390,40.466309,-9.918213,0.488281
2.282064,0.113763,1.156794,9.356743,0.177954,1.119223,-0.705061,29.876709,-7.446289,0.274658
2.292154,0.179028,0.901126,9.621991,0.243218,0.863554,-0.439812,14.923096,-4.089355,0.274658
2.302243,0.205972,0.824485,9.692045,0.270162,0.786914,-0.369758,10.192871,-3.082275,-0.183105
2.312332,0.191602,0.887953,9.665700,0.255792,0.850382,-0.396103,1.464844,-1.403809,-2.838135
2.322422,0.002994,0.864003,9.847722,0.067184,0.826431,-0.214082,-1.770020,-0.549316,-3.814697
2.332512,-0.067659,0.944236,9.729168,-0.003469,0.906665,-0.332635,-4.547119,0.335693,-4.516602
2.342601,-0.096400,0.785566,9.781260,-0.032209,0.747995,-0.280544,-13.763428,3.143311,-5.004883
2.352692,-0.156275,0.611927,9.965676,-0.092085,0.574356,-0.096127,-16.662598,3.967285,-5.401611
2.362788,-0.122745,0.459245,10.045311,-0.058554,0.421673,-0.016493,-17.822266,4.302979,-5.493164
2.372884,-0.171244,0.510139,10.011182,-0.107054,0.472567,-0.050622,-17.822266,4.486084,-5.249023
2.382977,-0.226329,0.520318,9.974059,-0.162139,0.482746,-0.087745,-19.989014,5.157471,-4.241943
2.393073,-0.159269,0.661624,9.917776,-0.095079,0.624052,-0.144027,-21.667480,5.767822,-2.746582
2.403168,-0.127535,0.606539,9.991423,-0.063345,0.568967,-0.070381,-24.322510,6.408691,-0.244141
2.413264,-0.369432,0.640069,9.949510,-0.305241,0.602497,-0.112293,-25.543213,6.774902,1.281738
2.423359,-0.335901,0.508343,10.014774,-0.271711,0.470771,-0.047029,-26.947021,7.110596,3.540039
2.433454,-0.229922,0.100591,10.190209,-0.165732,0.063019,0.128406,-24.932861,7.049561,7.019043
2.443547,0.161664,-0.455652,10.137519,0.225854,-0.493224,0.075716,-23.193359,7.080078,7.385254
2.453635,0.389789,-0.385598,10.387798,0.453980,-0.423170,0.325995,-16.082764,4.943848,2.960205
2.463724,0.389191,-0.249082,10.277029,0.453381,-0.286654,0.215225,-12.115479,3.845215,1.708984
2.473814,0.391586,-0.210762,10.293794,0.455776,-0.248334,0.231991,-5.981445,2.014160,0.579834
2.483904,0.256866,-0.150287,10.265054,0.321056,-0.187859,0.203250,-2.990723,1.098633,0.305176
2.493995,0.189207,-0.124541,10.256072,0.253397,-0.162113,0.194269,-0.305176,0.244141,0.183105
2.504082,0.104183,-0.049697,10.209968,0.168374,-0.087269,0.148165,4.669189,-1.281738,0.091553
2.514171,0.074246,-0.013173,10.195598,0.138436,-0.050744,0.133795,6.622314,-1.831055,0.061035
2.524261,0.026345,0.061073,10.145303,0.090535,0.023501,0.083499,9.582520,-2.685547,0.030518
2.534350,0.009580,0.086819,10.125544,0.073770,0.049248,0.063740,10.559082,-2.990723,0.030518
2.544439,0.000000,0.114362,10.107581,0.064190,0.076790,0.045778,11.779785,-3.387451,-0.061035
2.554529,-0.009580,0.165256,10.054891,0.054610,0.127684,-0.006913,11.962891,-3.479004,-0.122070
2.564624,-0.143102,0.201182,10.029144,-0.078912,0.163610,-0.032659,11.932373,-3.479004,-0.152588
2.574719,-0.435295,0.126936,10.074650,-0.371105,0.089364,0.012846,11.413574,-3.234863,0.823975
2.584815,-0.405956,0.135319,10.080038,-0.341766,0.097747,0.018235,11.505127,-3.143311,1.525879
2.594906,-0.438887,0.301772,10.001003,-0.374697,0.264201,-0.060801,10.742188,-2.868652,2.838135
2.605002,-0.467029,0.310754,9.970466,-0.402839,0.273182,-0.091337,9.460449,-2.685547,3.845215
2.615094,-0.404758,0.333506,9.974059,-0.340568,0.295935,-0.087745,7.110596,-1.831055,6.042480
2.625186,-0.640069,0.396974,9.961485,-0.575879,0.359403,-0.100318,6.011963,-1.373291,7.751465
2.635279,-0.776585,0.461640,9.926757,-0.712395,0.424068,-0.135046,5.004883,-0.671387,9.857178
2.645369,-0.717907,0.390987,10.039323,-0.653717,0.353415,-0.022480,1.861572,0.274658,13.275146
2.655458,-0.769400,0.376617,9.977651,-0.705210,0.339045,-0.084152,1.007080,0.579834,15.289307
2.665544,-0.875978,0.586181,9.984238,-0.811788,0.548609,-0.077566,-0.213623,1.525879,20.843506
2.675643,-0.720302,0.433499,10.017169,-0.656112,0.395927,-0.044634,-1.464844,1.770020,23.803711
2.685733,-0.433499,0.311353,10.099797,-0.369308,0.273781,0.037994,-2.380371,1.647949,24.658203
2.696057,-0.180225,0.191003,10.038724,-0.116035,0.153431,-0.023079,-3.906250,1.922607,23.956299
2.706143,-0.177231,0.235909,10.028546,-0.113041,0.198338,-0.033258,-5.126953,1.922607,21.636963
2.716232,-0.395777,0.535886,9.738149,-0.331587,0.498314,-0.323654,-5.187988,3.387451,22.308350
2.726320,0.065264,0.265248,9.950707,0.129455,0.227677,-0.111096,-9.918213,3.753662,22.033691
2.736415,0.392783,0.064067,9.990824,0.456973,0.026495,-0.070979,-11.138916,3.753662,17.181396
2.746504,0.263452,0.179028,10.035731,0.327642,0.141456,-0.026073,-11.688232,4.272461,15.319824
2.756591,0.149689,0.092807,10.016570,0.213879,0.055235,-0.045233,-13.153076,4.516602,12.359619
2.766677,0.095801,0.058678,9.983040,0.159991,0.021106,-0.078763,-13.458252,4.760742,10.314941
2.776763,0.119751,-0.047900,10.146500,0.183941,-0.085472,0.084697,-13.397217,4.486084,5.920410
2.786850,-0.105980,-0.079036,10.154883,-0.041789,-0.116608,0.093079,-12.786865,4.425049,3.906250
2.796937,-0.232916,0.061672,10.165062,-0.168725,0.024100,0.103258,-11.779785,3.753662,2.593994
2.807024,-0.114961,0.006586,10.184821,-0.050771,-0.030986,0.123017,-10.528564,3.723145,2.014160
2.817111,-0.103585,0.086221,10.127340,-0.039394,0.048649,0.065537,-8.819580,3.234863,1.434326
2.827199,-0.089813,0.004191,10.233918,-0.025623,-0.033381,0.172115,-6.958008,2.807617,0.366211
2.837285,-0.074844,-0.034728,10.148895,-0.010654,-0.072300,0.087092,-5.157471,2.105713,-0.183105
2.847372,-0.074246,-0.031734,10.051897,-0.010055,-0.069306,-0.009906,-3.112793,1.037598,-2.502441
2.857464,-0.176034,0.072449,10.036329,-0.111844,0.034877,-0.025474,-2.349854,0.640869,-3.753662
2.867560,-0.234113,0.116158,10.026151,-0.169923,0.078587,-0.035653,-1.831055,0.244141,-4.364014
2.877653,-0.415536,0.234712,10.023157,-0.351346,0.197140,-0.038647,-0.885010,-0.183105,-4.058838
2.887762,-0.423918,0.226329,10.102192,-0.359728,0.188757,0.040389,-0.823975,-0.122070,-3.387451
2.897855,-0.431702,0.072449,10.123748,-0.367512,0.034877,0.061944,-0.854492,-0.396729,-2.380371
2.907948,-0.430505,0.017963,10.047706,-0.366314,-0.019609,-0.014098,-0.427246,-0.518799,-2.014160
2.918042,-0.416733,0.013173,10.050101,-0.352543,-0.024399,-0.011703,-0.061035,-0.549316,-1.831055
2.928137,-0.417332,0.126936,10.173444,-0.353142,0.089364,0.111641,-0.244141,-0.488281,-1.159668
2.938229,-0.449665,0.122745,10.098600,-0.385475,0.085173,0.036796,-0.732422,-0.549316,1.037598
2.948325,-0.383203,0.251477,10.130334,-0.319013,0.213905,0.068530,-0.427246,-0.457764,2.349854
2.958417,-0.356858,0.316143,10.002200,-0.292668,0.278571,-0.059603,0.000000,-0.640869,3.662109
2.968509,-0.224533,0.058678,9.935140,-0.160343,0.021106,-0.126664,0.396729,-0.885010,4.730225
2.978601,-0.259860,-0.069456,10.011182,-0.195669,-0.107027,-0.050622,0.762939,-0.793457,4.547119
2.988697,-0.018561,0.034728,9.995614,0.045629,-0.002844,-0.066189,1.617432,-0.518799,3.448486
2.998790,0.002994,-0.053888,10.096205,0.067184,-0.091460,0.034401,0.701904,-0.610352,2.227783
3.008885,0.073647,-0.074844,10.055490,0.137837,-0.112416,-0.006314,0.457764,-0.213623,-0.244141
3.019003,-0.029339,0.038320,10.032138,0.034851,0.000748,-0.029665,-0.152588,0.122070,-1.281738
3.029099,-0.179626,0.190404,9.965676,-0.115436,0.152832,-0.096127,0.427246,0.244141,-2.319336
3.039270,-0.122146,0.259860,9.877659,-0.057956,0.222288,-0.184144,1.800537,1.068115,-1.861572
3.049363,-0.116757,0.131726,10.026749,-0.052567,0.094154,-0.035054,-0.640869,1.190186,-1.831055
3.059457,-0.150287,0.206570,10.068063,-0.086097,0.168999,0.006260,-1.739502,1.464844,-0.396729
3.069550,-0.386796,0.398771,10.260862,-0.322605,0.361199,0.199059,1.647949,2.105713,1.373291
3.079645,-0.182021,0.260458,10.241104,-0.117831,0.222887,0.179300,0.152588,1.220703,6.164551
3.089740,-0.414937,0.675396,9.767488,-0.350747,0.637824,-0.294315,-2.319336,1.464844,8.819580
3.099835,-0.246687,0.286205,9.967473,-0.182497,0.248633,-0.094331,-2.685547,1.495361,10.833740
3.109930,-0.265248,0.160466,10.108180,-0.201058,0.122894,0.046377,-2.258301,-0.274658,13.214111
3.120025,-0.140707,0.094005,10.135124,-0.076517,0.056433,0.073321,-2.105713,-0.305176,14.282227
3.130122,-0.052690,-0.146695,10.037527,0.011500,-0.184267,-0.024277,0.457764,-0.885010,15.686035
3.140217,-0.045505,-0.091609,10.174043,0.018685,-0.129181,0.112240,0.854492,-0.885010,15.686035
3.150311,0.005389,-0.114362,10.084828,0.069579,-0.151934,0.023025,1.129150,-1.098633,14.038086
3.160406,0.148491,-0.132924,10.020762,0.212681,-0.170495,-0.041042,0.732422,-0.610352,12.542725
3.170502,0.158071,-0.114961,10.087224,0.222262,-0.152533,0.025420,0.488281,-0.488281,10.375977
3.180596,0.011975,-0.034129,10.098001,0.076165,-0.071701,0.036198,-0.213623,0.152588,5.126953
3.190691,-0.204774,-0.059277,10.049502,-0.140584,-0.096849,-0.012301,-0.152588,0.213623,2.441406
3.200786,-0.566422,0.134720,10.080038,-0.502232,0.097148,0.018235,0.518799,0.610352,0.122070
3.210881,-0.594564,0.273631,10.015972,-0.530373,0.236059,-0.045832,0.976562,0.579834,0.305176
3.220977,-0.649050,0.274828,10.011182,-0.584860,0.237257,-0.050622,1.220703,0.183105,0.732422
3.231072,-0.525108,0.210163,10.214160,-0.460918,0.172591,0.152356,0.488281,0.427246,1.525879
3.241168,-0.656235,0.243693,9.960287,-0.592045,0.206121,-0.101516,1.159668,0.091553,2.410889
3.251263,-0.371827,-0.008383,9.789044,-0.307637,-0.045954,-0.272760,0.213623,0.183105,2.593994
3.261359,-0.689766,0.131127,10.293195,-0.625575,0.093555,0.231392,-1.098633,0.488281,3.173828
3.271451,-0.293989,-0.047900,10.065668,-0.229798,-0.085472,0.003865,-0.091553,2.075195,3.967285
3.281546,-0.258662,0.364642,9.817784,-0.194472,0.327070,-0.244020,0.366211,1.312256,3.417969
3.291641,-0.089813,-0.068857,10.311757,-0.025623,-0.106429,0.249953,-5.035400,0.946045,2.563477
3.301736,-0.110770,0.089214,10.018965,-0.046579,0.051643,-0.042838,-3.692627,0.915527,2.624512
3.311831,-0.454455,0.207169,10.086026,-0.390265,0.169597,0.024223,-5.676270,-0.305176,3.875732
3.321927,-0.392184,0.005389,10.159074,-0.327994,-0.032183,0.097271,-5.035400,-0.793457,4.241943
3.332022,-0.258063,0.177830,10.156080,-0.193873,0.140258,0.094277,-6.286621,-0.579834,5.035400
3.342117,-0.463436,-0.117356,10.053693,-0.399246,-0.154928,-0.008110,-5.615234,-0.732422,6.561279
3.352212,-0.244891,-0.192799,9.920171,-0.180700,-0.230371,-0.141632,-6.256104,-1.922607,6.317139
3.362308,-0.105980,-0.161065,9.891431,-0.041789,-0.198637,-0.170373,-6.286621,-1.983643,5.706787
3.372403,-0.050295,-0.316143,9.925560,0.013895,-0.353714,-0.136244,-5.615234,-1.464844,4.730225
3.382499,-0.111368,-0.473016,10.117161,-0.047178,-0.510588,0.055358,-3.875732,-0.823975,1.586914
3.392594,-0.133522,-0.325723,10.040521,-0.069332,-0.363295,-0.021283,-3.265381,-0.640869,0.823975
3.402689,-0.138312,-0.267643,10.087224,-0.074122,-0.305215,0.025420,-1.953125,-0.305176,-0.122070
3.412784,-0.208367,-0.173639,10.045909,-0.144176,-0.211211,-0.015894,-0.213623,-0.244141,-1.403809
3.422879,-0.055085,-0.133522,10.123748,0.009105,-0.171094,0.061944,-0.061035,-0.518799,-1.708984
3.432974,0.011975,-0.426313,10.075248,0.076165,-0.463885,0.013445,0.885010,-0.610352,-4.241943
3.443069,0.092807,-0.307760,9.949510,0.156997,-0.345332,-0.112293,2.105713,0.213623,-6.286621
3.453164,-0.016166,-0.364642,10.075847,0.048024,-0.402214,0.014044,3.509521,0.976562,-10.681152
3.463258,-0.081431,-0.259261,10.033934,-0.017240,-0.296833,-0.027869,3.875732,1.739502,-12.207031
3.473357,-0.012574,-0.168849,10.017169,0.051616,-0.206421,-0.044634,2.929688,1.770020,-14.678955
3.483452,-0.117356,0.017963,9.973460,-0.053166,-0.019609,-0.088343,2.319336,1.953125,-15.106201
3.493548,-0.127535,-0.088017,9.750125,-0.063345,-0.125589,-0.311679,1.892090,1.586914,-15.777588
3.503645,-0.161664,-0.211360,10.205777,-0.097474,-0.248932,0.143974,1.800537,1.098633,-18.188477
3.513741,-0.296384,-0.207768,9.927356,-0.232193,-0.245340,-0.134447,1.434326,0.335693,-19.470215
3.523838,-0.046703,-0.168849,10.329719,0.017487,-0.206421,0.267916,0.976562,-0.335693,-21.240234
3.533934,-0.039518,-0.100591,10.302177,0.024672,-0.138163,0.240373,1.098633,-1.129150,-22.308350
3.544030,-0.435295,-0.216749,9.869277,-0.371105,-0.254321,-0.192527,0.976562,-1.800537,-23.651123
3.554126,-0.516127,-0.073647,10.124945,-0.451936,-0.111219,0.063142,0.976562,-1.770020,-22.949219
3.564214,-0.441282,0.104782,9.940529,-0.377092,0.067210,-0.121275,1.129150,-1.556396,-21.331787
3.574304,-0.610131,0.162861,9.826166,-0.545941,0.125289,-0.235637,0.976562,-0.701904,-17.242432
3.584394,-0.457449,0.320933,10.020762,-0.393258,0.283361,-0.041042,0.701904,-0.396729,-14.587402
3.594483,-0.342488,0.181423,9.928553,-0.278298,0.143851,-0.133250,-0.030518,0.732422,-10.070801
3.604572,-0.283211,-0.026345,10.432705,-0.219021,-0.063917,0.370902,-0.274658,0.366211,-9.368896
3.614657,-0.171843,0.071252,10.357262,-0.107652,0.033680,0.295459,0.701904,0.152588,-8.575439
3.624747,-0.020358,0.022154,9.956096,0.043833,-0.015418,-0.105707,0.701904,-0.183105,-8.239746
3.634833,0.073048,-0.038919,10.196197,0.137238,-0.076491,0.134394,1.403809,-0.061035,-8.331299
3.644919,0.042512,-0.132325,10.002799,0.106702,-0.169897,-0.059004,1.892090,0.335693,-9.674072
3.655009,0.065863,-0.078437,10.074650,0.130053,-0.116009,0.012846,2.380371,0.427246,-10.131836
3.665099,0.091011,0.129331,10.031539,0.155201,0.091759,-0.030264,2.716064,0.396729,-10.101318
3.675193,0.081431,0.168849,10.015373,0.145621,0.131277,-0.046430,1.281738,0.122070,-9.918213
3.685290,-0.067659,0.035925,10.127939,-0.003469,-0.001647,0.066135,2.227783,-0.732422,-8.026123
3.695385,-0.259860,0.282014,10.275233,-0.195669,0.244442,0.213429,2.990723,-0.091553,-6.805420
3.705477,-0.369432,0.146096,10.163864,-0.305241,0.108524,0.102061,1.708984,-0.579834,-6.134033
3.715570,-0.282014,0.065264,10.006392,-0.217823,0.027692,-0.055412,1.983643,-0.671387,-4.486084
3.725662,-0.234712,0.030536,10.029144,-0.170522,-0.007035,-0.032659,1.342773,-0.396729,-3.692627
3.735754,-0.363444,0.052690,10.417736,-0.299254,0.015119,0.355933,0.488281,-0.305176,-2.716064
3.745847,-0.347877,0.283211,10.026749,-0.283686,0.245639,-0.035054,2.288818,-0.030518,-2.685547
3.755939,-0.144899,0.114961,10.146500,-0.080708,0.077389,0.084697,-0.305176,1.068115,-2.929688
3.766031,-0.249681,0.012574,10.089020,-0.185491,-0.024998,0.027216,-1.281738,1.617432,-2.777100
3.776123,-0.137714,0.068258,10.424921,-0.073523,0.030686,0.363118,-2.624512,0.518799,-2.227783
3.786215,-0.455054,0.027543,9.912387,-0.390863,-0.010029,-0.149416,-1.800537,0.488281,-1.098633
3.796308,-0.150287,-0.005988,9.663904,-0.086097,-0.043559,-0.397900,-3.662109,-0.457764,-0.274658
3.806400,-0.065264,-0.156874,10.084230,-0.001074,-0.194446,0.022426,-4.455566,-0.579834,0.579834
3.816492,-0.432301,-0.189805,10.096205,-0.368111,-0.227377,0.034401,-4.119873,-0.244141,0.854492
3.826585,-0.148491,-0.214953,10.593171,-0.084301,-0.252525,0.531368,-3.814697,-1.281738,1.586914
3.836677,-0.362845,-0.396974,10.245295,-0.298655,-0.434546,0.183491,-5.004883,-1.708984,1.922607
3.846771,-0.356858,-0.040715,9.710607,-0.292668,-0.078287,-0.351197,-4.364014,-1.220703,2.899170
3.856863,-0.462838,-0.162263,10.109377,-0.398647,-0.199834,0.047574,-4.943848,-1.831055,3.936768
3.866956,-0.426912,0.056283,10.066267,-0.362722,0.018711,0.004464,-5.065918,-2.014160,5.584717
3.877048,-0.348475,-0.390388,9.817784,-0.284285,-0.427960,-0.244020,-4.455566,-2.136230,8.697510
3.887141,-0.283211,-0.390987,9.962084,-0.219021,-0.428559,-0.099720,-2.868652,-0.823975,10.040283
3.897233,-0.091609,-0.438289,9.802216,-0.027419,-0.475860,-0.259587,-0.915527,-0.091553,9.979248
3.907330,-0.050894,-0.395178,9.774673,0.013296,-0.432750,-0.287130,0.610352,0.549316,9.368896
3.917422,-0.055085,-0.314346,9.978849,0.009105,-0.351918,-0.082954,1.312256,0.152588,7.507324
3.927518,0.043110,-0.138312,9.975256,0.107301,-0.175884,-0.086547,2.410889,0.762939,5.859375
3.937610,0.061672,-0.326321,10.190808,0.125862,-0.363893,0.129005,2.777100,0.946045,3.997803
3.947705,0.215552,-0.104782,9.759106,0.279742,-0.142354,-0.302698,2.746582,0.885010,-0.579834
3.957797,-0.136516,-0.100591,9.921368,-0.072326,-0.138163,-0.140435,4.608154,1.678467,-3.173828
3.967892,0.104782,-0.304766,10.397379,0.168972,-0.342338,0.335575,6.713867,1.617432,-7.629395
3.977985,-0.019759,-0.289797,10.177037,0.044431,-0.327369,0.115233,6.530762,1.129150,-9.490967
3.988079,-0.163460,-0.100591,9.991423,-0.099270,-0.138163,-0.070381,5.401611,0.244141,-11.138916
3.998171,-0.543071,0.221539,10.460847,-0.478880,0.183967,0.399043,6.439209,-1.129150,-10.864258
4.008267,-0.593965,0.473615,9.941726,-0.529775,0.436043,-0.120077,6.866455,-0.854492,-9.277344
4.018359,-0.673000,0.253273,10.200987,-0.608810,0.215701,0.139184,6.225586,-0.396729,-5.615234
4.028454,-0.640668,0.417931,9.768686,-0.576477,0.380359,-0.293117,7.843018,-0.366211,-3.387451
4.038546,-0.374821,0.359253,9.966874,-0.310630,0.321681,-0.094930,3.906250,0.183105,-1.525879
4.048640,-0.368234,0.416135,10.077045,-0.304044,0.378563,0.015241,3.814697,1.983643,-1.098633
4.058733,-0.153880,0.051493,10.339898,-0.089690,0.013921,0.278095,2.746582,0.427246,-1.647949
4.068829,-0.343087,0.235311,10.230326,-0.278896,0.197739,0.168523,-0.396729,1.068115,-1.251221
4.078924,-0.285007,0.358055,10.015972,-0.220817,0.320484,-0.045832,-1.708984,1.800537,1.678467
4.089034,0.020956,0.774190,9.863289,0.085147,0.736618,-0.198514,-0.793457,0.427246,3.295898
4.099132,0.299976,0.669408,10.095007,0.364166,0.631836,0.033204,-4.333496,1.800537,5.645752
4.109229,0.202379,0.288001,10.523117,0.266569,0.250429,0.461314,-6.225586,1.342773,8.483887
4.119326,0.705333,0.097597,10.030342,0.769524,0.060025,-0.031462,-4.943848,0.762939,8.544922
4.129422,0.263452,0.085023,9.996213,0.327642,0.047451,-0.065591,-4.760742,-0.335693,7.629395
4.139519,0.282612,-0.086221,10.265652,0.346803,-0.123793,0.203849,-4.211426,-0.640869,7.171631
4.149616,0.373024,0.000000,10.053693,0.437215,-0.037572,-0.008110,-5.737305,-1.892090,5.706787
4.159712,0.383203,-0.261656,10.184821,0.447393,-0.299228,0.123017,-4.974365,-1.892090,4.150391
4.169808,0.283211,-0.365839,10.140513,0.347401,-0.403411,0.078709,-5.096436,-2.288818,2.166748
4.179904,0.293989,-0.134720,9.940529,0.358179,-0.172292,-0.121275,-3.967285,-0.946045,-0.305176
4.190001,0.029339,-0.113763,10.089020,0.093529,-0.151335,0.027216,-4.364014,-1.129150,-1.373291
4.200098,-0.276026,0.078437,10.168055,-0.211836,0.040865,0.106252,-4.089355,-0.518799,-0.305176
4.210194,-0.229922,0.174238,10.094409,-0.165732,0.136666,0.032605,-4.974365,-1.251221,1.068115
4.220289,-0.385598,0.238903,10.005793,-0.321408,0.201331,-0.056011,-4.699707,-0.030518,4.791260
4.230384,-0.469424,0.016166,10.232122,-0.405234,-0.021405,0.170319,-4.669189,0.152588,7.049561
4.240480,-0.374821,0.035327,10.193802,-0.310630,-0.002245,0.131999,-4.180908,0.610352,8.697510
4.250576,-0.205373,0.084424,9.985435,-0.141183,0.046853,-0.076368,-4.089355,0.701904,10.955811
4.260671,-0.135917,0.185614,10.093810,-0.071727,0.148042,0.032006,-3.753662,-0.549316,11.657715
4.270768,0.054487,0.213157,9.811796,0.118677,0.175585,-0.250007,-3.265381,-0.305176,12.603760
4.280864,0.039518,0.170046,10.154284,0.103708,0.132475,0.092481,-3.265381,0.671387,13.671875
4.290960,0.188009,0.464634,10.099797,0.252199,0.427062,0.037994,-2.258301,0.366211,16.052246
4.301056,0.105980,0.167651,10.114167,0.170170,0.130079,0.052364,-1.037598,1.953125,16.784668
4.311152,0.270637,0.107177,9.793235,0.334827,0.069605,-0.268569,-1.617432,0.152588,17.547607
4.321248,0.293390,-0.595162,9.969269,0.357580,-0.632734,-0.092535,-0.549316,-0.244141,16.387939
4.331345,0.330513,-0.726290,10.026151,0.394703,-0.763862,-0.035653,0.976562,-0.335693,14.556885
4.341444,0.177830,-1.183738,10.105186,0.242020,-1.221310,0.043383,5.462646,0.061035,9.765625
4.351541,0.379012,-1.013692,9.964479,0.443202,-1.051264,-0.097325,8.697510,0.885010,7.232666
4.361637,0.346080,-1.042432,9.844728,0.410271,-1.080004,-0.217076,12.237549,1.373291,1.892090
4.371733,0.473016,-0.659828,10.317744,0.537207,-0.697400,0.255941,13.732910,1.556396,-0.640869
4.381828,0.431702,-0.543071,10.274634,0.495893,-0.580643,0.212830,11.505127,0.885010,-4.974365
4.391921,0.344284,-0.493973,10.081236,0.408474,-0.531545,0.019433,9.552002,-0.061035,-6.378174
4.402016,0.222737,-0.266446,10.201586,0.286927,-0.304018,0.139782,8.300781,-0.518799,-8.117676
4.412113,-0.011975,-0.027543,9.872271,0.052215,-0.065115,-0.189533,3.997803,-1.312256,-9.490967
4.422209,0.000599,-0.305365,10.071656,0.064789,-0.342937,0.009853,2.044678,-1.525879,-10.650635
4.432305,-0.304167,-0.098196,10.070458,-0.239977,-0.135768,0.008655,0.671387,-1.281738,-13.305664
4.442401,-0.521516,0.073647,9.911788,-0.457325,0.036075,-0.150015,0.244141,-0.793457,-13.458252
4.452497,-0.767005,0.201182,10.032737,-0.702815,0.163610,-0.029067,0.122070,-0.244141,-10.467529
4.462593,-0.687371,0.414338,10.107581,-0.623180,0.376767,0.045778,-0.701904,-0.183105,-7.873535
4.472689,-0.703537,0.486788,10.065070,-0.639347,0.449216,0.003266,-1.007080,-0.488281,-4.577637
4.482785,-0.471819,0.504750,10.050101,-0.407629,0.467178,-0.011703,-1.495361,-0.366211,2.624512
4.492881,-0.784968,0.359852,10.203981,-0.720777,0.322280,0.142177,-1.068115,-0.305176,5.798340
4.502976,-0.774190,0.456251,10.279424,-0.710000,0.418679,0.217620,0.793457,1.342773,13.671875
4.513072,-0.646655,0.312550,10.088421,-0.582465,0.274978,0.026618,1.831055,1.922607,17.059326
4.523168,-0.517324,0.320933,10.042916,-0.453134,0.283361,-0.018888,0.366211,1.708984,21.240234
4.533264,-0.247885,0.358654,9.916578,-0.183694,0.321082,-0.145225,-1.007080,0.762939,22.308350
4.543359,-0.219743,0.172441,10.056088,-0.155553,0.134870,-0.005715,-2.014160,0.549316,22.644043
4.553452,-0.066462,0.187410,10.090217,-0.002272,0.149838,0.028414,-4.119873,0.793457,23.681641
4.563547,-0.014370,0.093406,10.188413,0.049820,0.055834,0.126610,-4.699707,0.579834,24.047852
4.573642,-0.016765,-0.079036,10.098001,0.047425,-0.116608,0.036198,-3.204346,-0.030518,23.986816
4.583737,-0.057480,-0.098196,10.146500,0.006710,-0.135768,0.084697,-1.708984,0.213623,23.254395
4.593833,-0.161664,-0.323328,10.141111,-0.097474,-0.360900,0.079308,-0.518799,1.495361,21.606445
4.603929,-0.122146,-0.170645,10.061477,-0.057956,-0.208217,-0.000326,0.976562,1.617432,20.996094
4.614024,0.068857,-0.270038,10.051298,0.133047,-0.307610,-0.010505,0.854492,1.159668,18.829346
4.624120,0.135917,-0.307161,10.228530,0.200108,-0.344733,0.166726,1.190186,0.885010,16.876221
4.634215,0.428708,-0.340093,10.163864,0.492899,-0.377665,0.102061,1.007080,0.549316,14.739990
4.644311,0.221539,-0.273032,10.106982,0.285730,-0.310604,0.045179,0.457764,-0.091553,10.284424
4.654406,0.168250,-0.374821,10.065070,0.232440,-0.412392,0.003266,0.946045,0.579834,8.636475
4.664501,0.204175,-0.439486,10.027348,0.268366,-0.477058,-0.034455,0.732422,0.640869,4.791260
4.674593,0.202978,-0.282612,10.170450,0.267168,-0.320184,0.108647,0.793457,0.488281,2.777100
4.684690,0.191602,-0.294587,10.003997,0.255792,-0.332159,-0.057807,2.593994,0.640869,-0.793457
4.694789,-0.175435,-0.139510,10.082433,-0.111245,-0.177082,0.020630,2.380371,0.610352,-1.159668
4.704882,-0.180824,-0.015568,10.102791,-0.116634,-0.053139,0.040988,2.655029,0.518799,-1.129150
4.714979,-0.361049,-0.108973,9.866283,-0.296859,-0.146545,-0.195520,2.655029,0.457764,-1.037598
4.725071,-0.369432,0.157473,9.854308,-0.305241,0.119901,-0.207496,1.342773,-0.152588,-0.518799
4.735164,-0.320334,-0.014969,10.022558,-0.256144,-0.052541,-0.039245,-0.091553,-0.518799,1.068115
4.745256,-0.426313,-0.026345,10.054891,-0.362123,-0.063917,-0.006913,0.213623,0.122070,1.525879
4.755349,-0.501757,0.127535,9.956695,-0.437566,0.089963,-0.105108,-0.244141,-0.030518,2.716064
4.765442,-0.276625,0.186213,10.203981,-0.212434,0.148641,0.142177,-0.915527,0.030518,3.173828
4.775535,-0.040117,-0.020358,9.945917,0.024074,-0.057930,-0.115886,-0.823975,1.312256,3.234863
4.785627,0.073048,0.023950,9.943522,0.137238,-0.013622,-0.118281,-1.342773,0.579834,0.793457
4.795720,-0.370031,-0.250280,9.868678,-0.305840,-0.287851,-0.193125,0.305176,0.335693,-0.579834
4.805817,0.037722,-0.178429,9.958491,0.101912,-0.216001,-0.103312,0.701904,-1.708984,-1.708984
4.815909,0.071851,-0.270038,9.896221,0.136041,-0.307610,-0.165583,1.525879,-1.708984,-3.479004
4.826001,0.100591,-0.107177,9.863888,0.164781,-0.144749,-0.197915,1.708984,-2.014160,-7.324219
4.836094,-0.030536,0.220941,9.883647,0.033654,0.183369,-0.178157,0.488281,-1.525879,-7.598877
4.846188,0.139510,0.193398,9.880653,0.203700,0.155826,-0.181150,-0.122070,-1.281738,-7.263184
4.856280,-0.159868,0.758622,9.932745,-0.095677,0.721051,-0.129059,-0.579834,0.183105,-7.049561
4.866372,-0.413740,0.013771,9.925560,-0.349549,-0.023801,-0.136244,0.213623,0.427246,-5.889893
4.876465,-0.213157,-0.192200,9.896819,-0.148966,-0.229772,-0.164984,-2.349854,-0.030518,-5.096436
4.886558,-0.245490,-0.114362,10.143506,-0.181299,-0.151934,0.081703,-1.678467,-0.579834,-4.455566
4.896650,-0.576601,-0.092208,9.880054,-0.512411,-0.129780,-0.181749,0.213623,-1.708984,-2.593994
4.906743,-0.653242,-0.224533,9.984836,-0.589051,-0.262105,-0.076967,0.823975,-1.617432,-1.892090
4.916837,-0.468226,-0.038919,10.099199,-0.404036,-0.076491,0.037395,0.000000,-0.091553,-0.457764
4.926931,-0.323328,0.204774,9.875264,-0.259137,0.167202,-0.186539,-0.213623,0.701904,0.427246
4.937024,-0.444875,0.260458,9.999805,-0.380685,0.222887,-0.061998,-0.183105,1.800537,1.434326
4.947117,-0.216749,0.050894,9.902208,-0.152559,0.013322,-0.159595,-1.281738,2.166748,2.655029
4.957210,-0.522713,0.044907,10.076446,-0.458523,0.007335,0.014643,-0.610352,2.105713,3.021240
4.967306,-0.518522,0.102387,10.076446,-0.454331,0.064815,0.014643,0.183105,1.495361,4.699707
4.977400,-0.807122,0.098795,9.908795,-0.742931,0.061223,-0.153009,1.495361,0.793457,5.432129
4.987495,-0.709525,0.227527,9.941726,-0.645334,0.189955,-0.120077,1.281738,1.220703,8.239746
4.997588,-0.616718,0.271236,9.894424,-0.552527,0.233664,-0.167379,0.946045,0.885010,9.185791
5.007684,-0.467628,0.262255,10.058483,-0.403437,0.224683,-0.003320,0.549316,0.213623,10.620117
5.017777,-0.189805,0.261057,9.889036,-0.125615,0.223485,-0.172768,0.000000,0.213623,12.786865
5.027874,-0.255070,0.138911,9.940529,-0.190879,0.101339,-0.121275,0.335693,0.091553,13.488770
5.037966,0.038919,0.202379,10.267449,0.103109,0.164807,0.205645,3.173828,0.732422,15.838623
5.048062,0.204175,-0.365240,10.105785,0.268366,-0.402812,0.043982,4.516602,-0.701904,14.282227
5.058154,-0.095202,-0.455054,10.289004,-0.031012,-0.492626,0.227201,5.462646,-2.777100,6.286621
5.068250,0.120948,-0.223934,9.856104,0.185139,-0.261506,-0.205699,8.666992,-1.220703,1.708984
5.078342,0.881966,-0.632285,10.051298,0.946156,-0.669857,-0.010505,6.378174,-0.274658,-2.868652
5.088438,0.420925,-0.288600,10.245894,0.485115,-0.326172,0.184090,8.697510,-2.014160,-13.122559
5.098531,-0.176633,0.182620,9.199270,-0.112442,0.145048,-0.862533,8.880615,-0.396729,-15.808105
5.108626,-0.850232,0.113763,9.659713,-0.786042,0.076192,-0.402091,4.699707,-2.075195,-15.808105
5.118719,-1.515449,0.434696,10.146500,-1.451258,0.397124,0.084697,0.915527,-0.030518,-12.420654
5.128814,-1.287922,0.218546,9.703422,-1.223731,0.180974,-0.358382,-3.417969,0.823975,-3.417969
5.138911,-1.454974,0.371228,9.915381,-1.390784,0.333656,-0.146423,-5.706787,0.183105,2.349854
5.149007,-1.583707,0.540676,9.906998,-1.519516,0.503104,-0.154805,-7.873535,4.150391,16.723633
5.159103,-1.367556,0.318538,10.263856,-1.303366,0.280966,0.202053,-8.239746,3.814697,23.101807
5.169198,-1.110690,0.302970,10.464439,-1.046500,0.265398,0.402636,-7.476807,3.417969,29.144287
5.179295,-0.107776,0.050295,10.118359,-0.043586,0.012724,0.056555,-6.378174,1.281738,34.271240
5.189391,-0.074246,-0.283810,10.273436,-0.010055,-0.321382,0.211633,-5.493164,0.244141,34.240723
5.199487,0.432301,-0.302371,10.029144,0.496491,-0.339943,-0.032659,-3.204346,-0.518799,31.066895
5.209585,0.752036,-0.370629,9.977053,0.816226,-0.408201,-0.084751,-3.295898,-0.854492,27.770996
5.219682,0.825084,-0.438887,10.061477,0.889274,-0.476459,-0.000326,-1.434326,-0.976562,19.531250
5.229779,1.016686,-0.294587,10.150692,1.080876,-0.332159,0.088888,-1.220703,-0.793457,15.472412
5.239876,1.101709,-0.058678,9.953701,1.165899,-0.096250,-0.108102,-1.403809,-0.213623,11.901855
5.249971,0.946033,-0.259261,10.103989,1.010223,-0.296833,0.042185,-0.152588,0.854492,5.615234
5.260066,1.038840,-0.205972,10.426718,1.103030,-0.243544,0.364914,0.091553,0.732422,2.380371
5.270162,0.772993,-0.173639,9.761501,0.837183,-0.211211,-0.300303,2.380371,1.098633,-3.631592
5.280257,0.496967,-0.374821,10.020762,0.561157,-0.412392,-0.041042,1.586914,0.976562,-6.896973
5.290366,0.219144,-0.020358,9.890233,0.283335,-0.057930,-0.171570,1.464844,-0.030518,-9.979248
5.300463,-0.341290,-0.004790,10.245894,-0.277100,-0.042362,0.184090,1.312256,-0.915527,-8.972168
5.310560,-0.437091,-0.096400,10.061477,-0.372901,-0.133971,-0.000326,2.044678,-1.403809,-7.720947
5.320652,-0.413740,0.188608,10.071057,-0.349549,0.151036,0.009254,1.251221,-2.258301,-3.662109
5.330790,0.096998,0.125739,9.984238,0.161189,0.088167,-0.077566,0.793457,-2.044678,-1.953125
5.340886,0.097597,0.080832,10.074650,0.161787,0.043260,0.012846,-0.610352,-0.091553,-0.823975
5.350981,0.344883,0.068258,9.921368,0.409073,0.030686,-0.140435,-1.495361,0.579834,-0.762939
5.361078,0.371827,-0.159269,10.015373,0.436017,-0.196841,-0.046430,-2.075195,1.525879,-2.593994
5.371174,0.479004,-0.325723,10.194401,0.543194,-0.363295,0.132597,-3.601074,1.098633,-3.967285
5.381269,0.274828,-0.316741,10.136920,0.339019,-0.354313,0.075117,-3.448486,0.457764,-5.279541
5.391364,0.305964,-0.205972,10.055490,0.370154,-0.243544,-0.006314,-1.159668,1.220703,-7.202148
5.401459,0.252675,-0.090412,10.026749,0.316865,-0.127984,-0.035054,-0.274658,1.770020,-8.361816
5.411556,0.206570,-0.105980,9.968670,0.270761,-0.143551,-0.093133,-0.335693,1.281738,-11.901855
5.421651,0.281415,-0.149689,10.118359,0.345605,-0.187261,0.056555,-0.518799,0.610352,-13.580322
5.431746,0.228126,0.003593,10.147099,0.292316,-0.033979,0.085296,-0.030518,-0.030518,-16.265869
5.441842,0.041913,-0.057480,10.104587,0.106103,-0.095052,0.042784,0.061035,-0.579834,-17.089844
5.451937,0.269440,-0.225731,9.971664,0.333630,-0.263302,-0.090140,0.000000,-0.335693,-17.608643
5.462034,0.110770,0.077239,10.062076,0.174960,0.039668,0.000272,-0.091553,-0.274658,-17.181396
5.472129,0.279619,-0.064666,10.106384,0.343809,-0.102237,0.044580,-0.152588,0.061035,-16.845703
5.482225,0.232916,-0.114961,10.224937,0.297106,-0.152533,0.163134,-1.129150,-0.030518,-17.303467
5.492321,0.109572,0.162263,9.941726,0.173762,0.124691,-0.120077,-0.213623,0.183105,-16.235352
5.502417,0.005389,-0.074246,9.943522,0.069579,-0.111817,-0.118281,1.739502,0.915527,-14.739990
5.512514,0.009580,0.045505,10.061477,0.073770,0.007934,-0.000326,0.793457,0.610352,-14.495850
5.522610,-0.079036,-0.058678,9.918973,-0.014845,-0.096250,-0.142830,1.434326,-0.976562,-14.526367
5.532706,0.087418,0.061672,10.200388,0.151608,0.024100,0.138585,1.464844,-1.129150,-13.244629
5.542802,0.331710,-0.096400,10.078242,0.395900,-0.133971,0.016439,1.800537,-1.403809,-13.153076
5.552898,0.382604,-0.305964,10.068063,0.446795,-0.343536,0.006260,2.532959,-0.823975,-16.174316
5.562994,0.346080,-0.192200,10.303374,0.410271,-0.229772,0.241571,1.068115,-1.464844,-19.439697
5.573090,0.371827,-0.474813,10.226135,0.436017,-0.512384,0.164331,1.159668,-1.831055,-26.702881
5.583186,0.117955,-0.209564,10.136321,0.182145,-0.247136,0.074518,1.922607,-2.716064,-29.144287
5.593282,-0.758622,0.762215,10.100995,-0.694432,0.724643,0.039192,0.854492,-1.373291,-26.550293
5.603378,-1.693279,0.513133,10.091415,-1.629089,0.475561,0.029611,4.211426,-2.593994,-19.500732
5.613473,-0.578996,0.337099,9.713600,-0.514806,0.299527,-0.348203,3.326416,-2.899170,-12.512207
5.623569,-0.442480,-0.083826,9.968071,-0.378290,-0.121398,-0.093732,3.601074,-2.624512,-5.004883
5.633666,-0.648452,0.019759,10.096205,-0.584261,-0.017813,0.034401,3.265381,-0.579834,-3.265381
5.643762,-0.107177,-0.232317,10.038126,-0.042987,-0.269889,-0.023678,3.387451,-0.061035,-4.669189
5.653857,0.051493,0.205972,10.257270,0.115683,0.168400,0.195467,3.295898,-0.244141,-6.652832
5.663953,-0.599952,-0.079634,10.018965,-0.535762,-0.117206,-0.042838,2.471924,-0.823975,-6.011963
5.674048,-0.564027,0.304766,9.914183,-0.499837,0.267194,-0.147620,0.549316,-0.030518,-4.211426
5.684144,-0.561033,0.425715,10.160272,-0.496843,0.388143,0.098468,-1.983643,-0.030518,0.396729
5.694239,-0.477806,0.586780,9.950707,-0.413616,0.549208,-0.111096,-4.089355,1.800537,3.875732
5.704333,-0.111368,-0.386796,9.902807,-0.047178,-0.424368,-0.158996,-5.645752,2.593994,5.798340
5.714426,-0.155676,-0.026345,10.368040,-0.091486,-0.063917,0.306236,-5.767822,1.892090,6.469727
5.724522,0.108375,-0.215552,9.788445,0.172565,-0.253124,-0.273359,-5.737305,1.312256,5.676270
5.734618,-0.072449,-0.002395,9.903406,-0.008259,-0.039967,-0.158398,-4.608154,1.220703,2.075195
5.744713,0.052092,-0.075443,10.005194,0.116282,-0.113015,-0.056609,-4.913330,-0.213623,1.251221
5.754809,-0.228724,0.017963,10.147099,-0.164534,-0.019609,0.085296,-3.540039,-1.190186,2.014160
5.764905,-0.381407,0.060474,10.061477,-0.317217,0.022902,-0.000326,-3.753662,-1.281738,3.692627
5.775001,0.002994,0.162861,10.116563,0.067184,0.125289,0.054759,-2.288818,-1.068115,5.340576
5.785093,0.238304,-0.056283,9.998608,0.302495,-0.093855,-0.063196,0.091553,-0.061035,6.958008
5.795187,0.241897,-0.143102,10.071656,0.306087,-0.180674,0.009853,1.220703,0.274658,6.134033
5.805279,0.279020,0.000000,9.887239,0.343210,-0.037572,-0.174564,0.305176,0.915527,3.143311
5.815372,0.189207,0.002395,10.065668,0.253397,-0.035177,0.003865,-0.427246,1.159668,2.044678
5.825465,0.200583,-0.107776,9.845925,0.264773,-0.145348,-0.215878,-0.793457,0.579834,-0.640869
5.835558,0.116757,0.006586,10.120754,0.180947,-0.030986,0.058950,-1.251221,0.457764,-1.800537
5.845650,-0.060474,-0.198188,10.312355,0.003716,-0.235760,0.250552,-0.701904,0.427246,-3.234863
5.855743,-0.144899,-0.073048,10.157278,-0.080708,-0.110620,0.095474,2.471924,0.396729,-6.347656
5.865836,-0.217348,-0.260458,10.203981,-0.153158,-0.298030,0.142177,3.051758,0.152588,-6.774902
5.875927,-0.337698,0.162861,10.174642,-0.273507,0.125289,0.112838,2.441406,-0.061035,-5.950928
5.886019,-0.369432,0.086819,10.030941,-0.305241,0.049248,-0.030863,1.800537,-0.213623,-5.004883
5.896114,-0.530497,0.292791,9.925560,-0.466307,0.255219,-0.136244,-0.885010,-0.122070,-2.685547
5.906206,-0.708926,-0.033530,10.077045,-0.644736,-0.071102,0.015241,0.427246,-0.549316,-1.647949
5.916300,-0.675396,-0.074246,9.989626,-0.611205,-0.111817,-0.072177,-0.122070,-0.183105,-1.434326
5.926392,-0.514929,-0.158670,10.205777,-0.450739,-0.196242,0.143974,-2.655029,0.244141,-2.014160
5.936484,-0.576002,-0.071851,10.261461,-0.511812,-0.109422,0.199658,-2.227783,-0.030518,-2.868652
5.946577,-0.514330,0.058079,10.023755,-0.450140,0.020507,-0.038048,-1.373291,-0.274658,-3.234863
5.956669,-0.558040,0.054487,9.915980,-0.493849,0.016915,-0.145824,-1.098633,-0.335693,-3.845215
5.966785,-0.578397,-0.005988,9.995614,-0.514207,-0.043559,-0.066189,-2.410889,-0.946045,-3.448486
5.976878,-0.907114,0.325723,9.835148,-0.842923,0.288151,-0.226656,-2.288818,-0.335693,-1.647949
5.986972,-1.066981,0.203577,10.158475,-1.002791,0.166005,0.096672,-3.143311,-1.312256,4.699707
5.997064,-1.105900,0.182021,10.116563,-1.041710,0.144450,0.054759,-2.990723,-1.495361,9.124756
6.007158,-0.622705,0.168849,10.062675,-0.558515,0.131277,0.000871,-1.159668,-1.312256,13.092041
6.017251,-0.292791,0.038919,10.074051,-0.228601,0.001347,0.012248,1.007080,0.427246,17.639160
6.027347,-0.057480,-0.286205,10.304572,0.006710,-0.323777,0.242768,1.495361,0.610352,18.096924
6.037439,0.264051,0.096998,10.153087,0.328241,0.059426,0.091283,0.701904,2.044678,16.448975
6.047535,-0.088017,0.068258,10.211765,-0.023827,0.030686,0.149961,0.671387,2.075195,15.319824
6.057628,-0.043709,0.070054,10.199191,0.020481,0.032482,0.137387,0.640869,1.281738,14.129639
6.067726,-0.282612,0.131726,10.151290,-0.218422,0.094154,0.089487,0.152588,0.976562,13.885498
6.077819,-0.153880,0.060474,9.895622,-0.089690,0.022902,-0.166181,-0.122070,0.915527,13.824463
6.087915,-0.092807,-0.046703,10.020163,-0.028617,-0.084275,-0.041640,-0.579834,-0.274658,13.427734
6.098008,-0.088616,0.008981,10.051298,-0.024425,-0.028591,-0.010505,-1.403809,0.030518,12.939453
6.108104,-0.024549,0.006586,9.896819,0.039641,-0.030986,-0.164984,0.213623,-1.312256,10.467529
6.118196,0.236508,-0.158670,9.927356,0.300698,-0.196242,-0.134447,-0.152588,-1.617432,8.422852
6.128292,0.238304,-0.232317,10.158475,0.302495,-0.269889,0.096672,-0.183105,-1.434326,2.532959
6.138384,0.294587,-0.270637,10.153087,0.358778,-0.308209,0.091283,1.678467,-1.373291,0.152588
6.148480,0.369432,-0.264051,10.168055,0.433622,-0.301623,0.106252,3.570557,-1.586914,-2.563477
6.158571,0.795146,-0.425715,10.134525,0.859337,-0.463287,0.072722,6.011963,-1.953125,-10.711670
6.168667,0.825683,-0.501757,10.162068,0.889873,-0.539328,0.100264,5.889893,-2.227783,-16.387939
6.178793,0.520318,-0.211959,10.241702,0.584508,-0.249531,0.179899,6.469727,-2.075195,-27.252197
6.188889,0.205972,-0.232916,9.941726,0.270162,-0.270488,-0.120077,7.598877,-2.777100,-30.487061
6.198983,0.007784,0.138312,10.139914,0.071974,0.100741,0.078111,9.979248,-2.593994,-33.935547
6.209079,-0.719105,0.022753,10.238708,-0.654914,-0.014819,0.176905,8.911133,-4.821777,-31.921387
6.219175,-0.702339,0.065863,9.725576,-0.638149,0.028291,-0.336228,12.481689,-4.272461,-28.167725
6.229270,0.844843,-1.159189,11.628419,0.909033,-1.196761,1.566615,7.232666,-4.364014,-34.667969
6.239366,-0.712518,0.002994,9.575887,-0.648328,-0.034578,-0.485917,19.287109,-6.164551,-40.222168
6.249462,-0.732876,0.493973,10.391990,-0.668686,0.456401,0.330186,11.566162,-6.103516,-38.635254
6.259554,-1.098116,0.535886,9.886042,-1.033926,0.498314,-0.175762,12.634277,-5.798340,-34.271240
6.269649,-1.380729,0.540676,10.125544,-1.316538,0.503104,0.063740,8.178711,-1.617432,-25.451660
6.279745,-1.152603,0.636476,9.826765,-1.088413,0.598905,-0.235038,4.394531,-2.014160,-20.690918
6.289840,-0.989742,0.705333,9.588461,-0.925552,0.667761,-0.473343,-5.920410,0.213623,-10.406494
6.299935,-0.605341,0.464634,9.835746,-0.541151,0.427062,-0.226057,-10.375977,3.173828,-7.263184
6.310030,-0.241298,0.276026,10.203981,-0.177108,0.238454,0.142177,-12.725830,3.997803,-6.774902
6.320127,-0.229323,0.443079,9.666898,-0.165133,0.405507,-0.394906,-17.974854,5.981445,-6.713867
6.330222,-0.388592,0.490979,10.016570,-0.324402,0.453407,-0.045233,-21.270752,6.195068,-6.835938
6.340318,-0.590372,0.104183,10.280621,-0.526182,0.066611,0.218818,-19.897461,6.042480,-6.225586
6.350414,-0.387394,0.138911,10.026749,-0.323204,0.101339,-0.035054,-18.920898,4.821777,-4.913330
6.360509,-0.135319,0.335303,10.075248,-0.071128,0.297731,0.013445,-18.249512,2.380371,-1.617432
6.370605,-0.293390,0.286205,10.285411,-0.229200,0.248633,0.223608,-16.052246,1.556396,0.640869
6.380700,-0.029339,-0.219144,9.777667,0.034851,-0.256716,-0.284136,-14.434814,-2.624512,0.244141
6.390796,-0.408950,-0.282612,9.736353,-0.344759,-0.320184,-0.325450,-14.007568,-1.403809,1.831055
6.400892,-0.062869,-0.083826,10.215357,0.001321,-0.121398,0.153554,-12.054443,-0.854492,2.685547
6.410986,0.060474,-0.163460,10.448273,0.124665,-0.201032,0.386469,-9.063721,-0.579834,3.997803
6.421082,-0.030536,-0.171843,10.199191,0.033654,-0.209415,0.137387,-7.659912,0.396729,4.058838
6.431178,-0.337099,-0.469424,10.108779,-0.272909,-0.506996,0.046975,-6.195068,-1.739502,4.730225
6.441270,0.434097,-0.256267,10.126143,0.498288,-0.293839,0.064339,-5.126953,-0.976562,4.364014
6.451366,0.261656,-0.597557,10.218950,0.325846,-0.635129,0.157146,-1.770020,0.061035,3.295898
6.461461,0.301174,-0.441881,10.481204,0.365364,-0.479453,0.419401,3.112793,0.579834,0.335693
6.471557,0.144899,-0.489183,10.432106,0.209089,-0.526755,0.370303,6.317139,2.166748,-0.640869
6.481653,-0.062869,-0.353864,10.229128,0.001321,-0.391436,0.167325,7.873535,2.899170,0.305176
6.491762,-0.092208,-0.119152,10.341694,-0.028018,-0.156724,0.279891,8.361816,1.953125,0.122070
6.501858,0.002994,-0.032333,9.905801,0.067184,-0.069905,-0.156003,6.103516,2.166748,0.823975
6.511953,-0.048499,0.130529,9.912387,0.015691,0.092957,-0.149416,4.974365,2.258301,3.021240
6.522048,0.079634,0.448467,9.974658,0.143825,0.410896,-0.087146,2.746582,1.098633,7.385254
6.532144,0.568817,0.071851,9.355545,0.633007,0.034279,-0.706258,3.082275,-1.556396,6.896973
6.542238,0.234712,0.146096,10.284214,0.298902,0.108524,0.222410,3.326416,-1.373291,8.544922
6.552369,0.551453,-0.464035,9.944720,0.615644,-0.501607,-0.117084,3.204346,-1.007080,6.774902
6.562486,0.744851,-0.304167,10.147698,0.809041,-0.341739,0.085894,4.516602,-0.427246,4.241943
6.572593,0.256866,0.148491,9.862092,0.321056,0.110919,-0.199712,2.380371,0.854492,-0.640869
6.582685,-0.182021,0.056882,10.078841,-0.117831,0.019310,0.017038,0.915527,1.281738,-0.305176
6.592777,-0.212558,0.154479,9.995015,-0.148368,0.116907,-0.066788,0.915527,1.953125,4.608154
6.602866,-0.239502,0.159868,10.223740,-0.175312,0.122296,0.161936,-0.946045,2.075195,7.354736
6.612956,-0.040117,0.047900,10.200987,0.024074,0.010329,0.139184,-0.213623,1.983643,9.277344
6.623634,0.047900,-0.071851,10.075847,0.112091,-0.109422,0.014044,-1.678467,1.892090,10.040283
6.633719,0.051493,0.183818,9.637559,0.115683,0.146246,-0.424245,-0.457764,1.251221,9.307861
6.643838,0.256267,-0.193398,10.160272,0.320457,-0.230970,0.098468,-0.915527,0.640869,6.561279
6.653927,0.447869,-0.250878,10.542876,0.512059,-0.288450,0.481073,-0.396729,-1.525879,3.967285
6.664013,-0.053888,-0.071252,10.074051,0.010302,-0.108824,0.012248,-0.457764,-1.373291,0.488281
6.674102,0.063468,0.192799,10.112970,0.127658,0.155227,0.051167,-0.457764,-0.640869,0.915527
6.684192,-0.347278,0.034129,9.927356,-0.283088,-0.003443,-0.134447,-2.563477,1.159668,4.058838
6.694282,-0.470621,-0.189805,10.221345,-0.406431,-0.227377,0.159541,-3.234863,0.762939,5.432129
6.704371,-0.598156,-0.040715,10.418934,-0.533966,-0.078287,0.357130,-3.509521,-0.305176,7.171631
6.714460,-0.601150,-0.010179,10.270443,-0.536960,-0.047751,0.208639,-4.302979,-2.532959,10.314941
6.724550,-0.350272,0.143102,9.736353,-0.286081,0.105531,-0.325450,-4.180908,-2.777100,12.115479
6.734640,-0.605940,0.162263,9.781260,-0.541750,0.124691,-0.280544,-4.425049,-2.105713,16.784668
6.744726,-0.437091,-0.085622,9.948312,-0.372901,-0.123194,-0.113491,-3.936768,-3.753662,19.226074
6.754815,-0.339494,0.232916,10.275233,-0.275304,0.195344,0.213429,-2.166748,-2.899170,21.789551
6.764904,-0.554447,-0.201780,9.995015,-0.490257,-0.239352,-0.066788,-1.983643,-0.976562,22.705078
6.774993,-0.634081,-0.166454,10.238708,-0.569891,-0.204026,0.176905,-1.220703,0.610352,24.353027
6.785083,-0.305365,-0.034728,10.105785,-0.241175,-0.072300,0.043982,0.549316,0.793457,27.160645
6.795176,0.081431,-0.022154,10.305769,0.145621,-0.059726,0.243966,0.915527,1.037598,26.916504
6.805271,0.411943,-0.240101,9.982441,0.476134,-0.277673,-0.079362,2.990723,2.777100,22.857666
6.815367,0.761017,-0.141905,9.819580,0.825208,-0.179477,-0.242223,4.028320,3.082275,19.622803
6.825465,0.790356,-0.067061,10.215357,0.854547,-0.104632,0.153554,4.699707,1.525879,11.474609
6.835561,0.499960,-0.333506,9.899214,0.564151,-0.371078,-0.162589,5.096436,-0.122070,7.934570
6.845657,0.616718,-0.405357,10.087224,0.680908,-0.442929,0.025420,4.425049,-1.464844,4.791260
6.855838,0.607736,-0.577200,10.248289,0.671926,-0.614772,0.186485,5.920410,-1.739502,-1.068115
6.865935,0.444875,-0.476609,10.105785,0.509065,-0.514181,0.043982,6.530762,-1.098633,-4.425049
6.876032,-0.228126,-0.400567,10.223740,-0.163935,-0.438139,0.161936,6.134033,1.007080,-7.598877
6.886127,-0.148491,-0.410147,10.236912,-0.084301,-0.447719,0.175109,5.767822,1.098633,-9.307861
6.896224,-0.450264,-0.268242,10.198592,-0.386073,-0.305814,0.136789,4.638672,-0.274658,-11.047363
6.906320,-0.655038,0.102986,9.782457,-0.590848,0.065414,-0.279346,0.061035,0.152588,-10.894775
6.916417,-0.877176,0.108973,10.023157,-0.812986,0.071402,-0.038647,-3.662109,0.274658,-6.195068
6.926513,-0.737067,0.271236,10.333312,-0.672877,0.233664,0.271508,-1.647949,0.488281,-2.746582
6.936612,-0.567021,0.364043,9.906400,-0.502831,0.326471,-0.155404,-0.762939,0.274658,1.525879
6.946709,-0.557441,0.430505,10.209370,-0.493251,0.392933,0.147566,-0.091553,0.335693,8.758545
6.956806,-0.416135,0.331111,10.151889,-0.351944,0.293540,0.090086,-0.335693,0.762939,11.230469
6.966902,-0.339494,0.107177,10.023755,-0.275304,0.069605,-0.038048,-0.823975,1.068115,13.153076
6.976998,-0.182021,0.016166,10.269844,-0.117831,-0.021405,0.208040,-0.640869,0.610352,13.580322
6.987095,-0.063468,0.640668,9.849518,0.000722,0.603096,-0.212286,-0.671387,2.716064,14.587402
6.997191,0.265248,-0.544268,10.247690,0.329439,-0.581840,0.185886,2.227783,-0.610352,9.857178
7.007288,-0.061672,-0.178429,9.801617,0.002519,-0.216001,-0.260186,3.173828,0.762939,6.378174
7.017383,-0.292791,-0.097597,10.434501,-0.228601,-0.135169,0.372698,0.976562,0.457764,2.166748
7.027480,-0.196392,-0.074246,9.936936,-0.132201,-0.111817,-0.124867,2.685547,-1.953125,1.434326
7.037576,0.308359,-0.611329,10.053693,0.372549,-0.648901,-0.008110,1.159668,-2.136230,1.586914
7.047672,-0.492177,-0.263452,10.703941,-0.427986,-0.301024,0.642138,4.211426,-1.037598,0.000000
7.057768,-0.047302,-0.466430,10.171648,0.016889,-0.504002,0.109845,11.444092,-1.434326,-1.770020
7.067865,-0.009580,-0.217348,10.212363,0.054610,-0.254920,0.150560,11.749268,-0.885010,-1.495361
7.077961,-0.250280,-0.464035,10.686577,-0.186089,-0.501607,0.624774,14.801025,-2.868652,-1.251221
7.088058,-0.525707,0.415536,10.172247,-0.461517,0.377964,0.110443,15.014648,-0.030518,-1.586914
7.098154,1.060994,-0.634081,10.670411,1.125184,-0.671653,0.608607,13.519287,-2.319336,-7.537842
7.108250,-0.622705,0.954415,9.642947,-0.558515,0.916843,-0.418856,21.942139,-8.331299,-6.164551
7.118346,-0.435295,0.425715,10.490784,-0.371105,0.388143,0.428981,17.944336,-7.080078,-1.403809
7.128442,-0.393382,0.411943,9.944720,-0.329192,0.374371,-0.117084,21.575928,-7.263184,3.814697
7.138538,-0.553250,0.357457,9.907597,-0.489059,0.319885,-0.154206,19.226074,-5.432129,5.096436
7.148634,-0.415536,0.292192,10.325528,-0.351346,0.254621,0.263725,22.827148,-4.180908,8.514404
7.158728,-0.429307,0.362247,10.043514,-0.365117,0.324675,-0.018289,21.820068,-4.425049,10.223389
7.168824,-0.468825,0.864602,9.735156,-0.404635,0.827030,-0.326648,21.514893,-4.699707,10.589600
7.178920,-0.584984,0.219144,10.632090,-0.520793,0.181572,0.570287,4.882812,-1.464844,11.718750
7.189016,0.086819,-0.470023,10.137519,0.151010,-0.507594,0.075716,7.781982,-4.150391,10.803223
7.199112,-0.044308,0.645458,10.342293,0.019882,0.607886,0.280490,5.249023,-2.258301,12.664795
7.209208,0.182021,0.332309,9.319620,0.246212,0.294737,-0.742184,2.960205,-0.915527,13.916016
7.219305,-0.444875,0.542472,9.784852,-0.380685,0.504900,-0.276951,-7.476807,0.000000,12.756348
7.229400,-0.264051,0.730481,10.506352,-0.199861,0.692909,0.444549,-11.810303,2.105713,13.336182
7.239497,4.308041,0.599354,11.267369,4.372232,0.561782,1.205566,-6.530762,-2.227783,11.138916
7.249593,1.710044,-1.307082,10.526111,1.774234,-1.344654,0.464307,-0.518799,-1.556396,-14.282227
7.259689,1.156196,-0.780178,9.974658,1.220386,-0.817749,-0.087146,1.068115,-2.990723,-25.421143
7.269781,-0.408351,-0.805325,11.481125,-0.344161,-0.842897,1.419322,5.157471,-3.967285,-34.027100
7.279877,-0.865201,0.739462,9.798624,-0.801011,0.701890,-0.263180,15.869141,-7.049561,-32.897949
7.289973,-0.737067,1.826801,8.592133,-0.672877,1.789229,-1.469671,-0.396729,-2.136230,-19.226074
7.300069,-1.110092,1.701063,10.421927,-1.045901,1.663491,0.360124,3.234863,0.122070,-13.610840
7.310165,-0.515528,1.534010,8.974138,-0.451338,1.496438,-1.087665,-2.899170,0.640869,-6.805420
7.320261,-0.182620,0.201182,11.244617,-0.118430,0.163610,1.182813,-4.730225,3.204346,7.690430
7.330357,-0.016166,0.542472,9.896819,0.048024,0.504900,-0.164984,6.256104,0.488281,9.307861
7.340454,0.983156,-0.065863,10.545271,1.047346,-0.103435,0.483468,-4.882812,4.547119,10.040283
7.350549,0.988544,-0.278421,10.924283,1.052735,-0.315993,0.862479,2.532959,1.251221,5.584717
7.360645,1.263972,0.719105,9.289083,1.328162,0.681533,-0.772720,0.701904,2.105713,-0.732422
7.370737,0.877176,0.087418,10.384206,0.941366,0.049846,0.322403,4.425049,0.213623,-2.014160
7.380834,0.809517,0.408950,9.764495,0.873707,0.371378,-0.297309,4.211426,-0.976562,-3.875732
7.390930,0.401765,-0.120948,10.449470,0.465955,-0.158520,0.387667,6.958008,-2.349854,-8.483887
7.401026,0.359253,0.676593,9.001082,0.423443,0.639021,-1.060721,5.187988,-1.831055,-10.040283
7.411122,0.080832,0.609532,9.660311,0.145022,0.571961,-0.401492,2.716064,-2.014160,-9.338379
7.421218,0.006586,0.753832,9.892628,0.070777,0.716261,-0.169175,-1.892090,-0.152588,-8.117676
7.431315,-0.388592,0.517923,10.131531,-0.324402,0.480351,0.069728,-1.312256,0.488281,-3.814697
7.441410,-0.192799,0.353265,10.257869,-0.128609,0.315694,0.196065,-3.112793,1.068115,-2.349854
7.451507,-0.096998,0.716710,9.672286,-0.032808,0.679138,-0.389517,-4.028320,2.563477,-0.274658
7.461603,-0.513732,0.789758,9.681866,-0.449541,0.752186,-0.379937,0.213623,2.655029,1.129150
7.471699,-0.581990,1.147813,9.238189,-0.517799,1.110241,-0.823614,-2.899170,4.913330,6.011963
7.481794,-0.035327,0.852028,10.088421,0.028864,0.814456,0.026618,0.335693,0.396729,9.246826
7.491890,0.474813,0.094005,10.602153,0.539003,0.056433,0.540349,1.800537,-0.183105,8.422852
7.501986,0.143102,-0.779579,10.542876,0.207293,-0.817151,0.481073,2.136230,4.730225,1.800537
7.512082,0.597557,0.436492,9.869277,0.661748,0.398920,-0.192527,0.762939,-0.183105,-5.645752
7.522177,0.582589,0.292192,9.963281,0.646779,0.254621,-0.098522,-1.617432,-0.305176,-6.744385
7.532273,-0.106578,-0.622705,10.389595,-0.042388,-0.660277,0.327791,-0.030518,-1.892090,-4.913330
7.542368,0.264650,0.310155,9.271121,0.328840,0.272583,-0.790683,0.823975,-3.753662,-7.385254
7.552465,0.265248,0.519120,9.610016,0.329439,0.481549,-0.451788,5.157471,-5.889893,-16.082764
7.562561,-0.861010,1.781895,10.117760,-0.796819,1.744323,0.055957,0.823975,-0.671387,-13.275146
7.572657,-0.513732,1.136437,9.945917,-0.449541,1.098865,-0.115886,7.751465,-4.638672,-11.840820
7.582788,-0.925076,0.734672,9.963281,-0.860886,0.697100,-0.098522,6.042480,-2.227783,-11.108398
7.592884,-0.701142,0.980162,9.556128,-0.636952,0.942590,-0.505675,1.068115,0.427246,-3.082275
7.602979,-0.734672,0.509540,10.357861,-0.670482,0.471969,0.296057,-1.190186,-1.098633,0.885010
7.613075,-0.800535,0.985551,9.732162,-0.736345,0.947979,-0.329642,0.305176,-1.464844,4.791260
7.623168,-0.578996,0.612526,9.679471,-0.514806,0.574954,-0.382332,-8.148193,2.014160,8.270264
7.633264,-0.558638,0.647254,10.162667,-0.494448,0.609682,0.100863,-10.925293,4.425049,9.643555
7.643359,-0.565823,0.330513,10.101594,-0.501633,0.292941,0.039790,-14.953613,3.997803,13.793945
7.653454,-0.926873,0.538879,9.367520,-0.862682,0.501308,-0.694283,-11.413574,6.927490,16.357422
7.663549,0.366438,1.095123,8.307125,0.430628,1.057551,-1.754678,-33.203125,14.221191,18.890381
7.673642,0.410746,-1.765728,11.136242,0.474936,-1.803300,1.074439,-13.916016,1.556396,6.072998
7.683737,1.062790,1.077759,8.618478,1.126980,1.040187,-1.443326,-21.545410,7.171631,-1.647949
7.693830,0.726290,-0.844843,10.465038,0.790480,-0.882415,0.403234,-11.810303,2.563477,-8.911133
7.703925,0.124541,0.661025,9.593849,0.188731,0.623454,-0.467954,-9.887695,2.960205,-9.735107
7.714018,-1.068179,0.692161,9.820778,-1.003988,0.654589,-0.241026,-13.305664,4.119873,-5.645752
7.724111,-1.075963,1.046624,9.839938,-1.011772,1.009052,-0.221866,-17.211914,5.126953,1.617432
7.734208,-1.503474,0.535287,9.810599,-1.439283,0.497715,-0.251205,-18.127441,6.530762,16.174316
7.744304,-0.739462,0.653242,9.993219,-0.675272,0.615670,-0.068584,-21.362305,6.195068,22.888184
7.754401,-1.043630,0.465831,9.896819,-0.979439,0.428259,-0.164984,-23.345947,7.568359,33.660889
7.764496,-0.208367,-0.039518,10.628498,-0.144176,-0.077090,0.566695,-18.615723,10.070801,37.902832
7.774592,0.205972,-0.010179,10.582993,0.270162,-0.047751,0.521189,-18.432617,6.347656,39.062500
7.784688,0.582589,-0.225731,10.373428,0.646779,-0.263302,0.311625,-13.275146,2.532959,39.001465
7.794785,0.617915,-0.444875,10.350077,0.682105,-0.482447,0.288274,-12.359619,0.915527,37.750244
7.804888,1.031056,-0.650248,10.305170,1.095246,-0.687820,0.243367,-9.826660,0.213623,31.951904
7.814984,1.172961,-0.629291,10.131531,1.237151,-0.666863,0.069728,-8.361816,-0.610352,27.496338
7.825078,1.135838,-0.557441,10.079440,1.200028,-0.595013,0.017636,-5.249023,-1.586914,16.418457
7.835248,1.530417,-0.906515,10.539882,1.594608,-0.944087,0.478079,-3.845215,-1.770020,9.857178
7.845344,1.144819,-0.884361,10.174043,1.209010,-0.921933,0.112240,-4.364014,-2.075195,4.180908
7.855442,0.831671,-0.396376,10.317744,0.895861,-0.433948,0.255941,0.762939,-0.701904,-5.493164
7.865538,0.608335,-0.411345,10.158475,0.672525,-0.448916,0.096672,2.349854,-1.007080,-7.568359
7.875633,0.438887,-0.099992,10.047107,0.503078,-0.137564,-0.014696,6.988525,2.075195,-8.605957
7.885728,0.325723,0.085023,10.194999,0.389913,0.047451,0.133196,6.744385,1.586914,-7.904053
7.895824,0.096400,0.000000,10.177037,0.160590,-0.037572,0.115233,6.896973,0.518799,-5.767822
7.905913,0.110171,-0.155078,9.911788,0.174361,-0.192649,-0.150015,6.622314,-0.366211,-3.845215
7.916002,-0.032932,-0.017963,10.313553,0.031259,-0.055535,0.251749,7.110596,-0.823975,-3.295898
7.926091,0.141306,-0.001198,9.827364,0.205496,-0.038769,-0.234439,6.713867,-0.518799,-2.471924
7.936181,0.320933,-0.139510,10.213561,0.385123,-0.177082,0.151757,4.760742,-1.495361,-2.380371
7.946270,0.369432,-0.253273,10.078242,0.433622,-0.290845,0.016439,4.821777,-2.044678,-5.645752
7.956359,-0.002994,0.147892,9.914782,0.061196,0.110321,-0.147021,6.805420,-2.166748,-7.171631
7.966448,-0.278421,-0.104782,10.248289,-0.214231,-0.142354,0.186485,8.056641,-2.532959,-5.798340
7.976534,-0.482596,-0.113165,9.999207,-0.418406,-0.150737,-0.062597,7.049561,0.030518,-2.807617
7.986624,-0.126936,-0.350870,10.241104,-0.062746,-0.388442,0.179300,8.270264,-2.990723,-2.685547
7.996714,-0.328716,-0.000599,9.922566,-0.264526,-0.038171,-0.139237,9.002686,-2.349854,-2.410889
8.006881,-0.233514,-0.011975,10.051298,-0.169324,-0.049547,-0.010505,7.202148,-3.051758,-2.441406
8.016976,-0.101788,-0.491578,10.336904,-0.037598,-0.529150,0.275101,4.638672,-1.831055,-2.960205
8.027074,0.065264,-0.144899,10.156679,0.129455,-0.182471,0.094876,6.103516,-3.662109,-7.537842
8.037169,-0.622705,0.713716,10.072853,-0.558515,0.676144,0.011050,4.791260,-2.044678,-5.584717
8.047265,-0.623903,0.598755,10.239906,-0.559712,0.561183,0.178103,6.408691,-2.319336,-2.105713
8.057360,-0.820294,0.647254,10.090217,-0.756104,0.609682,0.028414,8.544922,-1.739502,3.692627
8.067455,-0.662822,0.145497,9.998009,-0.598631,0.107926,-0.063794,9.826660,-1.129150,5.157471
8.077550,-0.452659,-0.017963,10.051298,-0.388468,-0.055535,-0.010505,9.185791,-2.014160,5.004883
8.087644,-0.076042,0.036524,10.022558,-0.011852,-0.001048,-0.039245,8.697510,-0.671387,2.929688
8.097739,0.096998,-0.149689,10.063872,0.161189,-0.187261,0.002069,9.307861,-1.342773,0.885010
8.107830,-0.041913,0.032932,10.000404,0.022277,-0.004640,-0.061399,9.399414,-0.823975,-3.631592
8.117919,-0.250878,-0.117356,10.060280,-0.186688,-0.154928,-0.001524,9.490967,-0.518799,-5.554199
8.128007,0.057480,-0.274230,10.278825,0.121671,-0.311802,0.217022,8.972168,-2.624512,-12.115479
8.138096,-0.535886,0.637674,9.869277,-0.471695,0.600102,-0.192527,7.263184,-1.342773,-10.711670
8.148185,-0.223934,-0.186213,10.737471,-0.159744,-0.223785,0.675668,5.065918,-3.204346,-11.169434
8.158273,-0.309556,0.546064,9.781859,-0.245366,0.508493,-0.279945,5.859375,-3.356934,-13.061523
8.168361,-0.656834,0.240699,9.829759,-0.592644,0.203128,-0.232044,3.540039,-2.441406,-12.756348
8.178450,-0.916095,0.555046,9.641750,-0.851905,0.517474,-0.420053,-3.814697,-0.457764,-9.460449
8.188538,-0.989742,0.698148,9.948312,-0.925552,0.660576,-0.113491,-8.209229,0.701904,-6.225586
8.198627,-0.320334,0.473016,9.905801,-0.256144,0.435444,-0.156003,-16.326904,1.190186,-5.981445
8.208720,-0.481399,0.673000,10.056687,-0.417209,0.635429,-0.005116,-17.791748,2.258301,-6.286621
8.218816,-0.646057,0.582589,9.824370,-0.581866,0.545017,-0.237433,-22.308350,8.117676,-4.119873
8.228911,-0.319136,0.101788,10.557246,-0.254946,0.064216,0.495443,-25.787354,7.843018,-5.523682
8.239006,-0.858016,-0.227527,10.330318,-0.793825,-0.265099,0.268515,-23.254395,6.927490,-7.934570
8.249100,-0.762215,-0.043110,10.369237,-0.698025,-0.080682,0.307434,-15.045166,3.906250,-10.711670
8.259195,-0.706531,0.157473,10.355466,-0.642340,0.119901,0.293662,-11.505127,3.021240,-10.131836
8.269290,-0.906515,0.230521,10.320139,-0.842325,0.192949,0.258336,-2.166748,0.183105,-8.148193
8.279385,-0.727487,0.092807,10.489587,-0.663297,0.055235,0.427783,1.373291,-1.434326,-6.317139
8.289479,-0.735271,0.017963,10.411749,-0.671081,-0.019609,0.349945,11.993408,-3.295898,-3.570557
8.299579,-0.535886,0.085023,10.002799,-0.471695,0.047451,-0.059004,17.028809,-2.441406,-2.685547
8.309667,0.283810,0.038919,9.808204,0.348000,0.001347,-0.253600,18.493652,-2.227783,-3.601074
8.319757,0.478405,-0.111967,9.952504,0.542595,-0.149539,-0.109300,21.759033,-8.911133,-9.460449
8.329844,-0.286804,0.428110,9.986034,-0.222613,0.390538,-0.075769,19.866943,-7.415771,-11.383057
8.339933,-0.339494,0.265248,10.160272,-0.275304,0.227677,0.098468,21.362305,-7.720947,-12.359619
8.350022,-0.198787,0.052092,10.095606,-0.134596,0.014520,0.033803,22.888184,-6.622314,-11.840820
8.360111,-0.167053,0.125140,10.270443,-0.102862,0.087568,0.208639,24.322510,-6.958008,-12.573242
8.370199,0.314346,0.310754,10.082433,0.378537,0.273182,0.020630,25.604248,-8.331299,-13.061523
8.380287,0.290995,0.810115,9.084908,0.355185,0.772543,-0.976896,25.482178,-6.225586,-13.092041
8.390375,-0.011975,0.505349,10.212962,0.052215,0.467777,0.151159,7.232666,-1.037598,-11.840820
8.400463,-0.126337,0.861010,9.360934,-0.062147,0.823438,-0.700870,8.392334,0.000000,-10.040283
8.410555,-0.108973,0.169448,10.736873,-0.044783,0.131876,0.675069,0.854492,1.678467,-5.249023
8.420649,0.222138,0.118553,10.197993,0.286328,0.080982,0.136190,5.920410,-0.823975,-4.547119
8.430745,0.120350,0.640069,9.955497,0.184540,0.602497,-0.106306,4.730225,-2.197266,-3.265381
8.440840,-0.004790,0.740660,9.516610,0.059400,0.703088,-0.545193,3.723145,-1.647949,-3.265381
8.450935,1.308279,0.011376,8.540640,1.372470,-0.026196,-1.521164,-3.448486,1.739502,-4.760742
8.461031,0.662822,-0.074246,10.505154,0.727012,-0.111817,0.443351,-3.051758,0.640869,-14.678955
8.471126,1.578917,-0.235909,10.023157,1.643107,-0.273481,-0.038647,-3.479004,-3.295898,-19.470215
8.481221,0.596959,0.281415,10.307565,0.661149,0.243843,0.245762,0.762939,-0.885010,-24.444580
8.491318,0.068857,0.104183,9.944720,0.133047,0.066611,-0.117084,1.495361,-1.708984,-24.963379
8.501412,-0.907712,0.540077,9.768087,-0.843522,0.502505,-0.293716,-2.532959,-2.319336,-18.981934
8.511508,-0.596959,1.727408,9.816586,-0.532768,1.689836,-0.245217,0.457764,-0.061035,-14.007568
8.521603,0.553250,1.828597,9.344169,0.617440,1.791026,-0.717635,-12.390137,0.885010,-8.392334
8.531698,1.118474,0.156275,9.966874,1.182664,0.118703,-0.094930,7.965088,-2.227783,-11.688232
8.541792,0.835263,0.674797,8.579559,0.899453,0.637225,-1.482245,-2.593994,2.441406,-12.268066
8.551887,0.752036,-0.598755,11.068583,0.816226,-0.636327,1.006779,10.864258,-2.899170,-25.695801
8.561981,1.020877,1.149011,8.406519,1.085067,1.111439,-1.655285,8.361816,-6.256104,-27.038574
8.572076,0.362247,0.305964,10.502759,0.426437,0.268392,0.440956,9.429932,-6.103516,-21.240234
8.582170,-0.273631,1.914818,8.547825,-0.209441,1.877246,-1.513979,6.652832,-4.730225,-16.601562
8.592265,-0.546663,0.593965,10.598560,-0.482473,0.556393,0.536757,4.669189,-2.227783,-4.547119
8.602360,-0.122745,1.192121,9.102272,-0.058554,1.154549,-0.959532,1.190186,1.037598,1.556396
8.612455,-0.132924,0.396376,10.429711,-0.068733,0.358804,0.367908,-3.051758,1.770020,6.500244
8.622549,0.417931,0.733475,9.734557,0.482121,0.695903,-0.327246,-1.281738,2.777100,13.031006
8.632643,0.241298,-0.162263,10.475815,0.305488,-0.199834,0.414012,-0.427246,3.448486,14.373779
8.642738,0.937051,0.543071,9.811796,1.001242,0.505499,-0.250007,-0.488281,1.312256,8.850098
8.652834,0.771196,-0.101190,10.481204,0.835387,-0.138761,0.419401,-2.166748,0.946045,5.676270
8.662932,1.034050,0.197589,9.801019,1.098240,0.160017,-0.260785,-1.586914,-0.549316,2.349854
8.673028,-0.520917,0.038320,10.738070,-0.456726,0.000748,0.676267,-3.265381,-1.770020,6.713867
8.683122,0.283211,-0.085622,9.760902,0.347401,-0.123194,-0.300901,1.251221,-3.173828,7.232666
8.693217,0.217348,0.353265,9.899214,0.281538,0.315694,-0.162589,-0.335693,0.701904,5.706787
8.703314,0.024549,0.061672,10.530302,0.088739,0.024100,0.468499,-0.793457,0.457764,3.753662
8.713403,0.323328,1.152004,8.983120,0.387518,1.114433,-1.078684,-1.892090,3.784180,4.028320
8.723492,0.174238,0.939446,11.110496,0.238428,0.901875,1.048692,-10.559082,5.798340,4.730225
8.733580,0.519719,-1.057401,11.247012,0.583910,-1.094973,1.185208,4.882812,-4.272461,1.861572
8.743669,0.564027,0.417332,9.432784,0.628217,0.379760,-0.629019,0.793457,-3.509521,-1.434326
8.753759,0.428708,0.049697,10.405761,0.492899,0.012125,0.343958,-1.922607,-2.777100,-4.547119
8.763849,0.194595,0.749641,9.391470,0.258786,0.712069,-0.670333,4.425049,-1.434326,-5.279541
8.773938,0.166454,0.495769,10.272838,0.230644,0.458197,0.211034,0.885010,0.793457,-4.333496
8.784027,0.105381,0.645458,9.632769,0.169571,0.607886,-0.429035,1.251221,0.518799,-0.274658
8.794116,0.331710,-0.129331,10.501562,0.395900,-0.166903,0.439759,-0.732422,0.152588,-0.518799
8.804206,0.096400,0.411943,9.877061,0.160590,0.374371,-0.184743,0.610352,-0.488281,-1.831055
8.814298,-0.009580,0.628094,10.217153,0.054610,0.590522,0.155350,1.281738,-0.030518,-0.701904
8.824395,0.212558,0.508942,10.151889,0.276748,0.471370,0.090086,4.333496,-1.129150,2.807617
8.834490,0.534688,0.284409,9.937535,0.598878,0.246837,-0.124269,5.187988,-2.136230,1.800537
8.844585,0.216749,0.711920,9.885443,0.280940,0.674348,-0.176360,4.852295,-1.342773,1.434326
8.854681,0.048499,0.255668,10.012978,0.112689,0.218096,-0.048825,4.486084,-1.647949,1.464844
8.864777,-0.017963,0.777783,9.304052,0.046228,0.740211,-0.757751,3.143311,-1.770020,1.312256
8.874872,0.708327,0.106578,10.794353,0.772517,0.069007,0.732550,-2.410889,0.427246,-1.220703
8.884968,0.680186,0.305964,9.768087,0.744376,0.268392,-0.293716,2.166748,-1.708984,-4.119873
8.895062,0.601150,0.456251,10.006392,0.665340,0.418679,-0.055412,-2.197266,-1.983643,-9.887695
8.905157,-0.113763,1.037642,9.730964,-0.049573,1.000070,-0.330839,-3.112793,-1.068115,-9.002686
8.915252,-0.176633,0.648452,9.981244,-0.112442,0.610880,-0.080559,-5.310059,0.030518,-6.408691
8.925348,-0.118553,0.434097,10.057885,-0.054363,0.396525,-0.003919,-5.035400,-0.823975,-4.272461
8.935443,-0.281415,0.709525,9.776470,-0.217225,0.671953,-0.285334,-5.401611,0.335693,-3.326416
8.945538,-0.364043,0.559237,10.163864,-0.299853,0.521665,0.102061,-5.584717,1.495361,-0.671387
8.955634,-0.203577,0.722098,9.735754,-0.139386,0.684527,-0.326049,-5.615234,1.953125,0.854492
8.965729,-0.280816,0.656834,9.850117,-0.216626,0.619262,-0.211687,-8.483887,3.448486,3.875732
8.975825,-0.076042,0.209564,9.957294,-0.011852,0.171992,-0.104510,-7.843018,3.204346,4.272461
8.985920,-0.483794,0.857417,9.211844,-0.419604,0.819845,-0.849960,-5.584717,6.103516,5.859375
8.996014,0.831072,-0.152084,10.463242,0.895262,-0.189656,0.401438,-10.589600,6.011963,7.354736
9.006110,0.967588,-0.235909,11.064391,1.031778,-0.273481,1.002588,-10.375977,0.640869,4.119873
9.016205,0.752036,0.350870,9.783655,0.816226,0.313298,-0.278149,-8.789062,0.823975,-1.647949
9.026301,0.425715,0.173040,10.071656,0.489905,0.135468,0.009853,-10.375977,1.770020,-3.540039
9.036396,0.223336,0.502355,9.781859,0.287526,0.464783,-0.279945,-13.732910,3.906250,-3.997803
9.046491,0.144899,0.276026,10.060878,0.209089,0.238454,-0.000925,-14.587402,4.333496,-4.180908
9.056586,0.099393,0.285007,9.863289,0.163584,0.247435,-0.198514,-15.228271,4.669189,-4.028320
9.066681,0.059277,0.079634,10.047107,0.123467,0.042063,-0.014696,-17.089844,4.974365,-3.448486
9.076776,0.093406,0.058678,9.992620,0.157596,0.021106,-0.069183,-17.150879,4.821777,-4.180908
9.086871,0.113763,0.212558,9.899214,0.177954,0.174986,-0.162589,-18.524170,6.439209,-6.103516
9.096965,-0.094005,0.165256,10.136321,-0.029814,0.127684,0.074518,-19.134521,6.469727,-5.798340
9.107060,-0.149689,0.071252,10.026749,-0.085498,0.033680,-0.035054,-12.207031,2.929688,-4.516602
9.117155,-0.129930,-0.048499,10.421329,-0.065740,-0.086071,0.359525,-12.634277,2.288818,-3.631592
9.127250,-0.043709,-0.008383,9.954899,0.020481,-0.045954,-0.106905,-9.429932,1.281738,-2.319336
9.137344,-0.153880,-0.025746,10.168654,-0.089690,-0.063318,0.106851,-6.225586,0.244141,-2.197266
9.147440,-0.058079,-0.132924,10.256671,0.006111,-0.170495,0.194868,-5.706787,-0.457764,-1.800537
9.157534,-0.016166,-0.102387,10.072255,0.048024,-0.139959,0.010451,-2.593994,-0.640869,-1.770020
9.167628,0.148491,-0.021555,10.300979,0.212681,-0.059127,0.239176,-2.807617,-0.366211,-1.159668
9.177722,0.150287,0.023351,10.217752,0.214478,-0.014220,0.155949,0.427246,-0.854492,-0.213623
9.187817,0.214354,-0.019160,10.122550,0.278545,-0.056732,0.060747,1.770020,-0.732422,0.122070
9.197912,0.380209,-0.093406,10.030941,0.444400,-0.130978,-0.030863,2.441406,-0.854492,-1.129150
9.208007,0.360450,-0.250280,10.033336,0.424641,-0.287851,-0.028468,2.990723,-0.885010,-2.441406
9.218102,0.324525,-0.288600,10.009385,0.388715,-0.326172,-0.052418,2.899170,-0.946045,-3.967285
9.228197,-0.028740,0.125140,9.840536,0.035450,0.087568,-0.221267,2.563477,-1.159668,-5.615234
9.238292,0.054487,-0.068857,10.344688,0.118677,-0.106429,0.282885,1.312256,-0.976562,-5.401611
9.248387,-0.129331,-0.050295,10.181827,-0.065141,-0.087867,0.120023,3.387451,-0.976562,-4.425049
9.258482,0.005988,0.033530,10.118359,0.070178,-0.004042,0.056555,2.593994,-0.579834,-3.479004
9.268577,-0.069456,0.120350,10.081236,-0.005265,0.082778,0.019433,2.105713,0.000000,-3.570557
9.278672,-0.110171,-0.012574,10.098001,-0.045981,-0.050146,0.036198,2.349854,0.091553,-2.960205
9.288767,-0.266446,0.158071,10.173444,-0.202256,0.120499,0.111641,3.479004,0.213623,-1.647949
9.298863,-0.051493,0.099992,10.116563,0.012697,0.062420,0.054759,2.014160,0.610352,0.061035
9.308958,0.183818,0.186812,9.804611,0.248008,0.149240,-0.257192,1.190186,0.183105,-0.762939
9.319053,-0.043110,0.125739,10.157278,0.021080,0.088167,0.095474,-2.471924,1.373291,0.396729
9.329148,-0.172441,0.098196,9.958491,-0.108251,0.060624,-0.103312,-0.427246,1.403809,1.495361
9.339241,-0.203577,0.363444,9.983639,-0.139386,0.325872,-0.078164,-2.288818,1.617432,3.112793
9.349337,-0.108973,0.155676,9.954300,-0.044783,0.118104,-0.107503,-1.129150,1.342773,4.150391
9.359432,0.224533,-0.104183,10.121951,0.288723,-0.141755,0.060148,-5.249023,0.488281,0.762939
9.369527,-0.137714,0.020358,10.248289,-0.073523,-0.017214,0.186485,-5.645752,0.671387,0.579834
9.379622,0.232916,-0.266446,10.328522,0.297106,-0.304018,0.266718,-4.791260,-0.823975,-0.305176
9.389716,-0.210163,0.059875,10.055490,-0.145973,0.022304,-0.006314,-3.601074,-0.732422,1.190186
9.399811,0.059875,0.135917,10.147099,0.124066,0.098345,0.085296,-3.143311,-0.854492,2.441406
9.409905,0.847238,-0.454455,9.975855,0.911428,-0.492027,-0.085948,-2.380371,-1.007080,0.549316
9.420001,1.000519,-0.543071,10.197394,1.064710,-0.580643,0.135591,-0.457764,0.091553,-2.532959
9.430096,0.949625,-0.292192,10.169253,1.013816,-0.329764,0.107450,-0.274658,-0.061035,-10.864258
9.440191,0.494572,0.045505,9.929152,0.558762,0.007934,-0.132651,2.349854,-0.946045,-12.634277
9.450286,0.446072,-0.265248,10.086625,0.510263,-0.302820,0.024821,1.953125,-1.312256,-13.610840
9.460380,-0.373623,0.507145,10.022558,-0.309433,0.469574,-0.039245,2.349854,-1.861572,-14.404297
9.470475,-0.097597,0.037722,10.126741,-0.033407,0.000150,0.064938,0.244141,-2.166748,-11.749268
9.480570,-0.191602,0.146096,10.190808,-0.127411,0.108524,0.129005,-1.373291,-1.586914,-7.080078
9.490665,-0.385598,0.231718,9.899813,-0.321408,0.194146,-0.161990,-1.403809,-3.387451,-5.187988
9.500760,-0.086819,0.401765,9.902807,-0.022629,0.364193,-0.158996,-4.852295,-1.800537,-0.213623
9.510852,-0.116158,0.128732,10.083032,-0.051968,0.091160,0.021229,-3.143311,-1.739502,0.793457
9.520947,-0.016765,0.113165,9.981244,0.047425,0.075593,-0.080559,-2.349854,-1.647949,1.861572
9.531045,0.386796,-0.168250,10.005793,0.450986,-0.205822,-0.056011,-1.953125,-1.831055,2.410889
9.541141,0.396376,-0.123942,10.093810,0.460566,-0.161514,0.032006,-1.922607,-1.678467,1.373291
9.551236,0.526904,-0.091011,9.951306,0.591095,-0.128583,-0.110497,-1.525879,-1.647949,0.305176
9.561331,0.367037,-0.056283,9.992620,0.431227,-0.093855,-0.069183,-1.251221,-1.678467,0.061035
9.571427,0.465233,0.026345,9.833950,0.529423,-0.011227,-0.227853,-1.098633,-1.831055,0.000000
9.581522,0.634680,-0.164059,10.121951,0.698870,-0.201631,0.060148,-0.885010,-1.556396,-0.854492
9.591617,0.717907,-0.232317,10.068662,0.782097,-0.269889,0.006859,-0.640869,-1.831055,-2.227783
9.601712,0.558040,-0.148491,10.054891,0.622230,-0.186063,-0.006913,-0.732422,-2.166748,-5.218506
9.611806,0.579595,-0.170046,10.087822,0.643785,-0.207618,0.026019,-0.762939,-2.044678,-6.286621
9.621894,0.740660,-0.056283,10.030941,0.804850,-0.093855,-0.030863,0.030518,-1.861572,-7.781982
9.631983,0.852627,-0.080233,10.033336,0.916817,-0.117805,-0.028468,0.610352,-1.525879,-9.094238
9.642072,0.796344,-0.040715,10.053094,0.860534,-0.078287,-0.008709,0.732422,-1.251221,-12.115479
9.652160,0.624501,-0.011376,10.003997,0.688692,-0.048948,-0.057807,0.885010,-1.129150,-13.183594
9.662250,0.409548,-0.140109,10.090217,0.473739,-0.177681,0.028414,0.946045,-0.854492,-14.770508
9.672335,0.373024,-0.490380,10.177635,0.437215,-0.527952,0.115832,2.716064,-0.366211,-15.441895
9.682421,0.350870,-0.094005,10.197394,0.415061,-0.131576,0.135591,4.638672,-0.122070,-15.899658
9.692511,-0.044907,0.140707,10.085427,0.019284,0.103136,0.023624,1.678467,-0.488281,-13.183594
9.702600,-0.141306,0.085023,10.090217,-0.077116,0.047451,0.028414,1.373291,-0.640869,-11.383057
9.712687,-0.017364,0.123942,10.065070,0.046826,0.086370,0.003266,1.403809,-0.366211,-9.033203
9.722782,-0.047900,0.000599,10.130334,0.016290,-0.036973,0.068530,1.464844,-0.457764,-7.446289
9.732877,-0.067061,0.095801,10.181827,-0.002870,0.058229,0.120023,3.143311,-1.159668,-4.669189
9.742971,-0.173040,0.038320,10.059082,-0.108850,0.000748,-0.002721,3.967285,-1.281738,-3.692627
9.753068,-0.346679,0.298779,9.979448,-0.282489,0.261207,-0.082356,4.028320,-1.007080,-2.197266
9.763165,-0.169448,0.086221,9.977651,-0.105257,0.048649,-0.084152,2.014160,-0.549316,2.288818
9.773260,-0.128134,0.181423,10.177635,-0.063943,0.143851,0.115832,1.190186,-0.610352,2.990723
9.783357,-0.146695,0.260458,10.003997,-0.082505,0.222887,-0.057807,0.213623,-0.610352,5.462646
9.793453,-0.040117,0.210762,10.000404,0.024074,0.173190,-0.061399,-0.427246,-0.335693,7.049561
9.803549,0.116158,0.109572,9.991423,0.180349,0.072000,-0.070381,-2.014160,0.152588,7.690430
9.813644,0.471819,-0.144899,10.092612,0.536009,-0.182471,0.030809,-2.563477,0.427246,6.195068
9.823735,0.384999,-0.071851,10.029144,0.449190,-0.109422,-0.032659,-2.349854,0.183105,4.699707
9.833824,0.211360,-0.001198,10.075248,0.275551,-0.038769,0.013445,-3.540039,0.274658,3.723145
9.843915,0.244891,-0.025746,10.102791,0.309081,-0.063318,0.040988,-3.448486,0.366211,3.387451
9.854005,0.148491,0.019759,10.064471,0.212681,-0.017813,0.002667,-2.960205,0.610352,3.173828
9.864094,0.133522,-0.005988,10.080038,0.197713,-0.043559,0.018235,-2.624512,0.457764,3.509521
9.874183,0.208367,-0.091609,10.089619,0.272557,-0.129181,0.027815,-1.708984,0.213623,3.295898
9.884272,-0.052690,0.013771,10.044113,0.011500,-0.023801,-0.017690,-1.068115,0.091553,3.387451
9.894362,-0.211959,0.018561,10.057885,-0.147769,-0.019010,-0.003919,-1.403809,0.274658,4.089355
9.904451,-0.239502,-0.065863,10.186617,-0.175312,-0.103435,0.124813,-2.441406,0.305176,6.134033
9.914541,-0.235909,0.152084,9.971065,-0.171719,0.114512,-0.090738,-2.136230,0.305176,7.141113
9.924635,-0.229922,0.145497,10.024354,-0.165732,0.107926,-0.037449,-1.464844,0.183105,10.009766
9.934731,-0.097597,0.091011,10.015972,-0.033407,0.053439,-0.045832,-1.617432,-0.061035,11.169434
9.944827,0.013173,-0.043709,10.074051,0.077363,-0.081281,0.012248,-1.586914,-0.274658,10.925293
9.954922,-0.006586,-0.076042,10.073452,0.057604,-0.113614,0.011649,-1.525879,-0.122070,10.437012
9.965018,-0.005389,-0.065264,10.069860,0.058801,-0.102836,0.008056,-1.220703,-0.183105,9.338379
9.975114,-0.040715,-0.099393,10.045311,0.023475,-0.136965,-0.016493,-0.823975,-0.091553,8.911133
9.985209,-0.056283,-0.138911,10.104587,0.007907,-0.176483,0.042784,-1.007080,-0.061035,8.300781
9.995305,-0.010179,-0.077239,10.046508,0.054011,-0.114811,-0.015295,-0.610352,-0.030518,7.507324
10.005401,0.080233,-0.004191,10.064471,0.144423,-0.041763,0.002667,-0.915527,0.000000,7.232666
10.015496,0.263452,-0.025746,10.034533,0.327642,-0.063318,-0.027270,-2.197266,-0.122070,5.798340
10.025585,0.332309,-0.110171,10.054292,0.396499,-0.147743,-0.007511,-3.082275,-0.366211,4.699707
10.035674,0.302970,-0.111967,10.053094,0.367160,-0.149539,-0.008709,-4.211426,-0.915527,2.044678
10.045763,0.340093,-0.131127,10.065070,0.404283,-0.168699,0.003266,-4.547119,-1.068115,1.037598
10.055851,0.334105,-0.151485,10.069860,0.398295,-0.189057,0.008056,-4.577637,-1.159668,0.091553
10.065940,0.267643,-0.213157,10.068662,0.331834,-0.250729,0.006859,-4.455566,-1.251221,-1.678467
10.076028,0.234712,-0.222138,10.077643,0.298902,-0.259710,0.015840,-4.211426,-1.190186,-2.563477
10.086116,0.171244,-0.180225,10.082433,0.235434,-0.217797,0.020630,-3.356934,-1.068115,-3.387451
10.096204,0.182021,-0.161065,10.080038,0.246212,-0.198637,0.018235,-2.685547,-0.915527,-3.295898
10.106292,0.221539,-0.117356,10.065668,0.285730,-0.154928,0.003865,-1.190186,-0.579834,-2.563477
10.116381,0.355660,-0.122745,10.065070,0.419851,-0.160317,0.003266,-0.549316,-0.396729,-2.380371
10.126472,0.338895,-0.126337,10.062076,0.403086,-0.163909,0.000272,0.061035,-0.183105,-2.258301
10.136568,0.250878,-0.128134,10.065070,0.315069,-0.165705,0.003266,1.007080,0.061035,-1.953125
10.146662,0.215552,-0.128134,10.063273,0.279742,-0.165705,0.001470,1.281738,0.152588,-1.770020
10.156757,0.222737,-0.127535,10.063872,0.286927,-0.165107,0.002069,1.800537,0.305176,-1.281738
10.166853,0.207169,-0.117356,10.062076,0.271359,-0.154928,0.000272,2.105713,0.427246,-1.007080
10.176948,0.173639,-0.109572,10.060878,0.237829,-0.147144,-0.000925,2.380371,0.518799,-0.549316
10.187042,0.108973,-0.094005,10.059681,0.173164,-0.131576,-0.002123,2.197266,0.488281,-0.396729
10.197137,0.082628,-0.082628,10.066866,0.146818,-0.120200,0.005062,2.075195,0.518799,-0.183105
10.207231,0.042512,-0.071851,10.066267,0.106702,-0.109422,0.004464,1.861572,0.518799,0.762939
10.217326,0.037123,-0.081431,10.061477,0.101313,-0.119003,-0.000326,1.770020,0.518799,1.159668
10.227420,0.019160,-0.083227,10.063872,0.083350,-0.120799,0.002069,1.403809,0.427246,1.800537
10.237515,0.016166,-0.082628,10.067465,0.080357,-0.120200,0.005661,1.159668,0.396729,2.044678
10.247610,0.016765,-0.098795,10.071057,0.080955,-0.136366,0.009254,0.640869,0.305176,2.380371
10.257704,0.004191,-0.047900,10.064471,0.068382,-0.085472,0.002667,0.305176,0.213623,2.655029
10.267800,0.002395,-0.042512,10.056687,0.066585,-0.080083,-0.005116,-0.488281,0.061035,3.356934
10.277894,0.010778,-0.062271,10.059082,0.074968,-0.099842,-0.002721,-0.885010,-0.030518,3.692627
10.287989,0.008383,-0.074844,10.069261,0.072573,-0.112416,0.007457,-1.129150,-0.061035,3.845215
10.298084,0.023351,-0.125739,10.069261,0.087542,-0.163310,0.007457,-1.098633,-0.061035,3.753662
10.308178,0.024549,-0.137115,10.074650,0.088739,-0.174687,0.012846,-0.823975,0.000000,3.479004
10.318274,0.028141,-0.145497,10.074650,0.092332,-0.183069,0.012846,0.488281,0.274658,3.051758
10.328369,0.027543,-0.137115,10.065668,0.091733,-0.174687,0.003865,1.129150,0.457764,2.716064
10.338464,0.016166,-0.119751,10.065668,0.080357,-0.157323,0.003865,2.105713,0.640869,2.136230
10.348559,0.004191,-0.091011,10.059681,0.068382,-0.128583,-0.002123,2.380371,0.701904,1.922607
10.358653,-0.002994,-0.052690,10.053693,0.061196,-0.090262,-0.008110,2.410889,0.701904,1.647949
10.368747,-0.005988,-0.061073,10.048304,0.058203,-0.098645,-0.013499,1.556396,0.457764,1.068115
10.378843,-0.003593,-0.059875,10.048903,0.060598,-0.097447,-0.012900,1.220703,0.366211,0.854492
10.388941,-0.011975,-0.062271,10.060280,0.052215,-0.099842,-0.001524,0.793457,0.244141,0.488281
10.399037,-0.004191,-0.061073,10.060280,0.059999,-0.098645,-0.001524,0.640869,0.213623,0.366211
10.409132,-0.008981,-0.058678,10.056687,0.055209,-0.096250,-0.005116,0.427246,0.152588,0.091553
10.419227,-0.004790,-0.052092,10.058483,0.059400,-0.089664,-0.003320,0.366211,0.152588,0.000000
10.429316,-0.005988,-0.049098,10.051897,0.058203,-0.086670,-0.009906,0.305176,0.122070,-0.122070
10.439403,-0.006586,-0.059875,10.062675,0.057604,-0.097447,0.000871,0.213623,0.091553,-0.366211
10.449492,-0.000599,-0.062271,10.066267,0.063592,-0.099842,0.004464,0.122070,0.030518,-0.427246
10.459580,-0.001198,-0.071851,10.060878,0.062993,-0.109422,-0.000925,0.091553,0.030518,-0.488281
10.469669,-0.001198,-0.074246,10.058483,0.062993,-0.111817,-0.003320,0.061035,0.030518,-0.457764
10.479758,0.000599,-0.070653,10.059082,0.064789,-0.108225,-0.002721,0.000000,0.030518,-0.366211
10.489846,0.003593,-0.067659,10.062675,0.067783,-0.105231,0.000871,0.000000,0.030518,-0.335693
10.499934,0.001198,-0.068258,10.062675,0.065388,-0.105830,0.000871,0.030518,0.000000,-0.335693
10.510023,-0.000599,-0.071252,10.056088,0.063592,-0.108824,-0.005715,0.030518,0.030518,-0.213623
10.520111,-0.002994,-0.068857,10.059082,0.061196,-0.106429,-0.002721,0.000000,0.030518,-0.183105
10.530203,-0.001198,-0.061073,10.054292,0.062993,-0.098645,-0.007511,0.030518,0.091553,-0.183105
10.540298,-0.002994,-0.061073,10.055490,0.061196,-0.098645,-0.006314,0.091553,0.091553,-0.274658
10.550392,-0.011376,-0.063468,10.058483,0.052814,-0.101040,-0.003320,0.091553,0.091553,-0.488281
10.560487,-0.013173,-0.058678,10.057286,0.051018,-0.096250,-0.004518,0.122070,0.091553,-0.610352
10.570582,-0.015568,-0.057480,10.053094,0.048623,-0.095052,-0.008709,0.122070,0.061035,-0.701904
10.580676,-0.008981,-0.060474,10.062076,0.055209,-0.098046,0.000272,0.122070,0.030518,-0.762939
10.590772,-0.003593,-0.060474,10.065668,0.060598,-0.098046,0.003865,0.061035,0.000000,-0.793457
10.600867,-0.004790,-0.065264,10.057885,0.059400,-0.102836,-0.003919,-0.030518,-0.061035,-0.823975
10.610962,-0.007185,-0.067659,10.059082,0.057005,-0.105231,-0.002721,-0.030518,-0.061035,-0.762939
10.621057,-0.004191,-0.076042,10.062675,0.059999,-0.113614,0.000871,-0.091553,0.000000,-0.762939
10.631152,-0.008383,-0.074844,10.064471,0.055808,-0.112416,0.002667,-0.122070,0.000000,-0.732422
10.641247,-0.013173,-0.068258,10.069860,0.051018,-0.105830,0.008056,-0.061035,-0.061035,-0.732422
10.651343,-0.011975,-0.065863,10.072255,0.052215,-0.103435,0.010451,-0.091553,-0.061035,-0.701904
10.661438,-0.014370,-0.066462,10.068063,0.049820,-0.104034,0.006260,-0.091553,-0.030518,-0.640869
10.671532,-0.008383,-0.064666,10.059082,0.055808,-0.102237,-0.002721,-0.061035,-0.030518,-0.579834
10.681625,-0.009580,-0.061672,10.062076,0.054610,-0.099244,0.000272,-0.091553,-0.030518,-0.610352
10.691720,0.006586,-0.052690,10.071057,0.070777,-0.090262,0.009254,-0.091553,-0.091553,-0.701904
10.701817,0.010778,-0.051493,10.076446,0.074968,-0.089065,0.014643,-0.122070,-0.091553,-0.762939
10.711911,0.005389,-0.061073,10.066866,0.069579,-0.098645,0.005062,-0.183105,-0.091553,-0.793457
10.722006,-0.011975,-0.072449,10.055490,0.052215,-0.110021,-0.006314,-0.152588,-0.091553,-0.762939
10.732100,-0.016166,-0.071851,10.057885,0.048024,-0.109422,-0.003919,-0.122070,-0.061035,-0.732422
10.742195,-0.016765,-0.070653,10.062675,0.047425,-0.108225,0.000871,-0.152588,-0.061035,-0.610352
10.752293,-0.011975,-0.067659,10.061477,0.052215,-0.105231,-0.000326,-0.152588,-0.061035,-0.549316
10.762388,-0.001198,-0.060474,10.059681,0.062993,-0.098046,-0.002123,-0.183105,-0.030518,-0.457764
10.772484,0.000599,-0.043110,10.056088,0.064789,-0.080682,-0.005715,-0.244141,-0.061035,-0.396729
10.782580,0.005389,-0.025148,10.054292,0.069579,-0.062720,-0.007511,-0.915527,-0.183105,-0.274658
10.792675,0.005988,-0.034129,10.054292,0.070178,-0.071701,-0.007511,-1.251221,-0.274658,-0.305176
10.802772,-0.004790,-0.057480,10.053693,0.059400,-0.095052,-0.008110,-1.861572,-0.396729,-0.335693
10.812868,-0.003593,-0.092807,10.060280,0.060598,-0.130379,-0.001524,-1.922607,-0.366211,-0.366211
10.822964,-0.004790,-0.098795,10.066267,0.059400,-0.136366,0.004464,-1.770020,-0.366211,-0.396729
10.833060,0.000000,-0.110770,10.072853,0.064190,-0.148342,0.011050,-1.281738,-0.213623,-0.366211
10.843155,-0.001796,-0.105980,10.072255,0.062394,-0.143551,0.010451,-1.007080,-0.152588,-0.366211
10.853250,0.007185,-0.103585,10.068063,0.071375,-0.141156,0.006260,-0.518799,-0.061035,-0.305176
10.863347,0.001198,-0.096400,10.063273,0.065388,-0.133971,0.001470,-0.366211,-0.030518,-0.305176
10.873440,0.008383,-0.093406,10.065070,0.072573,-0.130978,0.003266,-0.305176,0.000000,-0.244141
10.883536,0.008981,-0.085622,10.066866,0.073172,-0.123194,0.005062,-0.366211,0.000000,-0.274658
10.893631,0.004790,-0.077239,10.070458,0.068980,-0.114811,0.008655,-0.518799,-0.061035,-0.305176
10.903727,0.007185,-0.080832,10.066267,0.071375,-0.118404,0.004464,-0.946045,-0.183105,-0.274658
10.913822,0.005988,-0.082029,10.068662,0.070178,-0.119601,0.006859,-1.068115,-0.244141,-0.274658
10.923917,0.005389,-0.095202,10.064471,0.069579,-0.132774,0.002667,-1.190186,-0.274658,-0.305176
10.934013,0.008981,-0.092807,10.071057,0.073172,-0.130379,0.009254,-1.159668,-0.274658,-0.366211
10.944108,0.009580,-0.096998,10.069261,0.073770,-0.134570,0.007457,-1.129150,-0.274658,-0.457764
10.954203,0.001796,-0.097597,10.071057,0.065987,-0.135169,0.009254,-1.068115,-0.274658,-0.518799
10.964298,0.004191,-0.091011,10.065668,0.068382,-0.128583,0.003865,-1.098633,-0.305176,-0.549316
10.974395,-0.002994,-0.098795,10.066267,0.061196,-0.136366,0.004464,-1.220703,-0.335693,-0.640869
10.984489,0.005988,-0.102387,10.065668,0.070178,-0.139959,0.003865,-1.220703,-0.305176,-0.671387
10.994585,0.008981,-0.116757,10.068662,0.073172,-0.154329,0.006859,-1.312256,-0.335693,-0.762939
11.004680,0.016166,-0.136516,10.072255,0.080357,-0.174088,0.010451,-1.129150,-0.305176,-0.732422
11.014777,0.019160,-0.143701,10.069261,0.083350,-0.181273,0.007457,-0.396729,-0.091553,-0.579834
11.024873,0.014370,-0.137115,10.063273,0.078560,-0.174687,0.001470,-0.061035,-0.030518,-0.488281
11.034968,0.014969,-0.126936,10.060878,0.079159,-0.164508,-0.000925,0.091553,0.000000,-0.427246
11.045064,0.010778,-0.126337,10.071656,0.074968,-0.163909,0.009853,0.366211,0.061035,-0.366211
11.055161,0.008383,-0.131726,10.071057,0.072573,-0.169298,0.009254,0.518799,0.122070,-0.366211
11.065256,-0.002395,-0.111967,10.055490,0.061795,-0.149539,-0.006314,0.488281,0.122070,-0.305176
11.075353,-0.005389,-0.094005,10.050699,0.058801,-0.131576,-0.011104,0.274658,0.122070,-0.274658
11.085449,-0.004790,-0.090412,10.058483,0.059400,-0.127984,-0.003320,-0.335693,-0.030518,-0.244141
11.095544,-0.008383,-0.092208,10.063872,0.055808,-0.129780,0.002069,-0.518799,-0.061035,-0.213623
11.105639,0.003593,-0.092208,10.066866,0.067783,-0.129780,0.005062,-0.885010,-0.183105,-0.335693
11.115735,0.010778,-0.095801,10.062675,0.074968,-0.133373,0.000871,-0.976562,-0.213623,-0.396729
11.125830,0.004790,-0.102986,10.059681,0.068980,-0.140558,-0.002123,-1.037598,-0.213623,-0.549316
11.135921,0.008981,-0.118553,10.064471,0.073172,-0.156125,0.002667,-1.068115,-0.244141,-0.671387
11.146011,0.011376,-0.099992,10.067465,0.075567,-0.137564,0.005661,-1.068115,-0.274658,-0.701904
11.156099,0.007784,-0.105381,10.065668,0.071974,-0.142953,0.003865,-1.464844,-0.366211,-0.701904
11.166188,0.016765,-0.107177,10.064471,0.080955,-0.144749,0.002667,-1.708984,-0.396729,-0.732422
11.176277,0.016166,-0.109572,10.063273,0.080357,-0.147144,0.001470,-2.319336,-0.549316,-0.671387
11.186365,0.013173,-0.109572,10.062675,0.077363,-0.147144,0.000871,-2.807617,-0.610352,-0.610352
11.196454,0.018561,-0.150886,10.076446,0.082752,-0.188458,0.014643,-3.173828,-0.732422,-0.610352
11.206543,0.019759,-0.167651,10.073452,0.083949,-0.205223,0.011649,-2.471924,-0.640869,-0.549316
11.216632,0.016765,-0.164059,10.066267,0.080955,-0.201631,0.004464,-2.105713,-0.579834,-0.518799
11.226720,0.014969,-0.156874,10.063273,0.079159,-0.194446,0.001470,-1.525879,-0.488281,-0.549316
11.236819,0.014370,-0.149090,10.067465,0.078560,-0.186662,0.005661,-1.342773,-0.427246,-0.579834
11.246916,0.011376,-0.144899,10.062675,0.075567,-0.182471,0.000871,-1.159668,-0.366211,-0.732422
11.257012,0.001796,-0.141306,10.060280,0.065987,-0.178878,-0.001524,-1.190186,-0.396729,-0.793457
11.267108,0.002994,-0.144300,10.057885,0.067184,-0.181872,-0.003919,-1.373291,-0.488281,-0.885010
11.277204,0.008981,-0.162861,10.060878,0.073172,-0.200433,-0.000925,-1.617432,-0.610352,-0.946045
11.287301,0.016765,-0.168849,10.071057,0.080955,-0.206421,0.009254,-1.647949,-0.610352,-0.885010
11.297410,0.020956,-0.176633,10.063872,0.085147,-0.214205,0.002069,-1.678467,-0.610352,-0.762939
11.307506,0.018561,-0.171843,10.059082,0.082752,-0.209415,-0.002721,-1.617432,-0.610352,-0.701904
11.317602,0.018561,-0.173040,10.053693,0.082752,-0.210612,-0.008110,-1.586914,-0.610352,-0.579834
11.327698,0.023950,-0.177231,10.048903,0.088140,-0.214803,-0.012900,-1.525879,-0.579834,-0.549316
11.337787,0.029938,-0.185015,10.057286,0.094128,-0.222587,-0.004518,-1.464844,-0.579834,-0.518799
11.347878,0.039518,-0.191003,10.056687,0.103708,-0.228575,-0.005116,-1.068115,-0.396729,-0.396729
11.357967,0.041314,-0.191003,10.054292,0.105504,-0.228575,-0.007511,-0.946045,-0.335693,-0.305176
11.368056,0.036524,-0.205373,10.050699,0.100714,-0.242945,-0.011104,-0.457764,-0.183105,-0.183105
11.378145,0.025746,-0.185614,10.060280,0.089937,-0.223186,-0.001524,-0.335693,-0.091553,-0.122070
11.388234,0.026944,-0.183219,10.063872,0.091134,-0.220791,0.002069,-0.396729,-0.152588,-0.061035
11.398322,0.031734,-0.192200,10.060280,0.095924,-0.229772,-0.001524,-0.396729,-0.122070,-0.061035
11.408412,0.034728,-0.196392,10.060280,0.098918,-0.233963,-0.001524,-0.396729,-0.122070,0.061035
11.418501,0.029938,-0.195793,10.051298,0.094128,-0.233365,-0.010505,-0.427246,-0.091553,0.091553
11.428590,0.028141,-0.191003,10.049502,0.092332,-0.228575,-0.012301,-0.457764,-0.122070,0.091553
11.438681,0.038919,-0.213755,10.048304,0.103109,-0.251327,-0.013499,-0.244141,-0.061035,0.061035
11.448776,0.041913,-0.209564,10.048903,0.106103,-0.247136,-0.012900,0.091553,0.030518,0.061035
11.458872,0.032333,-0.207169,10.053094,0.096523,-0.244741,-0.008709,0.732422,0.244141,0.030518
11.468967,0.040117,-0.201182,10.054292,0.104307,-0.238754,-0.007511,1.007080,0.396729,0.000000
11.479063,0.037123,-0.201182,10.052496,0.101313,-0.238754,-0.009308,1.464844,0.610352,-0.030518
11.489159,0.034129,-0.181423,10.059082,0.098319,-0.218995,-0.002721,1.495361,0.610352,-0.030518
11.499254,0.026345,-0.167651,10.060280,0.090535,-0.205223,-0.001524,1.464844,0.579834,-0.122070
11.509349,0.023950,-0.161664,10.057885,0.088140,-0.199236,-0.003919,1.495361,0.549316,-0.427246
11.519444,0.019160,-0.161065,10.056088,0.083350,-0.198637,-0.005715,1.495361,0.549316,-0.640869
11.529540,0.007185,-0.154479,10.060280,0.071375,-0.192051,-0.001524,1.281738,0.488281,-1.037598
11.539635,0.019759,-0.143701,10.061477,0.083949,-0.181273,-0.000326,1.190186,0.457764,-1.220703
11.549731,0.022154,-0.134121,10.064471,0.086344,-0.171693,0.002667,0.762939,0.274658,-1.495361
11.559824,0.009580,-0.145497,10.051298,0.073770,-0.183069,-0.010505,0.579834,0.183105,-1.586914
