time,ax_raw,ay_raw,az_raw,ax,ay,az,gx,gy,gz
0.000710,0.068258,-0.319136,10.050699,0.009764,-0.001647,-0.003526,0.061035,0.061035,0.030518
0.010803,0.064666,-0.322729,10.051897,0.006172,-0.005240,-0.002328,0.061035,0.061035,0.030518
0.020869,0.060474,-0.326321,10.048304,0.001980,-0.008832,-0.005921,0.091553,0.000000,0.030518
0.030936,0.059875,-0.323926,10.047706,0.001382,-0.006437,-0.006520,0.091553,-0.030518,0.000000
0.041002,0.052092,-0.316143,10.051298,-0.006402,0.001346,-0.002927,0.061035,0.000000,0.030518
0.051068,0.050295,-0.314346,10.053094,-0.008198,0.003143,-0.001131,0.061035,0.000000,0.000000
0.061134,0.053888,-0.312550,10.056088,-0.004606,0.004939,0.001863,0.030518,0.030518,0.000000
0.071201,0.064067,-0.311951,10.051897,0.005573,0.005538,-0.002328,0.030518,0.030518,0.030518
0.081303,0.062271,-0.314346,10.051897,0.003777,0.003143,-0.002328,0.061035,0.030518,0.030518
0.091369,0.060474,-0.319735,10.047706,0.001980,-0.002246,-0.006520,0.091553,0.061035,0.000000
0.101433,0.066462,-0.327519,10.054292,0.007968,-0.010030,0.000067,0.091553,0.061035,0.030518
0.111497,0.056882,-0.319735,10.053693,-0.001612,-0.002246,-0.000532,0.091553,0.061035,0.030518
0.121562,0.059875,-0.316143,10.050699,0.001382,0.001346,-0.003526,0.091553,0.061035,0.030518
0.131627,0.062271,-0.314945,10.050699,0.003777,0.002544,-0.003526,0.030518,0.030518,0.061035
0.141693,0.058079,-0.317939,10.048304,-0.000415,-0.000450,-0.005921,0.030518,0.030518,0.061035
0.151758,0.055684,-0.316143,10.056687,-0.002810,0.001346,0.002462,0.000000,0.030518,0.061035
0.161824,0.055684,-0.314346,10.068063,-0.002810,0.003143,0.013838,0.030518,0.000000,0.030518
0.171889,0.056882,-0.315544,10.066866,-0.001612,0.001945,0.012640,0.030518,-0.030518,0.030518
0.181954,0.052690,-0.311353,10.054891,-0.005803,0.006136,0.000665,0.000000,0.000000,0.030518
0.192019,0.058079,-0.313149,10.049502,-0.000415,0.004340,-0.004723,-0.030518,0.000000,0.030518
0.202085,0.058079,-0.314945,10.047107,-0.000415,0.002544,-0.007118,-0.061035,0.000000,0.030518
0.212149,0.056283,-0.317340,10.057885,-0.002211,0.000149,0.003659,-0.061035,0.000000,0.061035
0.222215,0.054487,-0.310754,10.057885,-0.004007,0.006735,0.003659,-0.030518,0.000000,0.061035
0.232280,0.053289,-0.316143,10.059681,-0.005205,0.001346,0.005455,0.000000,-0.061035,0.061035
0.242352,0.050894,-0.319735,10.056687,-0.007600,-0.002246,0.002462,0.000000,-0.061035,0.061035
0.252419,0.055684,-0.313149,10.057286,-0.002810,0.004340,0.003060,0.000000,-0.061035,0.061035
0.262484,0.048499,-0.319136,10.062675,-0.009995,-0.001647,0.008449,0.030518,-0.030518,0.091553
0.272549,0.049697,-0.319136,10.053693,-0.008797,-0.001647,-0.000532,0.000000,0.000000,0.061035
0.282617,0.046703,-0.319735,10.056687,-0.011791,-0.002246,0.002462,0.000000,0.000000,0.061035
0.292681,0.043709,-0.320933,10.052496,-0.014785,-0.003444,-0.001730,0.000000,0.030518,0.061035
0.302747,0.055684,-0.327519,10.054891,-0.002810,-0.010030,0.000665,0.030518,0.030518,0.030518
0.312813,0.054487,-0.326321,10.056687,-0.004007,-0.008832,0.002462,0.030518,0.030518,0.061035
0.322878,0.051493,-0.326920,10.053693,-0.007001,-0.009431,-0.000532,0.030518,0.000000,0.030518
0.332944,0.052690,-0.327519,10.049502,-0.005803,-0.010030,-0.004723,0.061035,0.000000,0.030518
0.343010,0.058079,-0.326920,10.051897,-0.000415,-0.009431,-0.002328,0.061035,-0.030518,0.061035
0.353076,0.052690,-0.323926,10.055490,-0.005803,-0.006437,0.001264,0.030518,-0.030518,0.061035
0.363141,0.050894,-0.319136,10.054891,-0.007600,-0.001647,0.000665,0.000000,0.000000,0.061035
0.373222,0.050295,-0.315544,10.064471,-0.008198,0.001945,0.010245,0.000000,0.000000,0.030518
0.383343,0.047900,-0.312550,10.055490,-0.010593,0.004939,0.001264,0.000000,0.000000,0.030518
0.393440,0.044308,-0.308958,10.054891,-0.014186,0.008532,0.000665,0.000000,0.030518,0.030518
0.403547,0.043110,-0.311353,10.064471,-0.015384,0.006136,0.010245,0.030518,0.030518,0.030518
0.413761,0.049697,-0.313748,10.058483,-0.008797,0.003741,0.004258,0.030518,-0.030518,0.030518
0.423843,0.055085,-0.313748,10.060878,-0.003408,0.003741,0.006653,0.030518,-0.030518,0.000000
0.433910,0.054487,-0.310754,10.060280,-0.004007,0.006735,0.006054,0.091553,-0.030518,0.030518
0.443977,0.051493,-0.312550,10.056687,-0.007001,0.004939,0.002462,0.091553,0.000000,0.000000
0.454042,0.050295,-0.313748,10.053693,-0.008198,0.003741,-0.000532,0.091553,0.030518,0.000000
0.464108,0.047900,-0.308958,10.057885,-0.010593,0.008532,0.003659,0.061035,0.000000,0.030518
0.474174,0.055085,-0.309556,10.050699,-0.003408,0.007933,-0.003526,0.030518,0.000000,0.000000
0.484263,0.049697,-0.313149,10.046508,-0.008797,0.004340,-0.007717,0.091553,0.000000,0.061035
0.494353,0.052690,-0.315544,10.051897,-0.005803,0.001945,-0.002328,0.091553,0.030518,0.030518
0.504419,0.046703,-0.316143,10.054292,-0.011791,0.001346,0.000067,0.030518,0.061035,0.000000
0.514486,0.052092,-0.311951,10.056687,-0.006402,0.005538,0.002462,0.091553,0.000000,0.030518
0.524551,0.049697,-0.310155,10.060280,-0.008797,0.007334,0.006054,0.091553,0.030518,0.000000
0.534617,0.057480,-0.305365,10.065668,-0.001013,0.012124,0.011443,0.061035,0.030518,0.030518
0.544683,0.055684,-0.306563,10.064471,-0.002810,0.010927,0.010245,0.061035,0.030518,0.030518
0.554749,0.054487,-0.305365,10.062076,-0.004007,0.012124,0.007850,0.061035,0.030518,0.061035
0.564830,0.052690,-0.307760,10.058483,-0.005803,0.009729,0.004258,0.030518,0.030518,0.030518
0.574923,0.052092,-0.308359,10.064471,-0.006402,0.009130,0.010245,0.061035,0.000000,0.091553
0.584990,0.044308,-0.311353,10.060280,-0.014186,0.006136,0.006054,0.061035,0.000000,0.061035
0.595056,0.046104,-0.311353,10.054292,-0.012390,0.006136,0.000067,0.061035,0.000000,0.030518
0.605122,0.049697,-0.305365,10.059681,-0.008797,0.012124,0.005455,0.061035,-0.030518,0.000000
0.615188,0.053289,-0.308958,10.057885,-0.005205,0.008532,0.003659,0.091553,-0.030518,0.030518
0.625255,0.052092,-0.316741,10.059082,-0.006402,0.000748,0.004857,0.122070,-0.030518,0.030518
0.635320,0.057480,-0.320334,10.056088,-0.001013,-0.002845,0.001863,0.122070,-0.030518,0.030518
0.645397,0.060474,-0.324525,10.061477,0.001980,-0.007036,0.007252,0.122070,-0.030518,0.000000
0.655466,0.063468,-0.321531,10.062675,0.004974,-0.004042,0.008449,0.122070,0.000000,0.061035
0.665531,0.056882,-0.324525,10.066267,-0.001612,-0.007036,0.012042,0.122070,0.000000,0.030518
0.675596,0.056882,-0.324525,10.060280,-0.001612,-0.007036,0.006054,0.061035,-0.030518,0.061035
0.685667,0.052690,-0.319735,10.059082,-0.005803,-0.002246,0.004857,0.091553,-0.030518,0.061035
0.695732,0.042512,-0.304766,10.059681,-0.015982,0.012723,0.005455,0.091553,0.000000,0.061035
0.705798,0.041913,-0.311951,10.057286,-0.016581,0.005538,0.003060,0.091553,-0.030518,0.030518
0.715864,0.037722,-0.309556,10.057885,-0.020772,0.007933,0.003659,0.091553,0.000000,0.000000
0.725930,0.037123,-0.304167,10.054292,-0.021371,0.013322,0.000067,0.122070,0.000000,0.030518
0.736014,0.040117,-0.304766,10.056687,-0.018377,0.012723,0.002462,0.091553,0.000000,0.030518
0.746079,0.050894,-0.310754,10.058483,-0.007600,0.006735,0.004258,0.061035,0.030518,0.030518
0.756144,0.060474,-0.311353,10.062076,0.001980,0.006136,0.007850,0.061035,0.000000,0.030518
0.766209,0.066462,-0.317939,10.063273,0.007968,-0.000450,0.009048,0.030518,0.030518,0.000000
0.776275,0.065863,-0.316741,10.068063,0.007369,0.000748,0.013838,0.030518,0.030518,0.000000
0.786340,0.071252,-0.320334,10.067465,0.012758,-0.002845,0.013239,0.000000,0.030518,0.030518
0.796406,0.067659,-0.313748,10.058483,0.009165,0.003741,0.004258,0.030518,0.000000,0.061035
0.806471,0.064067,-0.313748,10.061477,0.005573,0.003741,0.007252,0.030518,0.030518,0.061035
0.816537,0.059277,-0.316741,10.058483,0.000783,0.000748,0.004258,0.030518,0.000000,0.061035
0.826603,0.059277,-0.308359,10.056687,0.000783,0.009130,0.002462,0.030518,0.030518,0.061035
0.836674,0.055085,-0.309556,10.053693,-0.003408,0.007933,-0.000532,0.061035,0.030518,0.061035
0.846740,0.049697,-0.313748,10.053693,-0.008797,0.003741,-0.000532,0.061035,0.030518,0.061035
0.856806,0.046703,-0.310754,10.056687,-0.011791,0.006735,0.002462,0.061035,0.000000,0.030518
0.866872,0.046104,-0.314346,10.056088,-0.012390,0.003143,0.001863,0.061035,0.000000,0.061035
0.876937,0.050894,-0.315544,10.061477,-0.007600,0.001945,0.007252,0.061035,0.000000,0.030518
0.887008,0.053289,-0.318538,10.056088,-0.005205,-0.001049,0.001863,0.061035,0.000000,0.030518
0.897072,0.056283,-0.322130,10.057286,-0.002211,-0.004641,0.003060,0.061035,0.000000,0.061035
0.907138,0.056882,-0.316143,10.066866,-0.001612,0.001346,0.012640,0.000000,0.000000,0.061035
0.917202,0.053888,-0.318538,10.063872,-0.004606,-0.001049,0.009647,0.000000,0.000000,0.091553
0.927268,0.052092,-0.319735,10.060878,-0.006402,-0.002246,0.006653,0.061035,0.000000,0.091553
0.937334,0.044907,-0.311951,10.048903,-0.013587,0.005538,-0.005322,0.061035,0.000000,0.091553
0.947430,0.040117,-0.307161,10.050101,-0.018377,0.010328,-0.004125,0.061035,0.030518,0.061035
0.957496,0.046104,-0.311951,10.058483,-0.012390,0.005538,0.004258,0.030518,0.000000,0.030518
0.967562,0.052092,-0.310155,10.058483,-0.006402,0.007334,0.004258,0.061035,0.000000,0.000000
0.977627,0.064067,-0.316741,10.058483,0.005573,0.000748,0.004258,0.061035,-0.030518,0.030518
0.987693,0.064067,-0.317939,10.054292,0.005573,-0.000450,0.000067,0.061035,-0.030518,0.061035
0.997759,0.064666,-0.325723,10.056088,0.006172,-0.008234,0.001863,0.091553,-0.030518,0.000000
1.007825,0.058079,-0.320933,10.063273,-0.000415,-0.003444,0.009048,0.091553,-0.030518,0.030518
1.017890,0.059875,-0.320933,10.062675,0.001382,-0.003444,0.008449,0.061035,0.000000,0.030518
1.027956,0.056283,-0.316143,10.056088,-0.002211,0.001346,0.001863,0.061035,-0.030518,0.030518
1.038020,0.055085,-0.308958,10.058483,-0.003408,0.008532,0.004258,0.091553,0.000000,0.061035
1.048085,0.052690,-0.304167,10.060878,-0.005803,0.013322,0.006653,0.030518,0.030518,0.030518
1.058151,0.050295,-0.304766,10.060878,-0.008198,0.012723,0.006653,0.030518,0.000000,0.030518
1.068216,0.048499,-0.298779,10.060280,-0.009995,0.018710,0.006054,0.030518,0.000000,0.061035
1.078283,0.046104,-0.300575,10.046508,-0.012390,0.016914,-0.007717,0.061035,0.000000,0.030518
1.088354,0.041314,-0.301174,10.045311,-0.017180,0.016315,-0.008915,0.091553,0.000000,0.000000
1.098419,0.049697,-0.304167,10.045909,-0.008797,0.013322,-0.008316,0.061035,0.030518,0.000000
1.108484,0.055684,-0.302970,10.051298,-0.002810,0.014519,-0.002927,0.030518,0.030518,0.000000
1.118550,0.068857,-0.311353,10.056088,0.010363,0.006136,0.001863,0.030518,0.061035,0.000000
1.128616,0.065863,-0.313149,10.049502,0.007369,0.004340,-0.004723,0.061035,0.030518,0.030518
1.138681,0.066462,-0.311951,10.048903,0.007968,0.005538,-0.005322,0.091553,0.030518,0.061035
1.148747,0.061073,-0.307760,10.047706,0.002579,0.009729,-0.006520,0.091553,0.030518,0.091553
1.158813,0.059875,-0.304766,10.053094,0.001382,0.012723,-0.001131,0.061035,0.030518,0.091553
1.168878,0.060474,-0.301174,10.048903,0.001980,0.016315,-0.005322,0.030518,0.061035,0.061035
1.178944,0.055684,-0.302970,10.047706,-0.002810,0.014519,-0.006520,0.000000,0.030518,0.091553
1.189010,0.050295,-0.307161,10.050101,-0.008198,0.010328,-0.004125,0.000000,0.061035,0.091553
1.199075,0.055684,-0.305964,10.057885,-0.002810,0.011525,0.003659,0.000000,0.061035,0.091553
1.209141,0.062271,-0.310754,10.062675,0.003777,0.006735,0.008449,-0.030518,0.030518,0.061035
1.219207,0.053289,-0.311951,10.068662,-0.005205,0.005538,0.014437,0.000000,0.061035,0.061035
1.229273,0.056882,-0.314346,10.062675,-0.001612,0.003143,0.008449,0.000000,0.030518,0.030518
1.239345,0.064067,-0.319735,10.060878,0.005573,-0.002246,0.006653,0.030518,0.000000,0.061035
1.249411,0.067659,-0.325124,10.057885,0.009165,-0.007635,0.003659,0.061035,0.030518,0.061035
1.259477,0.062869,-0.320933,10.062076,0.004375,-0.003444,0.007850,0.061035,0.030518,0.030518
1.269542,0.054487,-0.317939,10.061477,-0.004007,-0.000450,0.007252,0.061035,0.000000,0.030518
1.279608,0.051493,-0.313748,10.054891,-0.007001,0.003741,0.000665,0.000000,0.000000,0.030518
1.289677,0.056882,-0.307760,10.049502,-0.001612,0.009729,-0.004723,0.030518,0.000000,0.030518
1.299742,0.056882,-0.310155,10.048903,-0.001612,0.007334,-0.005322,0.030518,0.000000,0.030518
1.309807,0.060474,-0.306563,10.057286,0.001980,0.010927,0.003060,0.061035,0.000000,0.061035
1.319872,0.065264,-0.304167,10.058483,0.006770,0.013322,0.004258,0.000000,0.000000,0.061035
1.329938,0.057480,-0.306563,10.054891,-0.001013,0.010927,0.000665,0.000000,0.030518,0.030518
1.340003,0.057480,-0.308359,10.047706,-0.001013,0.009130,-0.006520,0.030518,0.000000,0.061035
1.350069,0.058678,-0.308359,10.053094,0.000184,0.009130,-0.001131,0.061035,0.000000,0.061035
1.360134,0.049098,-0.311353,10.068662,-0.009396,0.006136,0.014437,0.030518,0.061035,0.061035
1.370199,0.041913,-0.312550,10.066866,-0.016581,0.004939,0.012640,0.030518,0.030518,0.061035
1.380265,0.042512,-0.308359,10.058483,-0.015982,0.009130,0.004258,0.061035,0.000000,0.061035
1.390330,0.048499,-0.308359,10.060280,-0.009995,0.009130,0.006054,0.000000,0.030518,0.030518
1.400396,0.057480,-0.310754,10.064471,-0.001013,0.006735,0.010245,0.030518,0.030518,0.000000
1.410462,0.061073,-0.315544,10.061477,0.002579,0.001945,0.007252,0.030518,0.030518,0.030518
1.420527,0.062271,-0.317939,10.056687,0.003777,-0.000450,0.002462,0.091553,0.000000,0.030518
1.430593,0.073647,-0.311353,10.055490,0.015153,0.006136,0.001264,0.061035,0.000000,0.061035
1.440664,0.071851,-0.314945,10.047706,0.013357,0.002544,-0.006520,0.061035,0.000000,0.030518
1.450730,0.069456,-0.311353,10.052496,0.010962,0.006136,-0.001730,0.030518,0.030518,0.000000
1.460796,0.067061,-0.310155,10.051298,0.008567,0.007334,-0.002927,0.030518,0.030518,0.000000
1.470861,0.065264,-0.305964,10.045909,0.006770,0.011525,-0.008316,0.061035,0.061035,-0.030518
1.480926,0.068258,-0.311353,10.045909,0.009764,0.006136,-0.008316,0.061035,0.091553,-0.030518
1.490996,0.065863,-0.314346,10.047706,0.007369,0.003143,-0.006520,0.030518,0.030518,0.030518
1.501062,0.055684,-0.316143,10.048903,-0.002810,0.001346,-0.005322,0.030518,0.030518,0.061035
1.511127,0.053888,-0.318538,10.051298,-0.004606,-0.001049,-0.002927,0.030518,-0.030518,0.061035
1.521194,0.053888,-0.325124,10.056687,-0.004606,-0.007635,0.002462,0.000000,-0.030518,0.061035
1.531259,0.047900,-0.327519,10.054292,-0.010593,-0.010030,0.000067,0.000000,-0.030518,0.030518
1.541325,0.047302,-0.332309,10.048903,-0.011192,-0.014820,-0.005322,0.030518,0.000000,0.000000
1.551389,0.044907,-0.329914,10.053094,-0.013587,-0.012425,-0.001131,0.030518,0.000000,0.030518
1.561455,0.046703,-0.330513,10.054292,-0.011791,-0.013024,0.000067,0.030518,0.000000,0.030518
1.571520,0.047900,-0.319136,10.056687,-0.010593,-0.001647,0.002462,0.061035,0.000000,0.061035
1.581586,0.057480,-0.320933,10.060878,-0.001013,-0.003444,0.006653,0.061035,0.000000,0.091553
1.591650,0.061073,-0.319735,10.058483,0.002579,-0.002246,0.004258,0.061035,0.030518,0.091553
1.601717,0.061073,-0.315544,10.060280,0.002579,0.001945,0.006054,0.030518,0.000000,0.061035
1.611784,0.057480,-0.313149,10.059681,-0.001013,0.004340,0.005455,0.061035,-0.030518,0.061035
1.621849,0.059875,-0.307760,10.060878,0.001382,0.009729,0.006653,0.030518,-0.030518,0.061035
1.631914,0.054487,-0.312550,10.060280,-0.004007,0.004939,0.006054,0.030518,0.000000,0.061035
1.641979,0.051493,-0.311353,10.056088,-0.007001,0.006136,0.001863,0.030518,0.000000,0.030518
1.652045,0.058678,-0.315544,10.055490,0.000184,0.001945,0.001264,0.030518,0.030518,0.061035
1.662111,0.055684,-0.317340,10.050101,-0.002810,0.000149,-0.004125,0.030518,0.000000,0.000000
1.672176,0.048499,-0.313748,10.049502,-0.009995,0.003741,-0.004723,0.061035,-0.030518,0.000000
1.682241,0.050295,-0.317939,10.048903,-0.008198,-0.000450,-0.005322,0.061035,-0.030518,0.030518
1.692311,0.059277,-0.319136,10.050699,0.000783,-0.001647,-0.003526,0.061035,0.000000,0.030518
1.702377,0.060474,-0.322130,10.056088,0.001980,-0.004641,0.001863,0.061035,0.030518,0.030518
1.712442,0.061073,-0.321531,10.054891,0.002579,-0.004042,0.000665,0.091553,0.030518,0.000000
1.722508,0.062271,-0.318538,10.055490,0.003777,-0.001049,0.001264,0.061035,0.030518,0.000000
1.732573,0.062271,-0.314346,10.051897,0.003777,0.003143,-0.002328,0.030518,0.030518,-0.030518
1.742640,0.062869,-0.312550,10.048903,0.004375,0.004939,-0.005322,0.030518,0.061035,-0.030518
1.752705,0.059277,-0.308359,10.053094,0.000783,0.009130,-0.001131,0.061035,0.000000,-0.030518
1.762771,0.063468,-0.308958,10.054292,0.004974,0.008532,0.000067,0.030518,0.030518,0.000000
1.772837,0.073647,-0.314346,10.053094,0.015153,0.003143,-0.001131,0.030518,0.030518,0.030518
1.782908,0.062271,-0.317340,10.054292,0.003777,0.000149,0.000067,0.030518,0.000000,0.030518
1.792974,0.061073,-0.316741,10.042916,0.002579,0.000748,-0.011310,0.030518,-0.030518,0.030518
1.803041,0.058678,-0.313149,10.051298,0.000184,0.004340,-0.002927,0.030518,-0.030518,0.091553
1.813106,0.060474,-0.313748,10.057885,0.001980,0.003741,0.003659,0.030518,-0.030518,0.061035
1.823171,0.061073,-0.304167,10.054891,0.002579,0.013322,0.000665,0.061035,-0.030518,0.030518
1.833237,0.061672,-0.308958,10.050101,0.003178,0.008532,-0.004125,0.030518,0.000000,0.061035
1.843303,0.056283,-0.311353,10.049502,-0.002211,0.006136,-0.004723,0.061035,0.000000,0.061035
1.853368,0.049697,-0.313748,10.057286,-0.008797,0.003741,0.003060,0.030518,0.030518,0.061035
1.863432,0.048499,-0.311353,10.063273,-0.009995,0.006136,0.009048,0.030518,0.000000,0.061035
1.873497,0.056882,-0.310754,10.056088,-0.001612,0.006735,0.001863,0.000000,0.000000,0.061035
1.883571,0.051493,-0.308359,10.058483,-0.007001,0.009130,0.004258,0.030518,0.030518,0.030518
1.893635,0.057480,-0.316143,10.052496,-0.001013,0.001346,-0.001730,0.000000,0.030518,0.061035
1.903700,0.055085,-0.318538,10.055490,-0.003408,-0.001049,0.001264,-0.030518,-0.030518,0.061035
1.913767,0.050894,-0.312550,10.062675,-0.007600,0.004939,0.008449,0.000000,0.000000,0.030518
1.923832,0.053888,-0.316143,10.055490,-0.004606,0.001346,0.001264,0.061035,0.000000,0.030518
1.933897,0.049697,-0.314945,10.053094,-0.008797,0.002544,-0.001131,0.030518,0.030518,-0.030518
1.943962,0.052690,-0.308359,10.050101,-0.005803,0.009130,-0.004125,0.091553,0.061035,0.030518
1.954027,0.052092,-0.309556,10.057286,-0.006402,0.007933,0.003060,0.091553,0.061035,0.030518
1.964092,0.053888,-0.303569,10.063273,-0.004606,0.013920,0.009048,0.061035,0.000000,0.030518
1.974158,0.058678,-0.306563,10.066267,0.000184,0.010927,0.012042,0.091553,0.030518,0.030518
1.984224,0.052690,-0.306563,10.064471,-0.005803,0.010927,0.010245,0.061035,0.030518,0.000000
1.994291,0.043709,-0.302970,10.054292,-0.014785,0.014519,0.000067,0.030518,0.061035,0.000000
2.004356,0.045505,-0.310754,10.062675,-0.012988,0.006735,0.008449,0.030518,0.061035,0.030518
2.014479,0.050295,-0.307760,10.065668,-0.008198,0.009729,0.011443,0.030518,0.061035,0.091553
2.024590,0.059875,-0.305365,10.062076,0.001382,0.012124,0.007850,0.000000,0.030518,0.061035
2.034689,0.068857,-0.310754,10.057885,0.010363,0.006735,0.003659,0.000000,0.000000,0.030518
2.044790,0.068258,-0.311353,10.059681,0.009764,0.006136,0.005455,0.000000,0.000000,0.030518
2.054857,0.058678,-0.311353,10.065070,0.000184,0.006136,0.010844,0.030518,0.000000,0.030518
2.064949,0.056283,-0.319735,10.060878,-0.002211,-0.002246,0.006653,0.030518,0.000000,0.000000
2.075014,0.055684,-0.323926,10.060280,-0.002810,-0.006437,0.006054,0.000000,0.000000,0.030518
2.085087,0.051493,-0.323328,10.048903,-0.007001,-0.005839,-0.005322,0.000000,0.000000,0.061035
2.095152,0.056882,-0.320933,10.048903,-0.001612,-0.003444,-0.005322,0.030518,0.030518,0.030518
2.105216,0.049697,-0.322729,10.060280,-0.008797,-0.005240,0.006054,0.030518,0.030518,0.030518
2.115282,0.047900,-0.326321,10.056088,-0.010593,-0.008832,0.001863,0.030518,0.030518,0.030518
2.125348,0.050894,-0.320334,10.054891,-0.007600,-0.002845,0.000665,0.030518,0.000000,-0.030518
2.135413,0.047302,-0.320334,10.051298,-0.011192,-0.002845,-0.002927,0.030518,0.030518,0.000000
2.145477,0.046703,-0.315544,10.048304,-0.011791,0.001945,-0.005921,0.061035,0.030518,0.000000
2.155543,0.049697,-0.316143,10.051298,-0.008797,0.001346,-0.002927,0.030518,0.030518,-0.030518
2.165609,0.047302,-0.317340,10.049502,-0.011192,0.000149,-0.004723,0.030518,0.030518,0.000000
2.175675,0.050894,-0.315544,10.049502,-0.007600,0.001945,-0.004723,0.061035,0.000000,0.000000
2.185740,0.059277,-0.316741,10.047107,0.000783,0.000748,-0.007118,0.061035,0.000000,0.000000
2.195806,0.067659,-0.316143,10.047706,0.009165,0.001346,-0.006520,0.030518,0.030518,0.030518
2.205872,0.062869,-0.315544,10.051298,0.004375,0.001945,-0.002927,0.030518,0.030518,0.030518
2.215938,0.056882,-0.323926,10.054292,-0.001612,-0.006437,0.000067,0.000000,0.000000,0.030518
2.226003,0.052690,-0.323328,10.050101,-0.005803,-0.005839,-0.004125,-0.030518,0.030518,0.030518
2.236069,0.057480,-0.328716,10.053693,-0.001013,-0.011227,-0.000532,0.000000,0.030518,0.030518
2.246134,0.056283,-0.329315,10.061477,-0.002211,-0.011826,0.007252,0.030518,0.030518,-0.030518
2.256200,0.062271,-0.328118,10.065070,0.003777,-0.010629,0.010844,0.030518,0.000000,0.000000
2.266265,0.060474,-0.320334,10.063273,0.001980,-0.002845,0.009048,0.030518,0.000000,0.061035
2.276331,0.060474,-0.319735,10.062675,0.001980,-0.002246,0.008449,0.030518,-0.030518,0.061035
2.286402,0.058678,-0.317939,10.056088,0.000184,-0.000450,0.001863,0.030518,0.030518,0.091553
2.296466,0.059875,-0.317340,10.054292,0.001382,0.000149,0.000067,0.061035,0.000000,0.061035
2.306550,0.061073,-0.319136,10.060280,0.002579,-0.001647,0.006054,0.030518,0.000000,0.061035
2.316619,0.059875,-0.314346,10.062675,0.001382,0.003143,0.008449,0.061035,0.030518,0.061035
2.326692,0.061073,-0.310155,10.059082,0.002579,0.007334,0.004857,0.061035,0.000000,0.061035
2.336760,0.058678,-0.316143,10.059082,0.000184,0.001346,0.004857,0.061035,0.000000,0.061035
2.346827,0.052092,-0.322729,10.056687,-0.006402,-0.005240,0.002462,0.091553,0.030518,0.061035
2.356893,0.049098,-0.322729,10.062076,-0.009396,-0.005240,0.007850,0.030518,-0.030518,0.091553
2.366958,0.050894,-0.318538,10.060878,-0.007600,-0.001049,0.006653,0.030518,-0.030518,0.091553
2.377023,0.055085,-0.316741,10.057885,-0.003408,0.000748,0.003659,0.030518,0.000000,0.061035
2.387089,0.055684,-0.314945,10.056088,-0.002810,0.002544,0.001863,0.061035,0.000000,0.030518
2.397155,0.055085,-0.312550,10.059082,-0.003408,0.004939,0.004857,0.030518,0.000000,0.030518
2.407221,0.059875,-0.318538,10.065070,0.001382,-0.001049,0.010844,0.030518,0.030518,0.030518
2.417287,0.057480,-0.317340,10.065070,-0.001013,0.000149,0.010844,0.000000,0.000000,0.000000
2.427352,0.056882,-0.319136,10.057885,-0.001612,-0.001647,0.003659,0.000000,0.000000,0.061035
2.437417,0.056882,-0.317939,10.052496,-0.001612,-0.000450,-0.001730,0.000000,0.000000,0.061035
2.447488,0.057480,-0.311353,10.051298,-0.001013,0.006136,-0.002927,0.030518,0.030518,0.091553
2.457556,0.054487,-0.316741,10.060878,-0.004007,0.000748,0.006653,0.030518,0.030518,0.061035
2.467621,0.059277,-0.322130,10.060878,0.000783,-0.004641,0.006653,0.030518,0.061035,0.030518
2.477695,0.063468,-0.322729,10.053693,0.004974,-0.005240,-0.000532,0.030518,0.000000,0.030518
2.487776,0.066462,-0.323328,10.056687,0.007968,-0.005839,0.002462,0.000000,0.000000,0.030518
2.497841,0.063468,-0.322729,10.050699,0.004974,-0.005240,-0.003526,0.030518,0.000000,0.030518
2.507904,0.066462,-0.317340,10.057286,0.007968,0.000149,0.003060,0.000000,-0.030518,0.030518
2.517968,0.063468,-0.325723,10.051298,0.004974,-0.008234,-0.002927,0.000000,0.000000,0.030518
2.528035,0.058079,-0.326321,10.050101,-0.000415,-0.008832,-0.004125,0.030518,0.000000,0.030518
2.538100,0.064067,-0.318538,10.037527,0.005573,-0.001049,-0.016699,0.061035,0.030518,0.030518
2.548166,0.059277,-0.318538,10.052496,0.000783,-0.001049,-0.001730,0.030518,0.030518,0.091553
2.558232,0.050894,-0.317340,10.058483,-0.007600,0.000149,0.004258,0.000000,0.030518,0.061035
2.568297,0.050295,-0.314346,10.056687,-0.008198,0.003143,0.002462,0.061035,0.000000,0.091553
2.578363,0.047900,-0.317939,10.050699,-0.010593,-0.000450,-0.003526,0.061035,-0.030518,0.061035
2.588429,0.049098,-0.314945,10.049502,-0.009396,0.002544,-0.004723,0.061035,0.000000,0.091553
2.598495,0.050295,-0.313149,10.053693,-0.008198,0.004340,-0.000532,0.061035,-0.061035,0.091553
2.608561,0.049098,-0.309556,10.059082,-0.009396,0.007933,0.004857,0.061035,-0.030518,0.061035
2.618627,0.056283,-0.305365,10.054891,-0.002211,0.012124,0.000665,0.061035,-0.030518,0.000000
2.628694,0.057480,-0.307760,10.048304,-0.001013,0.009729,-0.005921,0.061035,0.000000,0.000000
2.638764,0.055684,-0.305365,10.051298,-0.002810,0.012124,-0.002927,0.061035,0.000000,0.000000
2.648831,0.053888,-0.313149,10.056687,-0.004606,0.004340,0.002462,0.000000,0.000000,0.000000
2.658896,0.055085,-0.314346,10.060878,-0.003408,0.003143,0.006653,0.030518,0.030518,0.000000
2.668963,0.055085,-0.311951,10.048304,-0.003408,0.005538,-0.005921,0.030518,0.030518,0.030518
2.679029,0.057480,-0.318538,10.044113,-0.001013,-0.001049,-0.010112,0.030518,0.061035,0.030518
2.689100,0.052690,-0.314945,10.039922,-0.005803,0.002544,-0.014304,0.091553,0.030518,0.061035
2.699165,0.058079,-0.317939,10.051298,-0.000415,-0.000450,-0.002927,0.061035,0.030518,0.030518
2.709229,0.053888,-0.317340,10.056088,-0.004606,0.000149,0.001863,0.061035,0.000000,0.030518
2.719299,0.052690,-0.317939,10.059681,-0.005803,-0.000450,0.005455,0.061035,0.000000,0.030518
2.729364,0.056882,-0.316741,10.054891,-0.001612,0.000748,0.000665,0.030518,0.030518,0.000000
2.739447,0.059277,-0.322130,10.050101,0.000783,-0.004641,-0.004125,0.000000,0.000000,0.000000
2.749512,0.052092,-0.324525,10.056088,-0.006402,-0.007036,0.001863,0.030518,0.000000,0.000000
2.759578,0.052690,-0.321531,10.055490,-0.005803,-0.004042,0.001264,0.030518,0.000000,0.000000
2.769643,0.051493,-0.316741,10.062076,-0.007001,0.000748,0.007850,0.030518,0.000000,0.030518
2.779709,0.050894,-0.311951,10.054891,-0.007600,0.005538,0.000665,0.061035,0.000000,0.061035
2.789774,0.049697,-0.308359,10.053693,-0.008797,0.009130,-0.000532,0.061035,0.030518,0.030518
2.799839,0.053888,-0.303569,10.050699,-0.004606,0.013920,-0.003526,0.030518,0.030518,0.030518
2.809905,0.054487,-0.311951,10.057286,-0.004007,0.005538,0.003060,0.091553,0.030518,0.030518
2.819970,0.055684,-0.313149,10.054292,-0.002810,0.004340,0.000067,0.061035,0.030518,0.061035
2.830037,0.056882,-0.314346,10.059681,-0.001612,0.003143,0.005455,0.061035,0.030518,0.030518
2.840102,0.056882,-0.314945,10.063273,-0.001612,0.002544,0.009048,0.030518,0.000000,0.030518
2.850168,0.057480,-0.323328,10.062675,-0.001013,-0.005839,0.008449,0.061035,0.000000,0.030518
2.860232,0.057480,-0.329914,10.064471,-0.001013,-0.012425,0.010245,0.091553,0.000000,0.030518
2.870298,0.058079,-0.328716,10.057286,-0.000415,-0.011227,0.003060,0.030518,0.000000,0.061035
2.880363,0.054487,-0.324525,10.054891,-0.004007,-0.007036,0.000665,0.061035,0.030518,0.061035
2.890435,0.052092,-0.322130,10.053693,-0.006402,-0.004641,-0.000532,0.061035,0.030518,0.030518
2.900500,0.045505,-0.317340,10.052496,-0.012988,0.000149,-0.001730,0.030518,0.030518,-0.030518
2.910564,0.046703,-0.313149,10.055490,-0.011791,0.004340,0.001264,0.000000,0.030518,0.000000
2.920629,0.052690,-0.305365,10.048304,-0.005803,0.012124,-0.005921,0.030518,0.030518,0.000000
2.930694,0.058678,-0.298180,10.059082,0.000184,0.019309,0.004857,0.030518,0.030518,0.000000
2.940759,0.058678,-0.306563,10.056088,0.000184,0.010927,0.001863,0.061035,0.000000,0.000000
2.950830,0.069456,-0.311353,10.057286,0.010962,0.006136,0.003060,0.061035,-0.030518,0.030518
2.960896,0.071851,-0.316143,10.060280,0.013357,0.001346,0.006054,0.030518,0.000000,0.000000
2.970962,0.070653,-0.315544,10.061477,0.012159,0.001945,0.007252,0.061035,0.030518,0.030518
2.981027,0.061073,-0.309556,10.062675,0.002579,0.007933,0.008449,0.061035,0.000000,0.000000
2.991093,0.060474,-0.306563,10.065070,0.001980,0.010927,0.010844,0.061035,0.000000,0.030518
3.001158,0.055085,-0.307161,10.060280,-0.003408,0.010328,0.006054,0.061035,0.000000,0.030518
3.011224,0.053888,-0.311353,10.056088,-0.004606,0.006136,0.001863,0.030518,0.000000,0.000000
3.021289,0.056283,-0.314945,10.060280,-0.002211,0.002544,0.006054,0.000000,0.030518,0.000000
3.031354,0.054487,-0.319735,10.054292,-0.004007,-0.002246,0.000067,0.000000,0.030518,0.030518
3.041420,0.054487,-0.329914,10.060878,-0.004007,-0.012425,0.006653,0.000000,0.000000,0.061035
3.051486,0.050894,-0.331111,10.059082,-0.007600,-0.013622,0.004857,0.000000,0.030518,0.030518
3.061551,0.056283,-0.327519,10.066866,-0.002211,-0.010030,0.012640,0.030518,0.061035,0.061035
3.071616,0.055684,-0.321531,10.056088,-0.002810,-0.004042,0.001863,0.030518,0.061035,0.061035
3.081681,0.062869,-0.314945,10.058483,0.004375,0.002544,0.004258,0.030518,0.061035,0.061035
3.091751,0.053289,-0.309556,10.049502,-0.005205,0.007933,-0.004723,0.030518,0.030518,0.061035
3.101815,0.055684,-0.304766,10.054292,-0.002810,0.012723,0.000067,0.030518,0.030518,0.061035
3.111881,0.049098,-0.303569,10.060280,-0.009396,0.013920,0.006054,0.061035,0.030518,0.030518
3.121946,0.053888,-0.301772,10.059082,-0.004606,0.015717,0.004857,0.030518,0.030518,0.000000
3.132012,0.059875,-0.301772,10.061477,0.001382,0.015717,0.007252,0.030518,0.030518,-0.030518
3.142077,0.058678,-0.310155,10.057286,0.000184,0.007334,0.003060,0.061035,0.030518,0.000000
3.152143,0.056882,-0.310754,10.062076,-0.001612,0.006735,0.007850,0.030518,0.030518,0.000000
3.162208,0.061672,-0.320334,10.068063,0.003178,-0.002845,0.013838,0.091553,0.030518,0.000000
3.172273,0.061073,-0.323328,10.061477,0.002579,-0.005839,0.007252,0.061035,0.030518,-0.030518
3.182338,0.056283,-0.316143,10.051298,-0.002211,0.001346,-0.002927,0.061035,0.000000,0.000000
3.192404,0.059875,-0.308359,10.048304,0.001382,0.009130,-0.005921,0.061035,0.000000,0.061035
3.202470,0.056882,-0.315544,10.050699,-0.001612,0.001945,-0.003526,0.061035,0.000000,0.061035
3.212536,0.061073,-0.319735,10.056088,0.002579,-0.002246,0.001863,0.061035,-0.030518,0.061035
3.222601,0.060474,-0.315544,10.056687,0.001980,0.001945,0.002462,0.091553,-0.030518,0.061035
3.232666,0.061073,-0.319136,10.057885,0.002579,-0.001647,0.003659,0.061035,-0.061035,0.061035
3.242737,0.062271,-0.313149,10.056088,0.003777,0.004340,0.001863,0.061035,-0.030518,0.030518
3.252804,0.065863,-0.308958,10.059681,0.007369,0.008532,0.005455,0.091553,-0.030518,0.030518
3.262869,0.064067,-0.310155,10.060280,0.005573,0.007334,0.006054,0.091553,0.000000,0.061035
3.272935,0.053888,-0.314346,10.056687,-0.004606,0.003143,0.002462,0.030518,0.061035,0.030518
3.283144,0.059277,-0.328118,10.052496,0.000783,-0.010629,-0.001730,0.061035,0.030518,0.030518
3.293213,0.061073,-0.324525,10.053693,0.002579,-0.007036,-0.000532,0.091553,0.030518,0.061035
3.303277,0.065863,-0.315544,10.055490,0.007369,0.001945,0.001264,0.091553,0.030518,0.061035
3.313343,0.062271,-0.315544,10.060280,0.003777,0.001945,0.006054,0.061035,0.030518,0.061035
3.323408,0.064067,-0.311951,10.053693,0.005573,0.005538,-0.000532,0.061035,0.030518,0.061035
3.333474,0.062271,-0.311353,10.050699,0.003777,0.006136,-0.003526,0.061035,0.061035,0.000000
3.343540,0.056882,-0.310754,10.049502,-0.001612,0.006735,-0.004723,0.030518,0.030518,0.000000
3.353605,0.047900,-0.321531,10.057885,-0.010593,-0.004042,0.003659,0.030518,-0.030518,-0.030518
3.363670,0.052690,-0.321531,10.063273,-0.005803,-0.004042,0.009048,0.030518,0.000000,-0.030518
3.373735,0.054487,-0.322130,10.059681,-0.004007,-0.004641,0.005455,0.030518,0.000000,0.000000
3.383801,0.053289,-0.322130,10.049502,-0.005205,-0.004641,-0.004723,0.061035,0.000000,0.000000
3.393866,0.046703,-0.330513,10.055490,-0.011791,-0.013024,0.001264,0.030518,0.061035,0.030518
3.403931,0.049697,-0.323328,10.059681,-0.008797,-0.005839,0.005455,0.030518,0.061035,0.000000
3.413998,0.052092,-0.319136,10.062076,-0.006402,-0.001647,0.007850,-0.030518,0.030518,0.030518
3.424063,0.045505,-0.311951,10.066267,-0.012988,0.005538,0.012042,0.000000,-0.030518,0.030518
3.434128,0.044308,-0.310754,10.063872,-0.014186,0.006735,0.009647,0.030518,0.000000,0.030518
3.444194,0.051493,-0.296982,10.059681,-0.007001,0.020507,0.005455,0.030518,0.000000,0.030518
3.454259,0.054487,-0.295186,10.066267,-0.004007,0.022303,0.012042,0.030518,0.000000,0.030518
3.464324,0.061073,-0.302371,10.065070,0.002579,0.015118,0.010844,0.030518,0.000000,0.000000
3.474390,0.062869,-0.304167,10.063273,0.004375,0.013322,0.009048,0.000000,0.000000,0.000000
3.484461,0.062271,-0.304766,10.060878,0.003777,0.012723,0.006653,0.000000,0.000000,0.030518
3.494530,0.061073,-0.315544,10.063872,0.002579,0.001945,0.009647,0.000000,0.000000,0.000000
3.504594,0.064067,-0.314945,10.066866,0.005573,0.002544,0.012640,0.030518,0.000000,0.000000
3.514661,0.057480,-0.319735,10.072255,-0.001013,-0.002246,0.018029,0.030518,0.030518,-0.030518
3.524726,0.052092,-0.317340,10.067465,-0.006402,0.000149,0.013239,0.061035,0.000000,-0.030518
3.534792,0.047900,-0.320933,10.060280,-0.010593,-0.003444,0.006054,0.091553,0.030518,0.000000
3.544857,0.045505,-0.327519,10.062675,-0.012988,-0.010030,0.008449,0.061035,0.061035,0.030518
3.554922,0.044907,-0.320334,10.067465,-0.013587,-0.002845,0.013239,0.061035,0.061035,0.030518
3.564988,0.042512,-0.323328,10.064471,-0.015982,-0.005839,0.010245,0.061035,0.030518,0.000000
3.575053,0.045505,-0.320334,10.058483,-0.012988,-0.002845,0.004258,0.061035,0.030518,0.000000
3.585118,0.053888,-0.314346,10.048304,-0.004606,0.003143,-0.005921,0.091553,0.030518,0.000000
3.595183,0.058678,-0.315544,10.048304,0.000184,0.001945,-0.005921,0.091553,0.000000,0.000000
3.605248,0.062271,-0.307161,10.051897,0.003777,0.010328,-0.002328,0.061035,0.030518,0.030518
3.615314,0.064666,-0.308359,10.053693,0.006172,0.009130,-0.000532,0.061035,0.030518,0.030518
3.625380,0.075443,-0.305365,10.056088,0.016949,0.012124,0.001863,0.061035,0.061035,0.000000
3.635446,0.075443,-0.306563,10.051897,0.016949,0.010927,-0.002328,0.030518,0.061035,0.030518
3.645512,0.074844,-0.299377,10.049502,0.016350,0.018112,-0.004723,0.061035,0.030518,0.030518
3.655576,0.067659,-0.311353,10.053693,0.009165,0.006136,-0.000532,0.030518,0.030518,0.030518
3.665641,0.060474,-0.312550,10.044712,0.001980,0.004939,-0.009513,0.000000,0.030518,0.061035
3.675707,0.050894,-0.326920,10.049502,-0.007600,-0.009431,-0.004723,0.030518,0.061035,0.061035
3.685776,0.046703,-0.322130,10.050101,-0.011791,-0.004641,-0.004125,0.030518,0.061035,0.030518
3.695840,0.048499,-0.327519,10.044113,-0.009995,-0.010030,-0.010112,0.030518,0.030518,0.030518
3.705906,0.043709,-0.330513,10.051897,-0.014785,-0.013024,-0.002328,0.030518,0.030518,0.030518
3.715971,0.041913,-0.329914,10.053693,-0.016581,-0.012425,-0.000532,0.061035,0.030518,0.061035
3.726037,0.041913,-0.329914,10.053693,-0.016581,-0.012425,-0.000532,0.061035,0.000000,0.061035
3.736126,0.048499,-0.329914,10.052496,-0.009995,-0.012425,-0.001730,0.091553,0.000000,0.030518
3.746193,0.053289,-0.314945,10.058483,-0.005205,0.002544,0.004258,0.091553,0.030518,0.000000
3.756259,0.061672,-0.311353,10.059082,0.003178,0.006136,0.004857,0.122070,0.030518,0.000000
3.766325,0.055684,-0.308359,10.057286,-0.002810,0.009130,0.003060,0.091553,0.061035,0.030518
3.776390,0.052092,-0.302970,10.056088,-0.006402,0.014519,0.001863,0.061035,0.061035,0.030518
3.786456,0.058079,-0.295186,10.054891,-0.000415,0.022303,0.000665,0.091553,0.030518,0.000000
3.796522,0.062869,-0.296384,10.052496,0.004375,0.021105,-0.001730,0.061035,0.030518,0.000000
3.806588,0.059277,-0.299976,10.059681,0.000783,0.017513,0.005455,0.061035,0.030518,0.000000
3.816653,0.063468,-0.313149,10.053094,0.004974,0.004340,-0.001131,0.061035,0.061035,-0.030518
3.826719,0.061672,-0.320334,10.048304,0.003178,-0.002845,-0.005921,0.061035,0.030518,-0.061035
3.836784,0.060474,-0.336500,10.049502,0.001980,-0.019011,-0.004723,0.030518,0.030518,-0.061035
3.846852,0.055684,-0.338895,10.048304,-0.002810,-0.021406,-0.005921,0.030518,0.000000,-0.061035
3.856919,0.053888,-0.334105,10.055490,-0.004606,-0.016616,0.001264,0.000000,0.030518,-0.030518
3.866985,0.051493,-0.314945,10.056088,-0.007001,0.002544,0.001863,0.000000,0.030518,-0.030518
3.877050,0.042512,-0.316741,10.053094,-0.015982,0.000748,-0.001131,0.000000,0.030518,0.000000
3.887120,0.047302,-0.304766,10.048304,-0.011192,0.012723,-0.005921,0.030518,0.030518,0.000000
3.897184,0.052690,-0.292791,10.051298,-0.005803,0.024698,-0.002927,0.030518,0.030518,0.030518
3.907250,0.066462,-0.288001,10.058483,0.007968,0.029488,0.004258,0.030518,0.061035,0.030518
3.917316,0.073048,-0.292791,10.062076,0.014554,0.024698,0.007850,0.000000,0.061035,0.030518
3.927382,0.076641,-0.291594,10.065668,0.018147,0.025895,0.011443,0.000000,0.091553,0.030518
3.937448,0.080832,-0.301174,10.060280,0.022338,0.016315,0.006054,0.000000,0.091553,0.061035
3.947514,0.076042,-0.310155,10.060280,0.017548,0.007334,0.006054,0.000000,0.030518,0.030518
3.957578,0.069456,-0.325124,10.058483,0.010962,-0.007635,0.004258,0.000000,0.030518,0.030518
3.967642,0.062869,-0.337698,10.061477,0.004375,-0.020209,0.007252,0.030518,0.000000,0.061035
3.977709,0.046703,-0.341889,10.057885,-0.011791,-0.024400,0.003659,0.030518,-0.030518,0.091553
3.987774,0.044907,-0.340093,10.053693,-0.013587,-0.022604,-0.000532,0.061035,-0.030518,0.091553
3.997846,0.040715,-0.343087,10.058483,-0.017779,-0.025598,0.004258,0.061035,-0.030518,0.000000
4.007911,0.039518,-0.335303,10.065668,-0.018976,-0.017814,0.011443,0.091553,-0.030518,0.000000
4.017977,0.045505,-0.329315,10.059681,-0.012988,-0.011826,0.005455,0.091553,-0.030518,0.000000
4.028042,0.050295,-0.312550,10.066267,-0.008198,0.004939,0.012042,0.091553,-0.030518,-0.030518
4.038107,0.058079,-0.302371,10.062675,-0.000415,0.015118,0.008449,0.122070,0.000000,-0.030518
4.048171,0.062271,-0.285007,10.067465,0.003777,0.032482,0.013239,0.122070,-0.030518,0.030518
4.058237,0.065264,-0.283810,10.063273,0.006770,0.033679,0.009048,0.091553,0.030518,0.030518
4.068302,0.074844,-0.276026,10.063872,0.016350,0.041463,0.009647,0.030518,0.030518,0.030518
4.078368,0.086819,-0.273032,10.068662,0.028326,0.044457,0.014437,0.000000,0.030518,0.030518
4.088442,0.078437,-0.271835,10.063872,0.019943,0.045654,0.009647,0.030518,0.030518,0.030518
4.098507,0.071252,-0.282612,10.067465,0.012758,0.034877,0.013239,0.030518,0.061035,0.030518
4.108572,0.061672,-0.294587,10.066267,0.003178,0.022902,0.012042,0.061035,0.061035,0.030518
4.118638,0.055684,-0.322729,10.058483,-0.002810,-0.005240,0.004258,0.000000,0.030518,0.030518
4.128703,0.049697,-0.335303,10.054292,-0.008797,-0.017814,0.000067,0.000000,0.030518,0.000000
4.138769,0.050894,-0.348475,10.044113,-0.007600,-0.030986,-0.010112,0.030518,0.061035,0.030518
4.148835,0.055085,-0.366438,10.055490,-0.003408,-0.048949,0.001264,0.091553,0.061035,0.030518
4.158901,0.056882,-0.365240,10.060878,-0.001612,-0.047751,0.006653,0.061035,0.061035,0.030518
4.168967,0.050295,-0.356259,10.065070,-0.008198,-0.038770,0.010844,0.030518,0.061035,0.030518
4.179032,0.046104,-0.350870,10.056687,-0.012390,-0.033381,0.002462,0.030518,0.030518,0.030518
4.189097,0.043709,-0.324525,10.050101,-0.014785,-0.007036,-0.004125,0.030518,0.000000,0.030518
4.199163,0.044907,-0.310155,10.055490,-0.013587,0.007334,0.001264,0.030518,0.000000,0.061035
4.209229,0.049697,-0.292192,10.062675,-0.008797,0.025297,0.008449,0.061035,0.000000,0.061035
4.219294,0.062271,-0.280217,10.063872,0.003777,0.037272,0.009647,0.030518,0.061035,0.000000
4.229359,0.071851,-0.270637,10.061477,0.013357,0.046852,0.007252,0.061035,0.061035,-0.030518
4.239424,0.081431,-0.282612,10.068063,0.022937,0.034877,0.013838,0.091553,0.061035,0.000000
4.249490,0.089214,-0.285007,10.072853,0.030721,0.032482,0.018628,0.061035,0.061035,0.030518
4.259555,0.088017,-0.305365,10.073452,0.029523,0.012124,0.019227,0.061035,0.030518,0.030518
4.269621,0.085622,-0.311951,10.070458,0.027128,0.005538,0.016233,0.030518,0.030518,0.030518
4.279687,0.082029,-0.320933,10.066866,0.023536,-0.003444,0.012640,0.061035,0.061035,0.000000
4.289757,0.068857,-0.326920,10.059681,0.010363,-0.009431,0.005455,0.030518,0.061035,0.030518
4.299821,0.061672,-0.334105,10.062076,0.003178,-0.016616,0.007850,0.000000,0.030518,0.030518
4.309886,0.049098,-0.346679,10.065070,-0.009396,-0.029190,0.010844,0.061035,0.000000,0.030518
4.319951,0.051493,-0.343685,10.068662,-0.007001,-0.026196,0.014437,0.030518,0.030518,0.030518
4.330022,0.043110,-0.342488,10.069860,-0.015384,-0.024999,0.015634,0.030518,0.030518,0.061035
4.340091,0.044907,-0.332309,10.069860,-0.013587,-0.014820,0.015634,0.030518,0.030518,0.030518
4.350155,0.049098,-0.320933,10.072255,-0.009396,-0.003444,0.018029,0.061035,0.030518,0.000000
4.360221,0.055085,-0.307161,10.073452,-0.003408,0.010328,0.019227,0.091553,-0.030518,0.000000
4.370287,0.061073,-0.296982,10.074650,0.002579,0.020507,0.020424,0.091553,0.000000,0.000000
4.380354,0.072449,-0.285007,10.062675,0.013955,0.032482,0.008449,0.061035,0.030518,0.000000
4.390419,0.076042,-0.280217,10.062076,0.017548,0.037272,0.007850,0.030518,0.061035,0.030518
4.400485,0.077239,-0.281415,10.076446,0.018746,0.036074,0.022221,0.030518,0.061035,0.061035
4.410551,0.072449,-0.285007,10.075847,0.013955,0.032482,0.021622,0.061035,0.061035,0.061035
4.420638,0.070054,-0.302371,10.073452,0.011560,0.015118,0.019227,0.091553,0.030518,0.030518
4.430706,0.065863,-0.320933,10.063872,0.007369,-0.003444,0.009647,0.091553,0.091553,0.030518
4.440776,0.062271,-0.327519,10.060280,0.003777,-0.010030,0.006054,0.091553,0.091553,0.030518
4.450843,0.055085,-0.347278,10.066267,-0.003408,-0.029789,0.012042,0.061035,0.091553,0.030518
4.460908,0.044308,-0.354463,10.068063,-0.014186,-0.036974,0.013838,0.061035,0.061035,0.030518
4.470975,0.038320,-0.356259,10.073452,-0.020174,-0.038770,0.019227,0.030518,0.030518,0.061035
4.481041,0.037123,-0.349673,10.068662,-0.021371,-0.032184,0.014437,0.030518,0.000000,0.091553
4.491111,0.039518,-0.347278,10.064471,-0.018976,-0.029789,0.010245,0.061035,0.061035,0.061035
4.501174,0.048499,-0.326920,10.068063,-0.009995,-0.009431,0.013838,0.091553,0.061035,0.091553
4.511240,0.052690,-0.317939,10.070458,-0.005803,-0.000450,0.016233,0.061035,0.061035,0.091553
4.521305,0.053888,-0.308359,10.066267,-0.004606,0.009130,0.012042,0.030518,0.030518,0.091553
4.531370,0.058079,-0.297581,10.062675,-0.000415,0.019908,0.008449,0.030518,0.030518,0.091553
4.541434,0.064067,-0.282014,10.064471,0.005573,0.035475,0.010245,0.061035,0.030518,0.061035
4.551500,0.065863,-0.279619,10.071656,0.007369,0.037870,0.017431,0.061035,0.030518,0.061035
4.561566,0.071851,-0.280217,10.072853,0.013357,0.037272,0.018628,0.061035,0.000000,0.030518
4.571631,0.076042,-0.291594,10.066267,0.017548,0.025895,0.012042,0.061035,0.000000,0.061035
4.581697,0.070653,-0.296982,10.066267,0.012159,0.020507,0.012042,0.061035,0.030518,0.030518
4.591763,0.071252,-0.318538,10.056687,0.012758,-0.001049,0.002462,0.030518,0.030518,0.030518
4.601829,0.073048,-0.329315,10.061477,0.014554,-0.011826,0.007252,0.030518,0.030518,0.030518
4.611895,0.072449,-0.337698,10.064471,0.013955,-0.020209,0.010245,0.061035,0.061035,0.061035
4.621959,0.065863,-0.346679,10.065070,0.007369,-0.029190,0.010844,0.061035,0.061035,0.091553
4.632025,0.061073,-0.352667,10.063872,0.002579,-0.035178,0.009647,0.030518,0.030518,0.091553
4.642090,0.046703,-0.349074,10.050699,-0.011791,-0.031585,-0.003526,0.030518,0.000000,0.091553
4.652156,0.043110,-0.341889,10.051298,-0.015384,-0.024400,-0.002927,0.061035,0.030518,0.061035
4.662222,0.033530,-0.321531,10.060878,-0.024964,-0.004042,0.006653,0.061035,0.030518,0.061035
4.672287,0.037722,-0.316741,10.060878,-0.020772,0.000748,0.006653,0.061035,0.030518,0.091553
4.682352,0.043709,-0.299976,10.055490,-0.014785,0.017513,0.001264,0.061035,0.030518,0.061035
4.692422,0.050295,-0.295785,10.053693,-0.008198,0.021704,-0.000532,0.061035,0.030518,0.030518
4.702487,0.058678,-0.294587,10.058483,0.000184,0.022902,0.004258,0.091553,0.030518,0.000000
4.712553,0.082628,-0.297581,10.062076,0.024134,0.019908,0.007850,0.061035,0.030518,0.030518
4.722624,0.085622,-0.300575,10.065070,0.027128,0.016914,0.010844,0.061035,0.061035,0.030518
4.732689,0.094603,-0.302371,10.060280,0.036109,0.015118,0.006054,0.061035,0.061035,0.000000
4.742766,0.092807,-0.307161,10.056687,0.034313,0.010328,0.002462,0.061035,0.091553,0.030518
4.752832,0.079036,-0.312550,10.072255,0.020542,0.004939,0.018029,0.030518,0.061035,0.000000
4.762897,0.072449,-0.315544,10.083032,0.013955,0.001945,0.028807,0.030518,0.061035,0.030518
4.772963,0.069456,-0.319735,10.078841,0.010962,-0.002246,0.024616,0.030518,0.030518,0.000000
4.783028,0.047900,-0.322729,10.065070,-0.010593,-0.005240,0.010844,0.000000,0.061035,0.030518
4.793094,0.043709,-0.326321,10.059681,-0.014785,-0.008832,0.005455,0.061035,0.030518,0.030518
4.803160,0.038320,-0.326920,10.069261,-0.020174,-0.009431,0.015035,0.061035,0.000000,0.030518
4.813226,0.040715,-0.328716,10.065668,-0.017779,-0.011227,0.011443,0.030518,0.030518,0.061035
4.823290,0.052092,-0.328118,10.066866,-0.006402,-0.010629,0.012640,0.000000,0.030518,0.000000
4.833409,0.054487,-0.327519,10.062076,-0.004007,-0.010030,0.007850,0.000000,0.030518,0.000000
4.843503,0.059875,-0.316143,10.061477,0.001382,0.001346,0.007252,0.000000,0.030518,0.030518
4.853605,0.062271,-0.316143,10.068063,0.003777,0.001346,0.013838,0.030518,0.030518,0.030518
4.863703,0.068258,-0.314346,10.064471,0.009764,0.003143,0.010245,0.030518,0.061035,0.000000
4.873801,0.073647,-0.316143,10.071656,0.015153,0.001346,0.017431,0.000000,0.030518,0.000000
4.883897,0.076641,-0.319136,10.067465,0.018147,-0.001647,0.013239,0.000000,0.030518,0.000000
4.893988,0.072449,-0.316741,10.060878,0.013955,0.000748,0.006653,0.000000,0.061035,0.000000
4.904084,0.073048,-0.316143,10.061477,0.014554,0.001346,0.007252,0.061035,0.061035,0.000000
4.914177,0.067061,-0.312550,10.062675,0.008567,0.004939,0.008449,0.000000,0.091553,0.000000
4.924269,0.058678,-0.318538,10.060280,0.000184,-0.001049,0.006054,0.030518,0.030518,0.000000
4.934461,0.056882,-0.323926,10.057885,-0.001612,-0.006437,0.003659,0.030518,0.061035,0.030518
4.944553,0.053888,-0.322130,10.060878,-0.004606,-0.004641,0.006653,0.000000,0.061035,0.030518
4.957201,0.050894,-0.317340,10.065668,-0.007600,0.000149,0.011443,0.061035,0.061035,0.061035
4.967323,0.047900,-0.318538,10.062675,-0.010593,-0.001049,0.008449,0.061035,0.030518,0.061035
4.977439,0.048499,-0.313149,10.059681,-0.009995,0.004340,0.005455,0.030518,0.030518,0.091553
4.987546,0.046703,-0.313149,10.057885,-0.011791,0.004340,0.003659,0.000000,0.061035,0.061035
4.997720,0.042512,-0.309556,10.058483,-0.015982,0.007933,0.004258,0.000000,0.030518,0.091553
5.007831,0.056283,-0.288600,10.065668,-0.002211,0.028889,0.011443,0.000000,0.000000,0.061035
5.017976,0.054487,-0.292192,10.068063,-0.004007,0.025297,0.013838,0.030518,0.000000,0.061035
5.028125,0.061073,-0.298779,10.064471,0.002579,0.018710,0.010245,0.000000,0.000000,0.030518
5.038234,0.061073,-0.301772,10.063273,0.002579,0.015717,0.009048,0.000000,0.030518,0.000000
5.048332,0.065863,-0.314945,10.067465,0.007369,0.002544,0.013239,0.000000,-0.030518,0.000000
5.058429,0.070054,-0.324525,10.072255,0.011560,-0.007036,0.018029,0.030518,0.000000,0.000000
5.068531,0.069456,-0.331111,10.071656,0.010962,-0.013622,0.017431,0.000000,-0.030518,0.030518
5.078635,0.058678,-0.332309,10.061477,0.000184,-0.014820,0.007252,0.000000,-0.030518,0.000000
5.088769,0.051493,-0.331710,10.063273,-0.007001,-0.014221,0.009048,0.030518,0.030518,0.030518
5.098861,0.037123,-0.328716,10.068063,-0.021371,-0.011227,0.013838,0.030518,0.030518,0.030518
5.108953,0.032333,-0.321531,10.069860,-0.026161,-0.004042,0.015634,0.000000,0.030518,0.030518
5.119031,0.034129,-0.310155,10.068662,-0.024365,0.007334,0.014437,0.030518,0.061035,0.091553
5.129105,0.040117,-0.307760,10.065668,-0.018377,0.009729,0.011443,0.000000,0.030518,0.061035
5.139252,0.040117,-0.303569,10.063273,-0.018377,0.013920,0.009048,0.061035,0.030518,0.030518
5.149338,0.042512,-0.293390,10.068063,-0.015982,0.024099,0.013838,0.061035,0.030518,0.030518
5.159413,0.056882,-0.290995,10.071656,-0.001612,0.026494,0.017431,0.061035,0.000000,0.061035
5.169488,0.071851,-0.289199,10.072853,0.013357,0.028290,0.018628,0.091553,0.000000,0.061035
5.179567,0.076042,-0.295186,10.068063,0.017548,0.022303,0.013838,0.061035,0.000000,0.061035
5.189642,0.086221,-0.301174,10.067465,0.027727,0.016315,0.013239,0.061035,0.000000,0.030518
5.199716,0.089214,-0.305964,10.066866,0.030721,0.011525,0.012640,0.000000,0.000000,0.030518
5.209791,0.089214,-0.316143,10.066866,0.030721,0.001346,0.012640,0.030518,-0.030518,0.030518
5.219867,0.081431,-0.320334,10.068662,0.022937,-0.002845,0.014437,0.000000,0.000000,0.030518
5.229942,0.065264,-0.324525,10.065668,0.006770,-0.007036,0.011443,0.000000,0.030518,0.030518
5.240083,0.049098,-0.326321,10.060280,-0.009396,-0.008832,0.006054,0.030518,0.030518,0.061035
5.250178,0.046703,-0.329315,10.053693,-0.011791,-0.011826,-0.000532,0.030518,0.030518,0.030518
5.260272,0.039518,-0.331710,10.056088,-0.018976,-0.014221,0.001863,0.061035,0.091553,0.000000
5.270372,0.036524,-0.327519,10.054891,-0.021970,-0.010030,0.000665,0.030518,0.091553,0.030518
5.280468,0.040715,-0.335303,10.053693,-0.017779,-0.017814,-0.000532,0.030518,0.091553,0.030518
5.290569,0.047900,-0.334105,10.057286,-0.010593,-0.016616,0.003060,0.030518,0.061035,0.030518
5.300665,0.053289,-0.325124,10.063273,-0.005205,-0.007635,0.009048,0.061035,0.000000,0.030518
5.310765,0.054487,-0.304167,10.076446,-0.004007,0.013322,0.022221,0.061035,0.030518,0.030518
5.320862,0.065264,-0.304766,10.079440,0.006770,0.012723,0.025214,0.061035,0.000000,0.061035
5.330960,0.065264,-0.299976,10.070458,0.006770,0.017513,0.016233,0.030518,0.000000,0.091553
5.341146,0.062869,-0.296384,10.065070,0.004375,0.021105,0.010844,0.030518,0.030518,0.091553
5.351234,0.068258,-0.298779,10.074650,0.009764,0.018710,0.020424,0.061035,0.000000,0.061035
5.361326,0.067061,-0.299377,10.077045,0.008567,0.018112,0.022819,0.091553,0.000000,0.061035
5.371415,0.070653,-0.300575,10.076446,0.012159,0.016914,0.022221,0.091553,0.000000,0.061035
5.381505,0.075443,-0.301174,10.075847,0.016949,0.016315,0.021622,0.061035,0.000000,0.061035
5.391594,0.076042,-0.301772,10.074650,0.017548,0.015717,0.020424,0.000000,0.030518,0.030518
5.401684,0.073647,-0.311951,10.079440,0.015153,0.005538,0.025214,0.030518,0.030518,0.030518
5.411774,0.073647,-0.316741,10.080038,0.015153,0.000748,0.025813,0.030518,0.030518,0.030518
5.421864,0.061672,-0.312550,10.078841,0.003178,0.004939,0.024616,0.061035,0.000000,0.030518
5.431953,0.062869,-0.313748,10.071656,0.004375,0.003741,0.017431,0.061035,0.030518,0.000000
5.442082,0.056283,-0.306563,10.066267,-0.002211,0.010927,0.012042,0.091553,0.000000,0.030518
5.452171,0.059277,-0.301772,10.074051,0.000783,0.015717,0.019826,0.061035,0.000000,0.030518
5.462263,0.059277,-0.301174,10.073452,0.000783,0.016315,0.019227,0.122070,0.030518,0.061035
5.472355,0.060474,-0.299377,10.079440,0.001980,0.018112,0.025214,0.122070,0.030518,0.061035
5.482444,0.061672,-0.299976,10.075248,0.003178,0.017513,0.021023,0.122070,0.000000,0.030518
5.492534,0.064067,-0.302371,10.068063,0.005573,0.015118,0.013838,0.091553,0.030518,0.030518
5.502622,0.062271,-0.305964,10.073452,0.003777,0.011525,0.019227,0.061035,0.030518,0.000000
5.512710,0.067659,-0.307161,10.065070,0.009165,0.010328,0.010844,0.061035,0.061035,0.000000
5.522800,0.067659,-0.306563,10.065070,0.009165,0.010927,0.010844,0.061035,0.061035,0.030518
5.532890,0.070653,-0.313748,10.064471,0.012159,0.003741,0.010245,0.061035,0.030518,0.030518
5.543010,0.068258,-0.320933,10.069860,0.009764,-0.003444,0.015634,0.061035,0.061035,0.030518
5.553097,0.068258,-0.320334,10.077045,0.009764,-0.002845,0.022819,0.061035,0.061035,0.030518
5.563186,0.062271,-0.313748,10.080038,0.003777,0.003741,0.025813,0.030518,0.061035,0.030518
5.573275,0.060474,-0.305365,10.071656,0.001980,0.012124,0.017431,0.030518,0.061035,0.061035
5.583364,0.058079,-0.306563,10.062076,-0.000415,0.010927,0.007850,0.000000,0.000000,0.030518
5.593454,0.054487,-0.310754,10.062675,-0.004007,0.006735,0.008449,0.000000,0.030518,0.061035
5.603545,0.058678,-0.301772,10.068063,0.000184,0.015717,0.013838,0.000000,0.030518,0.061035
5.613637,0.053888,-0.310754,10.081835,-0.004606,0.006735,0.027609,0.000000,0.030518,0.061035
5.623727,0.067659,-0.307161,10.078242,0.009165,0.010328,0.024017,0.030518,0.061035,0.061035
5.633817,0.066462,-0.302371,10.075248,0.007968,0.015118,0.021023,0.000000,0.030518,0.061035
5.643956,0.072449,-0.317340,10.058483,0.013955,0.000149,0.004258,0.000000,0.061035,0.061035
5.654046,0.071252,-0.323328,10.062076,0.012758,-0.005839,0.007850,-0.030518,0.061035,0.030518
5.664137,0.071252,-0.305365,10.069261,0.012758,0.012124,0.015035,-0.030518,0.030518,0.061035
5.674227,0.073647,-0.320334,10.059082,0.015153,-0.002845,0.004857,0.000000,0.000000,0.030518
5.684317,0.055085,-0.324525,10.053693,-0.003408,-0.007036,-0.000532,-0.061035,0.030518,0.030518
5.694408,0.065863,-0.317340,10.069860,0.007369,0.000149,0.015634,0.030518,0.030518,0.061035
5.704496,0.044308,-0.320334,10.081236,-0.014186,-0.002845,0.027011,-0.061035,0.061035,0.061035
5.714583,0.044907,-0.329315,10.084230,-0.013587,-0.011826,0.030004,0.000000,0.061035,0.061035
5.724674,0.049697,-0.321531,10.078242,-0.008797,-0.004042,0.024017,0.000000,0.030518,0.091553
5.734802,0.052690,-0.322729,10.064471,-0.005803,-0.005240,0.010245,0.000000,0.030518,0.091553
5.744891,0.056283,-0.316143,10.066866,-0.002211,0.001346,0.012640,0.000000,0.000000,0.091553
5.754983,0.051493,-0.316741,10.066866,-0.007001,0.000748,0.012640,0.000000,0.030518,0.091553
5.765074,0.052690,-0.316741,10.074650,-0.005803,0.000748,0.020424,0.000000,0.030518,0.091553
5.775162,0.057480,-0.311951,10.069860,-0.001013,0.005538,0.015634,0.000000,0.030518,0.091553
5.785250,0.056283,-0.313149,10.070458,-0.002211,0.004340,0.016233,0.000000,0.061035,0.061035
5.795337,0.067061,-0.319735,10.065070,0.008567,-0.002246,0.010844,0.000000,0.000000,0.000000
5.805435,0.066462,-0.322130,10.074051,0.007968,-0.004641,0.019826,0.000000,0.030518,0.000000
5.815522,0.062271,-0.316741,10.070458,0.003777,0.000748,0.016233,0.061035,0.030518,0.030518
5.825634,0.062271,-0.316741,10.071057,0.003777,0.000748,0.016832,0.030518,0.000000,0.030518
5.835722,0.068258,-0.314945,10.071057,0.009764,0.002544,0.016832,0.030518,0.091553,0.061035
5.845814,0.068857,-0.316741,10.069261,0.010363,0.000748,0.015035,0.030518,0.122070,0.030518
5.855901,0.067061,-0.317340,10.071057,0.008567,0.000149,0.016832,0.030518,0.122070,0.061035
5.865990,0.075443,-0.321531,10.065070,0.016949,-0.004042,0.010844,0.091553,0.061035,0.061035
5.876076,0.082029,-0.325124,10.075847,0.023536,-0.007635,0.021622,0.061035,0.061035,0.061035
5.886165,0.080832,-0.315544,10.077045,0.022338,0.001945,0.022819,0.122070,0.061035,0.091553
5.896264,0.075443,-0.309556,10.078841,0.016949,0.007933,0.024616,0.091553,0.061035,0.091553
5.906354,0.063468,-0.304766,10.078841,0.004974,0.012723,0.024616,0.030518,0.061035,0.091553
5.916442,0.040715,-0.289199,10.076446,-0.017779,0.028290,0.022221,0.000000,0.061035,0.091553
5.926532,0.027543,-0.274828,10.067465,-0.030951,0.042661,0.013239,0.030518,0.061035,0.061035
5.936619,0.016765,-0.274828,10.065668,-0.041729,0.042661,0.011443,0.061035,0.030518,0.030518
5.946737,0.019759,-0.288001,10.066866,-0.038735,0.029488,0.012640,0.030518,0.000000,-0.030518
5.956823,0.034728,-0.315544,10.078242,-0.023766,0.001945,0.024017,0.061035,0.000000,-0.030518
5.966909,0.042512,-0.329315,10.071057,-0.015982,-0.011826,0.016832,0.061035,0.030518,-0.030518
5.976995,0.053888,-0.343685,10.069261,-0.004606,-0.026196,0.015035,0.061035,0.000000,-0.030518
5.987083,0.079036,-0.358055,10.065668,0.020542,-0.040566,0.011443,0.061035,0.000000,-0.030518
5.997169,0.081431,-0.357457,10.062076,0.022937,-0.039968,0.007850,0.061035,0.030518,0.030518
6.007256,0.083826,-0.340093,10.068662,0.025332,-0.022604,0.014437,0.091553,0.000000,0.061035
6.017344,0.074844,-0.331710,10.069860,0.016350,-0.014221,0.015634,0.091553,0.000000,0.030518
6.027433,0.064067,-0.309556,10.072853,0.005573,0.007933,0.018628,0.122070,0.030518,0.061035
6.037521,0.058079,-0.299976,10.072853,-0.000415,0.017513,0.018628,0.061035,0.030518,0.061035
6.047706,0.044308,-0.288600,10.078841,-0.014186,0.028889,0.024616,0.030518,0.061035,0.030518
6.057801,0.042512,-0.288600,10.082433,-0.015982,0.028889,0.028208,0.030518,0.030518,0.000000
6.067897,0.043709,-0.296982,10.077045,-0.014785,0.020507,0.022819,0.091553,-0.030518,-0.030518
6.077990,0.048499,-0.310155,10.062675,-0.009995,0.007334,0.008449,0.091553,0.000000,0.000000
6.088087,0.052092,-0.315544,10.059681,-0.006402,0.001945,0.005455,0.061035,0.030518,-0.030518
6.098182,0.056283,-0.326321,10.063872,-0.002211,-0.008832,0.009647,0.091553,0.030518,0.000000
6.108282,0.062869,-0.322729,10.067465,0.004375,-0.005240,0.013239,0.061035,0.030518,0.030518
6.118378,0.055085,-0.328716,10.069860,-0.003408,-0.011227,0.015634,0.061035,0.061035,0.030518
6.128472,0.050894,-0.323328,10.065668,-0.007600,-0.005839,0.011443,0.061035,0.061035,0.030518
6.138568,0.050894,-0.315544,10.065070,-0.007600,0.001945,0.010844,0.061035,0.061035,0.091553
6.148777,0.044308,-0.314346,10.069860,-0.014186,0.003143,0.015634,0.091553,0.061035,0.061035
6.158866,0.045505,-0.309556,10.073452,-0.012988,0.007933,0.019227,0.091553,0.030518,0.061035
6.168957,0.053289,-0.305365,10.077643,-0.005205,0.012124,0.023418,0.030518,0.030518,0.000000
6.179046,0.056283,-0.307161,10.064471,-0.002211,0.010328,0.010245,0.061035,0.061035,0.000000
6.189134,0.067061,-0.313748,10.060878,0.008567,0.003741,0.006653,0.091553,0.030518,0.000000
6.199223,0.067659,-0.317939,10.065070,0.009165,-0.000450,0.010844,0.091553,0.030518,0.000000
6.209311,0.077239,-0.313748,10.069860,0.018746,0.003741,0.015634,0.091553,0.061035,0.000000
6.219399,0.074844,-0.316143,10.066267,0.016350,0.001346,0.012042,0.061035,0.061035,0.000000
6.229491,0.071252,-0.314945,10.074051,0.012758,0.002544,0.019826,0.091553,0.000000,0.030518
6.239580,0.064666,-0.302970,10.068063,0.006172,0.014519,0.013838,0.061035,0.030518,0.061035
6.249704,0.053289,-0.301772,10.072255,-0.005205,0.015717,0.018029,0.061035,0.061035,0.061035
6.259794,0.044907,-0.286205,10.075847,-0.013587,0.031284,0.021622,0.030518,0.091553,0.030518
6.269883,0.036524,-0.279619,10.077045,-0.021970,0.037870,0.022819,0.030518,0.091553,0.030518
6.279973,0.026345,-0.298180,10.066866,-0.032149,0.019309,0.012640,0.061035,0.061035,0.000000
6.290061,0.032333,-0.311951,10.066267,-0.026161,0.005538,0.012042,0.030518,0.061035,0.000000
6.300148,0.042512,-0.320334,10.067465,-0.015982,-0.002845,0.013239,0.000000,0.030518,-0.030518
6.310238,0.058678,-0.335303,10.066866,0.000184,-0.017814,0.012640,0.030518,0.030518,-0.030518
6.320328,0.065264,-0.352068,10.064471,0.006770,-0.034579,0.010245,0.030518,0.030518,-0.030518
6.330420,0.076042,-0.356858,10.056088,0.017548,-0.039369,0.001863,0.000000,0.030518,0.030518
6.340509,0.090412,-0.352667,10.059082,0.031918,-0.035178,0.004857,0.000000,0.000000,0.030518
6.350691,0.084424,-0.344883,10.066866,0.025931,-0.027394,0.012640,-0.030518,0.000000,0.030518
6.360787,0.081431,-0.338297,10.076446,0.022937,-0.020807,0.022221,0.000000,0.000000,0.061035
6.370883,0.074844,-0.326920,10.077643,0.016350,-0.009431,0.023418,-0.030518,0.030518,0.091553
6.380981,0.057480,-0.290396,10.062675,-0.001013,0.027093,0.008449,-0.030518,0.061035,0.091553
6.391078,0.046703,-0.280816,10.058483,-0.011791,0.036673,0.004258,-0.030518,0.061035,0.091553
6.401174,0.026944,-0.264650,10.068063,-0.031550,0.052839,0.013838,-0.030518,0.030518,0.030518
6.411270,0.023950,-0.270038,10.066866,-0.034544,0.047451,0.012640,-0.030518,0.030518,0.030518
6.421366,0.029938,-0.287402,10.069261,-0.028556,0.030087,0.015035,-0.030518,0.030518,0.000000
6.431462,0.038919,-0.295785,10.071057,-0.019575,0.021704,0.016832,0.000000,0.030518,0.000000
6.441557,0.050295,-0.313149,10.071656,-0.008198,0.004340,0.017431,-0.061035,0.000000,0.030518
6.451743,0.070054,-0.338895,10.067465,0.011560,-0.021406,0.013239,-0.061035,0.030518,0.030518
6.461833,0.074844,-0.341290,10.066267,0.016350,-0.023801,0.012042,-0.091553,0.061035,0.061035
6.471922,0.065863,-0.349673,10.064471,0.007369,-0.032184,0.010245,-0.030518,0.061035,0.061035
6.482013,0.065264,-0.341290,10.061477,0.006770,-0.023801,0.007252,-0.061035,0.061035,0.061035
6.492101,0.058079,-0.328716,10.062675,-0.000415,-0.011227,0.008449,-0.122070,0.061035,0.091553
6.502189,0.053289,-0.323328,10.063872,-0.005205,-0.005839,0.009647,-0.091553,0.091553,0.091553
6.512276,0.055085,-0.313149,10.063872,-0.003408,0.004340,0.009647,-0.091553,0.030518,0.030518
6.522365,0.057480,-0.308958,10.071656,-0.001013,0.008532,0.017431,-0.091553,0.030518,0.030518
6.532454,0.061073,-0.304766,10.064471,0.002579,0.012723,0.010245,-0.061035,0.000000,0.000000
6.542542,0.072449,-0.303569,10.066267,0.013955,0.013920,0.012042,-0.061035,0.030518,0.000000
6.552660,0.076042,-0.304167,10.075847,0.017548,0.013322,0.021622,-0.030518,0.000000,0.000000
6.562750,0.071252,-0.305964,10.075248,0.012758,0.011525,0.021023,0.000000,0.061035,0.030518
6.572839,0.067659,-0.304167,10.068063,0.009165,0.013322,0.013838,0.030518,0.030518,0.091553
6.582928,0.045505,-0.303569,10.064471,-0.012988,0.013920,0.010245,0.000000,0.000000,0.091553
6.593017,0.041314,-0.303569,10.059082,-0.017180,0.013920,0.004857,0.000000,0.030518,0.091553
6.603108,0.037722,-0.306563,10.077643,-0.020772,0.010927,0.023418,0.030518,0.030518,0.030518
6.613211,0.040715,-0.315544,10.063872,-0.017779,0.001945,0.009647,0.030518,0.030518,0.000000
6.623302,0.040117,-0.322130,10.057885,-0.018377,-0.004641,0.003659,0.030518,0.030518,0.000000
6.633392,0.046104,-0.325124,10.063273,-0.012390,-0.007635,0.009048,0.030518,0.061035,-0.061035
6.643481,0.049697,-0.345482,10.064471,-0.008797,-0.027993,0.010245,0.061035,0.030518,0.000000
6.653605,0.067061,-0.345482,10.067465,0.008567,-0.027993,0.013239,0.061035,-0.030518,0.030518
6.663695,0.079036,-0.341290,10.067465,0.020542,-0.023801,0.013239,0.091553,0.000000,-0.030518
6.673784,0.082029,-0.334704,10.065070,0.023536,-0.017215,0.010844,0.061035,-0.030518,0.061035
6.683876,0.074844,-0.325124,10.072853,0.016350,-0.007635,0.018628,0.030518,0.000000,0.030518
6.693963,0.070653,-0.319136,10.074051,0.012159,-0.001647,0.019826,0.000000,0.000000,0.061035
6.704050,0.063468,-0.304766,10.077045,0.004974,0.012723,0.022819,0.030518,0.030518,0.061035
6.714140,0.061672,-0.292791,10.075847,0.003178,0.024698,0.021622,0.030518,0.061035,0.030518
6.724230,0.058079,-0.291594,10.069860,-0.000415,0.025895,0.015634,0.000000,0.061035,0.030518
6.734318,0.053289,-0.290396,10.069860,-0.005205,0.027093,0.015634,0.000000,0.091553,0.030518
6.744404,0.047900,-0.294587,10.062675,-0.010593,0.022902,0.008449,0.030518,0.061035,0.030518
6.754530,0.043110,-0.307760,10.072255,-0.015384,0.009729,0.018029,0.000000,0.030518,0.000000
6.764614,0.053289,-0.312550,10.073452,-0.005205,0.004939,0.019227,0.030518,0.000000,0.000000
6.774705,0.058678,-0.335901,10.063273,0.000184,-0.018412,0.009048,0.030518,0.000000,0.030518
6.784821,0.059875,-0.338297,10.057885,0.001382,-0.020807,0.003659,0.030518,-0.030518,0.061035
6.794908,0.062869,-0.348475,10.053693,0.004375,-0.030986,-0.000532,0.000000,0.000000,0.091553
6.805031,0.063468,-0.349673,10.062076,0.004974,-0.032184,0.007850,0.000000,0.000000,0.091553
6.815117,0.056882,-0.347877,10.063273,-0.001612,-0.030388,0.009048,0.061035,0.000000,0.091553
6.825377,0.047900,-0.332908,10.065070,-0.010593,-0.015419,0.010844,0.061035,0.000000,0.091553
6.835465,0.047900,-0.321531,10.066267,-0.010593,-0.004042,0.012042,0.122070,0.000000,0.091553
6.845555,0.044907,-0.304167,10.066267,-0.013587,0.013322,0.012042,0.122070,0.000000,0.091553
6.855643,0.046104,-0.299976,10.071057,-0.012390,0.017513,0.016832,0.122070,0.030518,0.061035
6.865737,0.053289,-0.290995,10.078841,-0.005205,0.026494,0.024616,0.061035,0.030518,0.030518
6.875833,0.052690,-0.289199,10.077045,-0.005803,0.028290,0.022819,0.061035,0.030518,0.030518
6.885928,0.061672,-0.301174,10.066866,0.003178,0.016315,0.012640,0.030518,0.061035,0.030518
6.896018,0.063468,-0.305365,10.068063,0.004974,0.012124,0.013838,0.030518,0.030518,0.030518
6.906112,0.064067,-0.304167,10.071656,0.005573,0.013322,0.017431,0.030518,0.030518,0.061035
6.916207,0.065264,-0.310155,10.063872,0.006770,0.007334,0.009647,0.061035,0.030518,0.061035
6.926300,0.069456,-0.316741,10.068063,0.010962,0.000748,0.013838,0.030518,0.061035,0.061035
6.936390,0.061073,-0.318538,10.057885,0.002579,-0.001049,0.003659,0.000000,0.061035,0.091553
6.946483,0.052690,-0.322729,10.054891,-0.005803,-0.005240,0.000665,0.000000,0.061035,0.061035
6.956577,0.050295,-0.320334,10.068662,-0.008198,-0.002845,0.014437,0.061035,0.030518,0.091553
6.966665,0.049697,-0.320933,10.071656,-0.008797,-0.003444,0.017431,0.061035,0.000000,0.061035
6.976752,0.050295,-0.319136,10.072255,-0.008198,-0.001647,0.018029,0.030518,0.030518,0.030518
6.986839,0.055684,-0.313149,10.068063,-0.002810,0.004340,0.013838,0.030518,0.030518,0.030518
6.996949,0.059277,-0.310155,10.068662,0.000783,0.007334,0.014437,0.030518,0.030518,0.000000
7.007042,0.073048,-0.319136,10.068662,0.014554,-0.001647,0.014437,0.061035,0.000000,0.000000
7.017141,0.073647,-0.320933,10.071656,0.015153,-0.003444,0.017431,0.091553,0.030518,0.000000
7.027230,0.079634,-0.318538,10.071656,0.021141,-0.001049,0.017431,0.030518,0.061035,0.030518
7.037322,0.082029,-0.311353,10.069860,0.023536,0.006136,0.015634,0.030518,0.000000,0.061035
7.047413,0.082628,-0.302970,10.067465,0.024134,0.014519,0.013239,0.244141,0.061035,-0.030518
7.057503,0.058678,-0.309556,10.010583,0.000184,0.007933,-0.043642,0.213623,-0.030518,-0.030518
7.067593,0.082029,-0.290995,10.055490,0.023536,0.026494,0.001264,0.061035,0.000000,0.030518
7.077681,0.033530,-0.324525,10.072255,-0.024964,-0.007036,0.018029,0.091553,0.091553,0.030518
7.087769,0.043110,-0.311951,10.087822,-0.015384,0.005538,0.033597,0.061035,0.091553,0.061035
7.097856,0.073048,-0.325124,10.048304,0.014554,-0.007635,-0.005921,0.091553,0.000000,0.030518
7.107942,0.086819,-0.322130,10.053094,0.028326,-0.004641,-0.001131,0.061035,0.000000,0.030518
7.118380,0.090412,-0.325723,10.072853,0.031918,-0.008234,0.018628,0.061035,0.000000,0.030518
7.128465,0.071851,-0.327519,10.067465,0.013357,-0.010030,0.013239,0.000000,0.030518,0.030518
7.138555,0.067061,-0.335901,10.072853,0.008567,-0.018412,0.018628,0.030518,0.061035,0.061035
7.148641,0.068857,-0.328118,10.077045,0.010363,-0.010629,0.022819,0.030518,0.061035,0.091553
7.158730,0.082029,-0.320334,10.065668,0.023536,-0.002845,0.011443,0.030518,0.030518,0.091553
7.168820,0.059875,-0.322130,10.059681,0.001382,-0.004641,0.005455,0.061035,0.030518,0.091553
7.178908,0.053289,-0.292791,10.074051,-0.005205,0.024698,0.019826,0.030518,0.061035,0.091553
7.188998,0.050894,-0.286804,10.063872,-0.007600,0.030685,0.009647,0.061035,0.061035,0.091553
7.199087,0.035925,-0.302970,10.067465,-0.022569,0.014519,0.013239,0.091553,0.061035,0.091553
7.209173,0.041913,-0.292192,10.078242,-0.016581,0.025297,0.024017,0.030518,0.030518,0.030518
7.219264,0.049697,-0.298180,10.071057,-0.008797,0.019309,0.016832,0.000000,0.000000,0.030518
7.229354,0.061672,-0.284409,10.092014,0.003178,0.033080,0.037788,0.000000,0.030518,0.030518
7.239442,0.055684,-0.313149,10.066267,-0.002810,0.004340,0.012042,0.000000,0.000000,0.030518
7.249532,0.061073,-0.317939,10.092014,0.002579,-0.000450,0.037788,0.061035,0.000000,0.061035
7.259713,0.071252,-0.316143,10.080038,0.012758,0.001346,0.025813,0.030518,0.000000,0.030518
7.269808,0.070054,-0.336500,10.075847,0.011560,-0.019011,0.021622,0.091553,-0.030518,0.030518
7.279903,0.053888,-0.325723,10.068063,-0.004606,-0.008234,0.013838,0.061035,0.000000,0.000000
7.290016,0.039518,-0.335901,10.078841,-0.018976,-0.018412,0.024616,0.061035,0.030518,0.000000
7.300107,0.036524,-0.329315,10.056687,-0.021970,-0.011826,0.002462,0.061035,0.061035,0.030518
7.310202,0.028740,-0.328118,10.074650,-0.029754,-0.010629,0.020424,0.091553,0.061035,0.000000
7.320298,0.034728,-0.312550,10.057885,-0.023766,0.004939,0.003659,0.091553,0.030518,0.000000
7.330391,0.049697,-0.319735,10.056088,-0.008797,-0.002246,0.001863,0.122070,0.000000,0.030518
7.340486,0.052092,-0.317939,10.058483,-0.006402,-0.000450,0.004258,0.091553,0.000000,0.000000
7.350584,0.062271,-0.325124,10.068662,0.003777,-0.007635,0.014437,0.061035,0.000000,-0.030518
7.360796,0.065264,-0.324525,10.073452,0.006770,-0.007036,0.019227,0.030518,0.000000,0.000000
7.370883,0.067061,-0.319136,10.083032,0.008567,-0.001647,0.028807,0.000000,0.000000,0.030518
7.380971,0.067061,-0.319136,10.062675,0.008567,-0.001647,0.008449,0.061035,0.000000,0.061035
7.391056,0.061073,-0.313748,10.060280,0.002579,0.003741,0.006054,0.061035,0.030518,0.091553
7.401146,0.046104,-0.309556,10.071057,-0.012390,0.007933,0.016832,0.030518,0.000000,0.091553
7.411234,0.050894,-0.311353,10.060878,-0.007600,0.006136,0.006653,0.000000,-0.030518,0.091553
7.421325,0.042512,-0.311353,10.060878,-0.015982,0.006136,0.006653,0.000000,0.000000,0.061035
7.431415,0.047302,-0.326321,10.043514,-0.011192,-0.008832,-0.010711,0.030518,0.000000,0.030518
7.441506,0.048499,-0.324525,10.053094,-0.009995,-0.007036,-0.001131,0.030518,0.030518,0.030518
7.451607,0.062869,-0.326321,10.053693,0.004375,-0.008832,-0.000532,0.030518,0.030518,0.000000
7.461695,0.073647,-0.329914,10.063872,0.015153,-0.012425,0.009647,0.030518,0.030518,0.030518
7.471784,0.085023,-0.337698,10.064471,0.026529,-0.020209,0.010245,0.061035,0.000000,0.030518
7.481876,0.086819,-0.329315,10.065070,0.028326,-0.011826,0.010844,0.061035,0.000000,0.030518
7.491993,0.082628,-0.313748,10.058483,0.024134,0.003741,0.004258,0.061035,0.000000,0.030518
7.502083,0.080233,-0.308359,10.051897,0.021739,0.009130,-0.002328,0.061035,0.030518,0.061035
7.512172,0.069456,-0.303569,10.060878,0.010962,0.013920,0.006653,0.061035,0.030518,0.061035
7.522262,0.053888,-0.311951,10.064471,-0.004606,0.005538,0.010245,0.061035,0.000000,0.030518
7.532354,0.046104,-0.310155,10.061477,-0.012390,0.007334,0.007252,0.030518,0.030518,0.030518
7.542447,0.045505,-0.308958,10.048903,-0.012988,0.008532,-0.005322,0.030518,0.000000,0.000000
7.552538,0.044907,-0.307161,10.059082,-0.013587,0.010328,0.004857,0.030518,0.061035,0.030518
7.562663,0.058678,-0.316741,10.048903,0.000184,0.000748,-0.005322,0.000000,0.030518,0.000000
7.572750,0.064067,-0.322729,10.051298,0.005573,-0.005240,-0.002927,0.000000,0.030518,0.000000
7.582839,0.061073,-0.329315,10.052496,0.002579,-0.011826,-0.001730,0.000000,0.000000,0.030518
7.592928,0.056283,-0.329914,10.046508,-0.002211,-0.012425,-0.007717,0.030518,0.030518,0.030518
7.603019,0.058678,-0.331710,10.051298,0.000184,-0.014221,-0.002927,0.000000,0.061035,0.000000
7.613110,0.059875,-0.324525,10.054891,0.001382,-0.007036,0.000665,0.030518,0.061035,0.061035
7.623200,0.061672,-0.319136,10.060280,0.003178,-0.001647,0.006054,0.061035,0.091553,0.061035
7.633314,0.055085,-0.317939,10.056088,-0.003408,-0.000450,0.001863,0.061035,0.061035,0.061035
7.643401,0.046703,-0.314346,10.054292,-0.011791,0.003143,0.000067,0.061035,0.061035,0.061035
7.653489,0.049697,-0.316143,10.066267,-0.008797,0.001346,0.012042,0.000000,0.061035,0.030518
7.663683,0.055085,-0.308958,10.068662,-0.003408,0.008532,0.014437,0.030518,0.061035,0.030518
7.673780,0.055684,-0.310754,10.066866,-0.002810,0.006735,0.012640,0.061035,0.061035,0.000000
7.683872,0.061672,-0.302371,10.056088,0.003178,0.015118,0.001863,0.091553,0.091553,0.000000
7.693970,0.065863,-0.306563,10.056088,0.007369,0.010927,0.001863,0.091553,0.030518,0.000000
7.704065,0.070653,-0.310155,10.057286,0.012159,0.007334,0.003060,0.061035,0.030518,0.030518
7.714158,0.071252,-0.310754,10.069860,0.012758,0.006735,0.015634,0.061035,0.030518,0.030518
7.724255,0.065863,-0.314346,10.060878,0.007369,0.003143,0.006653,0.061035,0.061035,0.061035
7.734349,0.058678,-0.313748,10.065668,0.000184,0.003741,0.011443,0.091553,0.061035,0.061035
7.744444,0.051493,-0.312550,10.063872,-0.007001,0.004939,0.009647,0.061035,0.061035,0.061035
7.754541,0.047302,-0.320933,10.070458,-0.011192,-0.003444,0.016233,0.061035,0.061035,0.061035
7.764944,0.049098,-0.319735,10.072853,-0.009396,-0.002246,0.018628,0.061035,0.091553,0.030518
7.775265,0.046703,-0.314945,10.060878,-0.011791,0.002544,0.006653,0.061035,0.061035,0.061035
7.785354,0.053289,-0.317340,10.057286,-0.005205,0.000149,0.003060,0.061035,0.030518,0.030518
7.795458,0.058079,-0.318538,10.059681,-0.000415,-0.001049,0.005455,0.061035,0.061035,0.030518
7.805550,0.058678,-0.321531,10.064471,0.000184,-0.004042,0.010245,0.061035,0.061035,0.061035
7.815643,0.060474,-0.311353,10.058483,0.001980,0.006136,0.004258,0.030518,0.061035,0.061035
7.825745,0.065863,-0.311353,10.051897,0.007369,0.006136,-0.002328,0.030518,0.061035,0.061035
7.835850,0.065863,-0.313748,10.044113,0.007369,0.003741,-0.010112,0.030518,0.061035,0.061035
7.845942,0.062271,-0.310155,10.052496,0.003777,0.007334,-0.001730,0.030518,0.061035,0.091553
7.856050,0.058079,-0.307161,10.063273,-0.000415,0.010328,0.009048,0.061035,0.061035,0.061035
7.866150,0.055684,-0.304167,10.071057,-0.002810,0.013322,0.016832,0.030518,0.030518,0.061035
7.876241,0.060474,-0.302371,10.071057,0.001980,0.015118,0.016832,0.030518,0.030518,0.061035
7.886346,0.052690,-0.307161,10.064471,-0.005803,0.010328,0.010245,0.030518,0.061035,0.030518
7.896448,0.050295,-0.309556,10.063872,-0.008198,0.007933,0.009647,0.030518,0.030518,0.000000
7.906539,0.053888,-0.311353,10.066267,-0.004606,0.006136,0.012042,0.030518,0.061035,0.061035
7.916645,0.050894,-0.322729,10.062076,-0.007600,-0.005240,0.007850,0.000000,0.030518,0.061035
7.926747,0.053888,-0.327519,10.057885,-0.004606,-0.010030,0.003659,0.030518,0.061035,0.061035
7.936837,0.060474,-0.327519,10.058483,0.001980,-0.010030,0.004258,0.030518,0.061035,0.030518
7.946944,0.056882,-0.322729,10.056687,-0.001612,-0.005240,0.002462,0.030518,0.061035,0.030518
7.957050,0.051493,-0.321531,10.063273,-0.007001,-0.004042,0.009048,0.030518,0.030518,0.030518
7.967178,0.049697,-0.319735,10.063872,-0.008797,-0.002246,0.009647,0.030518,0.030518,0.061035
7.977337,0.045505,-0.318538,10.059082,-0.012988,-0.001049,0.004857,0.000000,0.030518,0.030518
7.987443,0.046104,-0.316143,10.063273,-0.012390,0.001346,0.009048,0.000000,0.030518,0.030518
7.997599,0.041314,-0.311951,10.061477,-0.017180,0.005538,0.007252,0.091553,0.030518,0.000000
8.007706,0.050295,-0.312550,10.061477,-0.008198,0.004939,0.007252,0.061035,0.061035,-0.030518
8.017812,0.047302,-0.319136,10.065668,-0.011192,-0.001647,0.011443,0.061035,0.061035,-0.030518
8.027905,0.050894,-0.325723,10.060280,-0.007600,-0.008234,0.006054,0.030518,0.030518,0.000000
8.038011,0.046703,-0.325723,10.062076,-0.011791,-0.008234,0.007850,0.061035,0.000000,-0.030518
8.048116,0.056882,-0.329315,10.053094,-0.001612,-0.011826,-0.001131,0.030518,0.000000,0.030518
8.058210,0.052690,-0.330513,10.057286,-0.005803,-0.013024,0.003060,0.061035,0.000000,0.030518
8.068346,0.049098,-0.330513,10.055490,-0.009396,-0.013024,0.001264,0.030518,0.000000,0.061035
8.078452,0.053888,-0.329315,10.061477,-0.004606,-0.011826,0.007252,0.030518,0.000000,0.030518
8.088540,0.052092,-0.328716,10.063273,-0.006402,-0.011227,0.009048,0.061035,0.061035,0.030518
8.098648,0.048499,-0.328118,10.077045,-0.009995,-0.010629,0.022819,0.000000,0.030518,0.061035
8.108747,0.047302,-0.331710,10.078242,-0.011192,-0.014221,0.024017,0.000000,0.091553,0.061035
8.118838,0.044308,-0.325723,10.076446,-0.014186,-0.008234,0.022221,0.030518,0.091553,0.061035
8.128944,0.044907,-0.322130,10.070458,-0.013587,-0.004641,0.016233,0.000000,0.061035,0.000000
8.139048,0.041314,-0.314945,10.063273,-0.017180,0.002544,0.009048,0.091553,0.061035,0.061035
8.149136,0.046703,-0.318538,10.064471,-0.011791,-0.001049,0.010245,0.122070,0.061035,0.061035
8.159242,0.046703,-0.313149,10.066267,-0.011791,0.004340,0.012042,0.061035,0.030518,0.000000
8.169384,0.056882,-0.312550,10.072853,-0.001612,0.004939,0.018628,0.061035,0.030518,-0.030518
8.179476,0.058678,-0.311353,10.074051,0.000184,0.006136,0.019826,0.061035,0.061035,0.000000
8.189570,0.064666,-0.311951,10.063872,0.006172,0.005538,0.009647,0.030518,0.061035,0.030518
8.199676,0.064666,-0.311951,10.066866,0.006172,0.005538,0.012640,0.030518,0.061035,0.030518
8.209768,0.055085,-0.310155,10.072255,-0.003408,0.007334,0.018029,0.030518,0.030518,0.061035
8.219860,0.062271,-0.313748,10.071656,0.003777,0.003741,0.017431,0.030518,0.030518,0.091553
8.229971,0.064666,-0.310155,10.068063,0.006172,0.007334,0.013838,0.061035,0.000000,0.061035
8.240062,0.059277,-0.325124,10.058483,0.000783,-0.007635,0.004258,0.061035,0.000000,0.061035
8.250154,0.061672,-0.321531,10.064471,0.003178,-0.004042,0.010245,0.030518,0.000000,0.061035
8.260259,0.067659,-0.319136,10.066866,0.009165,-0.001647,0.012640,0.061035,-0.030518,0.030518
8.270386,0.065264,-0.317340,10.069261,0.006770,0.000149,0.015035,0.061035,0.000000,0.061035
8.280478,0.067659,-0.319136,10.062076,0.009165,-0.001647,0.007850,0.030518,0.030518,0.061035
8.290588,0.068258,-0.318538,10.060878,0.009764,-0.001049,0.006653,0.030518,0.061035,0.061035
8.300678,0.070054,-0.319735,10.065070,0.011560,-0.002246,0.010844,0.030518,0.000000,0.061035
8.310769,0.067061,-0.316741,10.073452,0.008567,0.000748,0.019227,0.030518,0.030518,0.030518
8.320861,0.061672,-0.314945,10.074051,0.003178,0.002544,0.019826,0.030518,0.030518,0.000000
8.330950,0.064067,-0.313149,10.065070,0.005573,0.004340,0.010844,0.030518,0.030518,0.000000
8.341043,0.061073,-0.311951,10.055490,0.002579,0.005538,0.001264,0.000000,0.030518,0.000000
8.351139,0.059875,-0.316143,10.059082,0.001382,0.001346,0.004857,0.061035,-0.030518,0.030518
8.361242,0.057480,-0.314945,10.060280,-0.001013,0.002544,0.006054,0.030518,0.000000,0.030518
8.371371,0.061672,-0.309556,10.058483,0.003178,0.007933,0.004258,0.061035,0.000000,0.000000
8.381476,0.064067,-0.316741,10.050101,0.005573,0.000748,-0.004125,0.061035,-0.030518,0.000000
8.391568,0.058678,-0.321531,10.051897,0.000184,-0.004042,-0.002328,0.061035,0.000000,0.030518
8.401660,0.060474,-0.325124,10.064471,0.001980,-0.007635,0.010245,0.061035,0.030518,0.030518
8.411753,0.067061,-0.319136,10.062076,0.008567,-0.001647,0.007850,0.030518,0.030518,0.061035
8.421861,0.068258,-0.315544,10.063273,0.009764,0.001945,0.009048,0.061035,0.000000,0.061035
8.431953,0.064666,-0.314945,10.059681,0.006172,0.002544,0.005455,0.061035,0.000000,0.030518
8.442045,0.056283,-0.311951,10.054292,-0.002211,0.005538,0.000067,0.030518,0.061035,0.000000
8.452135,0.052690,-0.313149,10.060878,-0.005803,0.004340,0.006653,0.091553,0.061035,0.000000
8.462226,0.058079,-0.314346,10.062076,-0.000415,0.003143,0.007850,0.091553,0.030518,0.000000
8.472352,0.053289,-0.316143,10.062675,-0.005205,0.001346,0.008449,0.061035,0.030518,0.000000
8.482444,0.052690,-0.316143,10.057885,-0.005803,0.001346,0.003659,0.091553,0.000000,0.030518
8.492536,0.055085,-0.319735,10.053094,-0.003408,-0.002246,-0.001131,0.061035,-0.030518,0.000000
8.502636,0.057480,-0.323328,10.054891,-0.001013,-0.005839,0.000665,0.061035,0.000000,0.061035
8.512727,0.055085,-0.328118,10.057885,-0.003408,-0.010629,0.003659,0.091553,-0.030518,0.091553
8.522820,0.054487,-0.325723,10.059681,-0.004007,-0.008234,0.005455,0.061035,0.000000,0.061035
8.532913,0.053289,-0.325124,10.054891,-0.005205,-0.007635,0.000665,0.030518,0.000000,0.030518
8.543004,0.051493,-0.320933,10.057885,-0.007001,-0.003444,0.003659,0.030518,0.030518,0.030518
8.553094,0.052690,-0.320933,10.054292,-0.005803,-0.003444,0.000067,0.030518,0.061035,0.061035
8.563186,0.051493,-0.323926,10.051298,-0.007001,-0.006437,-0.002927,0.061035,0.061035,0.030518
8.573369,0.059277,-0.323926,10.056088,0.000783,-0.006437,0.001863,0.061035,0.091553,0.000000
8.583461,0.049098,-0.325124,10.044113,-0.009396,-0.007635,-0.010112,0.030518,0.061035,0.030518
8.593552,0.044907,-0.324525,10.044113,-0.013587,-0.007036,-0.010112,0.030518,0.030518,0.000000
8.603643,0.043709,-0.326920,10.044113,-0.014785,-0.009431,-0.010112,0.030518,0.030518,0.030518
8.613734,0.055684,-0.321531,10.050101,-0.002810,-0.004042,-0.004125,0.061035,0.030518,0.030518
8.623822,0.057480,-0.317340,10.049502,-0.001013,0.000149,-0.004723,0.061035,0.000000,0.000000
8.633910,0.057480,-0.308958,10.048304,-0.001013,0.008532,-0.005921,0.061035,0.030518,0.030518
8.644001,0.058079,-0.314945,10.051897,-0.000415,0.002544,-0.002328,0.061035,0.000000,0.030518
8.654093,0.053888,-0.321531,10.059082,-0.004606,-0.004042,0.004857,0.091553,0.030518,0.061035
8.664213,0.056882,-0.317939,10.060878,-0.001612,-0.000450,0.006653,0.061035,0.030518,0.030518
8.674318,0.061073,-0.315544,10.066866,0.002579,0.001945,0.012640,0.030518,0.000000,-0.030518
8.684396,0.062869,-0.319735,10.074051,0.004375,-0.002246,0.019826,0.030518,0.000000,0.000000
8.694479,0.061672,-0.314346,10.072255,0.003178,0.003143,0.018029,0.030518,0.030518,0.030518
8.704558,0.062271,-0.319735,10.070458,0.003777,-0.002246,0.016233,0.061035,0.061035,0.030518
8.714640,0.056283,-0.319136,10.068662,-0.002211,-0.001647,0.014437,0.030518,0.030518,0.030518
8.724736,0.053888,-0.316741,10.064471,-0.004606,0.000748,0.010245,0.000000,0.030518,0.030518
8.734818,0.059875,-0.319735,10.060878,0.001382,-0.002246,0.006653,0.000000,0.030518,0.030518
8.744905,0.061672,-0.315544,10.059681,0.003178,0.001945,0.005455,0.030518,0.030518,0.000000
8.754984,0.057480,-0.308359,10.068662,-0.001013,0.009130,0.014437,0.061035,0.030518,0.000000
8.765064,0.062271,-0.307161,10.066267,0.003777,0.010328,0.012042,0.061035,0.061035,0.000000
8.775143,0.061073,-0.313748,10.063273,0.002579,0.003741,0.009048,0.061035,0.030518,0.000000
8.785256,0.053888,-0.314346,10.067465,-0.004606,0.003143,0.013239,0.030518,0.030518,0.030518
8.795350,0.048499,-0.316741,10.069261,-0.009995,0.000748,0.015035,0.061035,0.030518,0.061035
8.805448,0.049098,-0.313149,10.074650,-0.009396,0.004340,0.020424,0.030518,0.030518,0.030518
8.815541,0.055085,-0.317939,10.066267,-0.003408,-0.000450,0.012042,0.030518,0.000000,0.030518
8.825634,0.058678,-0.319735,10.063872,0.000184,-0.002246,0.009647,0.061035,-0.030518,0.030518
8.835728,0.056882,-0.320334,10.065070,-0.001612,-0.002845,0.010844,0.000000,-0.030518,0.030518
8.845845,0.060474,-0.313149,10.059681,0.001980,0.004340,0.005455,0.000000,-0.030518,0.030518
8.856084,0.062271,-0.319136,10.062675,0.003777,-0.001647,0.008449,0.030518,0.000000,0.061035
8.866182,0.059875,-0.332309,10.064471,0.001382,-0.014820,0.010245,0.000000,-0.030518,0.000000
8.876276,0.064666,-0.323328,10.067465,0.006172,-0.005839,0.013239,0.000000,-0.030518,0.030518
8.886369,0.064067,-0.318538,10.063273,0.005573,-0.001049,0.009048,0.000000,0.000000,0.061035
8.896458,0.060474,-0.321531,10.060280,0.001980,-0.004042,0.006054,-0.030518,0.000000,0.061035
8.906653,0.056283,-0.325124,10.067465,-0.002211,-0.007635,0.013239,0.000000,0.000000,0.061035
8.917106,0.050295,-0.318538,10.075248,-0.008198,-0.001049,0.021023,0.000000,0.030518,0.030518
8.927297,0.055684,-0.319735,10.070458,-0.002810,-0.002246,0.016233,0.030518,0.030518,0.030518
8.937412,0.052690,-0.315544,10.061477,-0.005803,0.001945,0.007252,0.000000,0.030518,0.061035
8.947513,0.055085,-0.314945,10.062076,-0.003408,0.002544,0.007850,0.000000,0.061035,0.030518
8.957611,0.061672,-0.318538,10.068662,0.003178,-0.001049,0.014437,0.000000,0.061035,0.061035
8.967699,0.058678,-0.313149,10.069860,0.000184,0.004340,0.015634,0.000000,0.091553,0.030518
8.977803,0.068857,-0.311353,10.064471,0.010363,0.006136,0.010245,0.000000,0.061035,0.091553
8.987891,0.073048,-0.315544,10.065668,0.014554,0.001945,0.011443,-0.030518,0.091553,0.091553
8.998025,0.077838,-0.319136,10.063273,0.019344,-0.001647,0.009048,0.000000,0.061035,0.091553
9.008118,0.078437,-0.319735,10.074650,0.019943,-0.002246,0.020424,0.030518,0.030518,0.122070
9.018210,0.073647,-0.323926,10.072853,0.015153,-0.006437,0.018628,0.000000,0.030518,0.122070
9.028292,0.067659,-0.326321,10.062076,0.009165,-0.008832,0.007850,0.030518,0.061035,0.122070
9.038383,0.064067,-0.333506,10.057286,0.005573,-0.016017,0.003060,0.091553,0.061035,0.122070
9.048474,0.058079,-0.347877,10.060878,-0.000415,-0.030388,0.006653,0.091553,0.091553,0.091553
9.058556,0.052092,-0.346080,10.057286,-0.006402,-0.028591,0.003060,0.122070,0.091553,0.091553
9.068648,0.052690,-0.349074,10.062076,-0.005803,-0.031585,0.007850,0.122070,0.091553,0.091553
9.078809,0.063468,-0.359852,10.067465,0.004974,-0.042363,0.013239,0.183105,0.122070,0.091553
9.088902,0.070653,-0.357457,10.074051,0.012159,-0.039968,0.019826,0.183105,0.091553,0.091553
9.099003,0.079634,-0.349074,10.086625,0.021141,-0.031585,0.032399,0.152588,0.091553,0.122070
9.109114,0.082628,-0.345482,10.086625,0.024134,-0.027993,0.032399,0.122070,0.122070,0.122070
9.119208,0.076641,-0.329315,10.062675,0.018147,-0.011826,0.008449,0.122070,0.061035,0.183105
9.129307,0.067061,-0.316741,10.066866,0.008567,0.000748,0.012640,0.122070,0.091553,0.152588
9.139421,0.045505,-0.282612,10.062076,-0.012988,0.034877,0.007850,0.091553,0.091553,0.183105
9.149515,0.035925,-0.278421,10.068662,-0.022569,0.039068,0.014437,0.091553,0.122070,0.183105
9.159612,0.028141,-0.277224,10.074650,-0.030352,0.040266,0.020424,0.152588,0.091553,0.183105
9.169712,0.029938,-0.274230,10.074650,-0.028556,0.043259,0.020424,0.122070,0.091553,0.152588
9.179903,0.029938,-0.282014,10.066866,-0.028556,0.035475,0.012640,0.122070,0.091553,0.122070
9.189993,0.041314,-0.311951,10.059681,-0.017180,0.005538,0.005455,0.122070,0.152588,0.091553
9.200097,0.044308,-0.322130,10.066267,-0.014186,-0.004641,0.012042,0.091553,0.122070,0.091553
9.210187,0.042512,-0.341889,10.070458,-0.015982,-0.024400,0.016233,0.152588,0.122070,0.122070
9.220280,0.038320,-0.344883,10.063872,-0.020174,-0.027394,0.009647,0.152588,0.091553,0.122070
9.230369,0.024549,-0.334704,10.051298,-0.033945,-0.017215,-0.002927,0.122070,0.122070,0.091553
9.240459,-0.005389,-0.300575,10.056687,-0.063883,0.016914,0.002462,0.152588,0.122070,0.091553
9.250550,-0.019759,-0.290995,10.063273,-0.078253,0.026494,0.009048,0.122070,0.091553,0.091553
9.260640,0.049098,-0.420925,10.213561,-0.009396,-0.103436,0.159335,0.335693,-0.152588,-0.061035
9.270730,0.083826,-0.925076,10.762619,0.025332,-0.607587,0.708394,4.211426,-0.732422,-1.434326
9.280849,0.383203,-1.280737,11.038046,0.324709,-0.963248,0.983821,26.031494,-4.028320,-11.810303
9.290938,0.558040,-1.257984,11.054213,0.499546,-0.940495,0.999987,38.360596,-6.042480,-23.742676
9.301027,0.603545,-1.169368,11.094928,0.545051,-0.851879,1.040703,64.056396,-10.711670,-54.748535
9.311116,0.648452,-0.463436,10.635084,0.589958,-0.145947,0.580859,71.472168,-8.422852,-71.472168
9.321223,0.414338,-0.064666,10.538086,0.355845,0.252824,0.483861,78.460693,-7.507324,-105.560303
9.331578,0.297581,0.336500,9.963281,0.239087,0.653989,-0.090944,79.040527,-7.965088,-120.666504
9.341710,0.227527,0.665217,9.747729,0.169033,0.982706,-0.306496,77.514648,-9.338379,-134.429932
9.357399,0.220342,1.150807,8.590336,0.161848,1.468296,-1.463889,52.978516,-14.587402,-158.081055
9.367598,0.192200,1.359772,8.257429,0.133706,1.677261,-1.796797,36.956787,-15.258789,-158.782959
9.377774,0.154479,1.355581,8.048463,0.095985,1.673070,-2.005762,-6.530762,-17.242432,-152.404785
9.387944,0.067061,1.565744,7.752678,0.008567,1.883233,-2.301547,-31.127930,-17.181396,-146.850586
9.398102,0.140707,1.669329,7.835905,0.082214,1.986818,-2.218320,-57.220459,-21.240234,-140.960693
9.408273,1.126857,1.088536,8.811876,1.068363,1.406025,-1.242350,-99.182129,-1.831055,-125.335693
9.418425,0.385598,0.658032,9.066346,0.327104,0.975521,-0.987879,-114.105225,4.150391,-118.316650
9.428581,-0.472418,-0.565823,11.511661,-0.530911,-0.248334,1.457436,-103.363037,25.177002,-98.846436
9.438742,-0.789159,-0.438887,11.603271,-0.847653,-0.121398,1.549045,-81.665039,21.026611,-91.094971
9.448908,-0.837059,-0.501757,11.500285,-0.895553,-0.184268,1.446060,-31.555176,-0.885010,-89.172363
9.459102,-0.337099,-0.318538,10.911709,-0.395593,-0.001049,0.857484,-13.122559,-10.070801,-88.256836
9.469262,-0.271236,-0.137115,9.998009,-0.329730,0.180374,-0.056216,-9.918213,-4.089355,-82.733154
9.479417,0.216151,-0.452659,10.493179,0.157657,-0.135170,0.438954,-6.927490,-4.272461,-83.496094
9.489545,0.347877,-0.753832,10.361453,0.289383,-0.436343,0.307228,-1.312256,-3.997803,-85.388184
9.499688,0.097597,-1.119073,11.018886,0.039103,-0.801584,0.964661,16.632080,-4.760742,-90.698242
9.509817,0.317340,-1.354982,11.081157,0.258846,-1.037493,1.026931,28.747559,-6.469727,-96.954346
9.519958,0.638273,-1.457369,10.835667,0.579779,-1.139880,0.781442,53.436279,-11.718750,-113.342285
9.530109,0.548459,-0.867596,10.702744,0.489966,-0.550107,0.648518,62.103271,-16.387939,-121.978760
9.540261,0.624501,-0.458646,10.413545,0.566007,-0.141157,0.359320,66.925049,-19.805908,-139.556885
9.550394,0.754431,0.185614,9.486074,0.695937,0.503103,-0.568152,62.194824,-12.084961,-147.033691
9.560531,0.729283,0.432301,9.135203,0.670790,0.749790,-0.919022,54.473877,-13.519287,-154.144287
9.570674,0.571811,0.814905,8.731642,0.513317,1.132394,-1.322583,31.463623,-15.045166,-173.065186
9.580816,0.341889,1.013692,8.715476,0.283395,1.331181,-1.338749,17.181396,-15.899658,-183.898926
9.590966,0.629291,0.384999,8.910071,0.570798,0.702488,-1.144154,-19.042969,-19.012451,-201.690674
9.601136,0.552052,0.607137,9.035211,0.493558,0.924626,-1.019014,-29.174805,-7.568359,-205.963135
9.611284,-0.069456,0.668210,9.642947,-0.127949,0.985699,-0.411278,-47.821045,2.563477,-208.679199
9.621399,-0.315544,0.570613,10.055490,-0.374038,0.888102,0.001264,-50.750732,5.706787,-213.653564
9.631553,-0.448467,0.555046,9.939930,-0.506961,0.872535,-0.114296,-54.168701,8.819580,-230.346680
9.641682,-0.642464,0.028740,9.632170,-0.700958,0.346229,-0.422056,-57.647705,12.725830,-232.116699
9.651832,-0.865800,-0.250280,9.327404,-0.924293,0.067209,-0.726822,-63.659668,16.387939,-228.179932
9.661955,-1.050216,-0.771795,9.404044,-1.108710,-0.454306,-0.650181,-78.521729,22.583008,-214.630127
9.672105,-1.089734,-0.941841,9.586066,-1.148228,-0.624352,-0.468160,-85.296631,27.130127,-204.681396
9.682255,-1.747766,-1.763333,10.990146,-1.806259,-1.445844,0.935920,-57.220459,21.057129,-182.556152
9.692374,-1.534609,-1.755549,10.564431,-1.593103,-1.438060,0.510206,-44.525146,17.456055,-174.194336
9.702517,-1.568139,-1.699266,10.561437,-1.626633,-1.381777,0.507212,-27.587891,12.512207,-158.508301
9.712663,-1.284928,-1.429827,10.332114,-1.343422,-1.112338,0.277889,-21.301270,10.986328,-150.024414
9.722795,-0.929268,-1.189726,10.332114,-0.987761,-0.872237,0.277889,-12.298584,8.453369,-129.577637
9.732931,-0.240101,-0.340093,10.148895,-0.298595,-0.022604,0.094670,-7.537842,6.500244,-118.011475
9.743068,-0.117356,-0.120350,10.109976,-0.175850,0.197139,0.055751,-6.927490,6.134033,-107.269287
9.753205,0.110770,0.022154,10.151290,0.052276,0.339643,0.097065,-4.486084,4.608154,-87.036133
9.763352,-0.026345,0.068857,10.129735,-0.084839,0.386346,0.075510,-4.241943,4.364014,-78.430176
9.773470,-0.092208,0.120948,10.167457,-0.150702,0.438438,0.113231,-1.556396,2.990723,-64.086914
9.783612,-0.081431,0.004790,10.075847,-0.139925,0.322279,0.021622,-2.075195,2.807617,-57.647705
9.793751,-0.101788,-0.107776,10.079440,-0.160282,0.209713,0.025214,-0.823975,2.105713,-47.637939
9.803936,-0.114362,-0.235909,10.045909,-0.172856,0.081580,-0.008316,-0.579834,1.892090,-43.457031
9.814087,-0.136516,-0.320334,10.030342,-0.195010,-0.002845,-0.023884,-0.793457,1.831055,-40.069580
9.824224,-0.129930,-0.501158,10.114766,-0.188424,-0.183669,0.060541,0.305176,1.373291,-34.362793
9.834353,-0.172441,-0.550256,10.088421,-0.230935,-0.232767,0.034196,1.220703,1.190186,-32.928467
9.844483,-0.161664,-0.601150,10.122550,-0.220158,-0.283661,0.068325,3.326416,0.518799,-34.240723
9.854708,-0.132924,-0.611927,10.066267,-0.191417,-0.294438,0.012042,4.058838,0.244141,-36.529541
9.864859,-0.146096,-0.467029,9.968071,-0.204590,-0.149540,-0.086154,3.387451,0.549316,-45.654297
9.875112,-0.118553,-0.419727,9.938134,-0.177047,-0.102238,-0.116092,1.953125,1.037598,-51.086426
9.885339,-0.151485,-0.298180,9.917776,-0.209979,0.019309,-0.136450,-1.708984,2.685547,-60.424805
9.895515,-0.110770,-0.070653,9.861493,-0.169264,0.246836,-0.192732,-4.211426,3.601074,-61.798096
9.905634,-0.166454,-0.197589,10.305170,-0.224948,0.119900,0.250945,-4.821777,3.692627,-61.065674
9.916012,-0.038320,-0.213755,10.172247,-0.096814,0.103734,0.118021,-2.807617,3.082275,-56.457520
9.926209,-0.034129,-0.244292,10.037527,-0.092623,0.073197,-0.016699,-2.227783,2.685547,-52.429199
9.936456,-0.162861,-0.562231,10.101594,-0.221355,-0.244742,0.047368,-1.770020,2.197266,-42.572021
9.946715,-0.258662,-0.653242,10.068662,-0.317156,-0.335753,0.014437,-1.403809,1.953125,-37.689209
9.956925,-0.416733,-0.798739,10.050699,-0.475227,-0.481250,-0.003526,-0.885010,1.373291,-27.404785
9.967064,-0.436492,-0.824485,10.062675,-0.494986,-0.506996,0.008449,-0.671387,1.129150,-21.728516
9.977273,-0.373024,-0.744851,10.052496,-0.431518,-0.427362,-0.001730,-0.396729,0.671387,-13.031006
9.987663,-0.358055,-0.726888,10.056687,-0.416549,-0.409399,0.002462,-0.335693,0.549316,-10.101318
9.997858,-0.334105,-0.700543,10.055490,-0.392599,-0.383054,0.001264,-0.152588,0.305176,-6.072998
10.008032,-0.284409,-0.684976,10.047706,-0.342902,-0.367487,-0.006520,-0.091553,0.244141,-4.730225
10.018242,-0.269440,-0.672402,10.040521,-0.327934,-0.354913,-0.013705,-0.030518,0.213623,-3.692627
10.028441,-0.232916,-0.658630,10.039922,-0.291410,-0.341141,-0.014304,-0.030518,0.122070,-2.197266
10.038551,-0.222737,-0.646057,10.042317,-0.281231,-0.328567,-0.011908,0.030518,0.091553,-1.708984
10.048620,-0.207169,-0.641266,10.038126,-0.265663,-0.323777,-0.016100,0.030518,0.061035,-1.007080
10.058694,-0.204175,-0.629890,10.044113,-0.262669,-0.312401,-0.010112,0.030518,0.091553,-0.762939
10.068761,-0.204774,-0.621508,10.037527,-0.263268,-0.304019,-0.016699,0.061035,0.061035,-0.427246
10.078827,-0.208367,-0.612526,10.048903,-0.266861,-0.295037,-0.005322,0.061035,0.061035,-0.305176
10.088892,-0.220941,-0.604144,10.048903,-0.279434,-0.286655,-0.005322,0.122070,0.091553,-0.213623
10.098959,-0.231119,-0.584984,10.048304,-0.289613,-0.267494,-0.005921,0.183105,0.061035,-0.091553
10.109024,-0.231119,-0.587977,10.048903,-0.289613,-0.270488,-0.005322,0.183105,0.091553,-0.030518
10.119090,-0.229323,-0.579595,10.045909,-0.287817,-0.262106,-0.008316,0.183105,0.061035,0.000000
10.129156,-0.232916,-0.585582,10.046508,-0.291410,-0.268093,-0.007717,0.152588,0.061035,0.030518
10.139225,-0.226928,-0.590372,10.052496,-0.285422,-0.272883,-0.001730,0.061035,0.061035,0.000000
10.149291,-0.228724,-0.596360,10.049502,-0.287218,-0.278871,-0.004723,0.000000,0.061035,0.000000
10.159357,-0.224533,-0.602946,10.055490,-0.283027,-0.285457,0.001264,-0.030518,0.061035,0.030518
10.169423,-0.211959,-0.612526,10.045909,-0.270453,-0.295037,-0.008316,-0.061035,0.061035,0.030518
10.179488,-0.213755,-0.610131,10.039323,-0.272249,-0.292642,-0.014902,-0.030518,0.061035,0.061035
10.189554,-0.213755,-0.625100,10.042317,-0.272249,-0.307611,-0.011908,-0.030518,0.061035,0.061035
10.199619,-0.220941,-0.627495,10.041718,-0.279434,-0.310006,-0.012507,-0.091553,0.030518,0.091553
10.209684,-0.219743,-0.625699,10.043514,-0.278237,-0.308210,-0.010711,-0.030518,0.030518,0.091553
10.219750,-0.231718,-0.641266,10.037527,-0.290212,-0.323777,-0.016699,-0.030518,0.000000,0.091553
10.229816,-0.224533,-0.646057,10.048903,-0.283027,-0.328567,-0.005322,0.000000,0.000000,0.061035
10.239883,-0.223934,-0.625100,10.043514,-0.282428,-0.307611,-0.010711,0.030518,0.030518,0.030518
10.249948,-0.220342,-0.620909,10.036329,-0.278836,-0.303420,-0.017896,0.030518,0.030518,0.000000
10.260014,-0.219144,-0.607736,10.041718,-0.277638,-0.290247,-0.012507,0.091553,0.000000,0.061035
10.270080,-0.213157,-0.602347,10.046508,-0.271651,-0.284858,-0.007717,0.122070,0.030518,0.091553
10.280146,-0.210762,-0.599952,10.047107,-0.269256,-0.282463,-0.007118,0.183105,-0.030518,0.061035
10.290212,-0.219743,-0.596959,10.038724,-0.278237,-0.279470,-0.015501,0.183105,0.000000,0.061035
10.300278,-0.229323,-0.593366,10.041119,-0.287817,-0.275877,-0.013106,0.244141,0.030518,0.061035
10.310344,-0.238903,-0.592767,10.050699,-0.297397,-0.275278,-0.003526,0.183105,0.000000,0.030518
10.320410,-0.247885,-0.599354,10.045909,-0.306378,-0.281865,-0.008316,0.152588,0.000000,0.061035
10.330476,-0.247286,-0.619113,10.036329,-0.305780,-0.301624,-0.017896,0.091553,0.030518,0.000000
10.340542,-0.243094,-0.621508,10.034533,-0.301588,-0.304019,-0.019692,0.122070,0.030518,-0.030518
10.350608,-0.238304,-0.619113,10.032138,-0.296798,-0.301624,-0.022087,0.152588,0.030518,0.000000
10.360673,-0.219743,-0.620310,10.046508,-0.278237,-0.302821,-0.007717,0.091553,0.030518,0.000000
10.370739,-0.221539,-0.614323,10.044113,-0.280033,-0.296833,-0.010112,0.061035,0.000000,-0.030518
10.380805,-0.210163,-0.607736,10.038724,-0.268657,-0.290247,-0.015501,0.030518,0.030518,0.000000
10.390870,-0.207768,-0.607736,10.039323,-0.266262,-0.290247,-0.014902,0.000000,0.030518,0.000000
10.400936,-0.198787,-0.588576,10.050699,-0.257280,-0.271087,-0.003526,-0.091553,0.061035,0.061035
10.411002,-0.198188,-0.589175,10.054292,-0.256682,-0.271686,0.000067,-0.091553,0.030518,0.061035
10.421068,-0.195194,-0.586780,10.054891,-0.253688,-0.269291,0.000665,-0.061035,0.030518,0.061035
10.431134,-0.202978,-0.583786,10.053693,-0.261472,-0.266297,-0.000532,-0.030518,0.061035,0.091553
10.441199,-0.209564,-0.578397,10.047107,-0.268058,-0.260908,-0.007118,0.000000,0.030518,0.091553
10.451265,-0.219743,-0.587379,10.053693,-0.278237,-0.269890,-0.000532,0.061035,0.000000,0.061035
10.461330,-0.231119,-0.595761,10.054292,-0.289613,-0.278272,0.000067,0.061035,0.030518,0.061035
10.471397,-0.236508,-0.612526,10.046508,-0.295002,-0.295037,-0.007717,0.030518,0.030518,0.061035
10.481462,-0.242496,-0.629890,10.047107,-0.300990,-0.312401,-0.007118,0.030518,0.030518,0.030518
10.491529,-0.238304,-0.633483,10.043514,-0.296798,-0.315994,-0.010711,0.030518,0.000000,0.030518
10.501594,-0.236508,-0.638273,10.038724,-0.295002,-0.320784,-0.015501,0.000000,0.030518,0.030518
10.511668,-0.226928,-0.642464,10.045909,-0.285422,-0.324975,-0.008316,0.030518,0.000000,0.030518
10.521751,-0.219743,-0.644260,10.044113,-0.278237,-0.326771,-0.010112,0.091553,0.000000,0.030518
10.531819,-0.222138,-0.642464,10.045311,-0.280632,-0.324975,-0.008915,0.091553,0.000000,0.000000
10.541885,-0.222737,-0.639470,10.042317,-0.281231,-0.321981,-0.011908,0.122070,0.000000,0.030518
10.551950,-0.223934,-0.635279,10.050699,-0.282428,-0.317790,-0.003526,0.152588,0.000000,0.061035
10.562015,-0.221539,-0.631686,10.051897,-0.280033,-0.314197,-0.002328,0.122070,0.000000,0.061035
10.572082,-0.215552,-0.610131,10.056687,-0.274046,-0.292642,0.002462,0.122070,-0.030518,0.030518
10.582148,-0.214953,-0.601150,10.051897,-0.273447,-0.283661,-0.002328,0.061035,-0.030518,0.000000
10.592213,-0.210762,-0.583786,10.050101,-0.269256,-0.266297,-0.004125,0.061035,-0.030518,0.000000
10.602279,-0.213755,-0.583786,10.050101,-0.272249,-0.266297,-0.004125,0.061035,0.000000,0.000000
10.612346,-0.220342,-0.583786,10.052496,-0.278836,-0.266297,-0.001730,0.061035,0.000000,0.000000
10.622444,-0.219144,-0.590971,10.042916,-0.277638,-0.273482,-0.011310,0.061035,0.030518,-0.030518
10.632601,-0.234712,-0.605940,10.036928,-0.293206,-0.288451,-0.017297,0.061035,0.030518,0.000000
10.642750,-0.238304,-0.616718,10.040521,-0.296798,-0.299229,-0.013705,0.030518,0.000000,0.000000
10.652986,-0.233514,-0.620909,10.046508,-0.292008,-0.303420,-0.007717,0.030518,0.000000,0.000000
10.663117,-0.232317,-0.637674,10.042916,-0.290811,-0.320185,-0.011310,0.000000,0.000000,0.000000
10.673265,-0.225731,-0.634680,10.038724,-0.284224,-0.317191,-0.015501,0.030518,-0.030518,0.000000
10.683409,-0.224533,-0.640069,10.040521,-0.283027,-0.322580,-0.013705,0.030518,0.000000,0.000000
10.693521,-0.228724,-0.636476,10.041718,-0.287218,-0.318987,-0.012507,0.030518,0.000000,0.030518
10.703666,-0.225731,-0.628693,10.053693,-0.284224,-0.311204,-0.000532,0.061035,-0.030518,0.091553
10.713794,-0.220342,-0.620310,10.052496,-0.278836,-0.302821,-0.001730,0.061035,0.000000,0.091553
10.723944,-0.219743,-0.620310,10.059681,-0.278237,-0.302821,0.005455,0.061035,0.061035,0.091553
10.734075,-0.217947,-0.602347,10.059082,-0.276441,-0.284858,0.004857,0.091553,0.030518,0.091553
10.744221,-0.217947,-0.598755,10.053693,-0.276441,-0.281266,-0.000532,0.030518,0.000000,0.061035
10.754362,-0.222138,-0.590971,10.054891,-0.280632,-0.273482,0.000665,0.030518,0.030518,0.030518
10.764505,-0.220342,-0.589175,10.060878,-0.278836,-0.271686,0.006653,0.030518,0.030518,0.030518
10.774628,-0.226329,-0.586780,10.059082,-0.284823,-0.269291,0.004857,0.030518,0.030518,0.000000
10.784749,-0.231119,-0.591570,10.056687,-0.289613,-0.274081,0.002462,0.061035,0.030518,0.000000
10.795077,-0.242496,-0.598156,10.058483,-0.300990,-0.280667,0.004258,0.061035,0.030518,0.000000
10.805201,-0.238903,-0.607736,10.056088,-0.297397,-0.290247,0.001863,0.061035,0.030518,0.000000
10.815330,-0.235909,-0.620310,10.059082,-0.294403,-0.302821,0.004857,0.061035,0.030518,0.000000
10.825444,-0.234712,-0.624501,10.053094,-0.293206,-0.307012,-0.001131,0.091553,0.030518,0.030518
10.835576,-0.234113,-0.625699,10.045311,-0.292607,-0.308210,-0.008915,0.061035,0.061035,0.030518
10.845694,-0.228724,-0.634680,10.042317,-0.287218,-0.317191,-0.011908,0.061035,0.061035,0.061035
10.855836,-0.227527,-0.638871,10.041119,-0.286021,-0.321382,-0.013106,0.061035,0.061035,0.061035
10.865966,-0.231119,-0.632285,10.051298,-0.289613,-0.314796,-0.002927,0.091553,0.000000,0.061035
10.876112,-0.225132,-0.628693,10.049502,-0.283626,-0.311204,-0.004723,0.061035,0.000000,0.061035
10.886266,-0.229323,-0.626298,10.050699,-0.287817,-0.308809,-0.003526,0.091553,0.000000,0.030518
10.896410,-0.232317,-0.622705,10.048903,-0.290811,-0.305216,-0.005322,0.091553,0.030518,0.061035
10.906591,-0.223934,-0.622106,10.057286,-0.282428,-0.304617,0.003060,0.122070,0.000000,0.030518
10.916744,-0.226928,-0.613724,10.057286,-0.285422,-0.296235,0.003060,0.122070,-0.030518,0.030518
10.926886,-0.220941,-0.609532,10.056687,-0.279434,-0.292043,0.002462,0.122070,-0.030518,0.030518
10.937041,-0.216151,-0.595162,10.050101,-0.274644,-0.277673,-0.004125,0.061035,0.000000,0.030518
10.947200,-0.213157,-0.593965,10.051897,-0.271651,-0.276476,-0.002328,0.000000,-0.030518,0.061035
10.957344,-0.211959,-0.593965,10.058483,-0.270453,-0.276476,0.004258,0.030518,0.000000,0.030518
10.967490,-0.207768,-0.594564,10.055490,-0.266262,-0.277075,0.001264,0.061035,0.030518,0.061035
10.977618,-0.207768,-0.601749,10.042317,-0.266262,-0.284260,-0.011908,0.061035,0.000000,0.061035
10.987740,-0.205373,-0.600551,10.042317,-0.263867,-0.283062,-0.011908,0.061035,0.000000,0.061035
10.997970,-0.210762,-0.605341,10.041718,-0.269256,-0.287852,-0.012507,0.061035,0.030518,0.091553
11.008113,-0.206570,-0.612526,10.050101,-0.265064,-0.295037,-0.004125,0.061035,0.000000,0.091553
11.018251,-0.209564,-0.611329,10.048903,-0.268058,-0.293840,-0.005322,0.061035,0.000000,0.091553
11.028402,-0.226329,-0.608335,10.047107,-0.284823,-0.290846,-0.007118,0.061035,0.030518,0.091553
11.038538,-0.229323,-0.609532,10.047706,-0.287817,-0.292043,-0.006520,0.061035,0.000000,0.091553
11.048682,-0.232916,-0.611329,10.055490,-0.291410,-0.293840,0.001264,0.030518,0.000000,0.061035
11.058828,-0.230521,-0.611927,10.053693,-0.289014,-0.294438,-0.000532,0.030518,0.030518,0.091553
11.069073,-0.233514,-0.617316,10.057885,-0.292008,-0.299827,0.003659,0.030518,0.030518,0.061035
11.079283,-0.235311,-0.616119,10.060280,-0.293805,-0.298630,0.006054,0.030518,-0.030518,0.061035
11.089396,-0.230521,-0.614323,10.055490,-0.289014,-0.296833,0.001264,0.000000,-0.030518,0.061035
11.099547,-0.230521,-0.616119,10.057286,-0.289014,-0.298630,0.003060,-0.030518,-0.030518,0.030518
11.109686,-0.226329,-0.617915,10.062076,-0.284823,-0.300426,0.007850,0.000000,0.000000,0.030518
11.119912,-0.231119,-0.626298,10.055490,-0.289613,-0.308809,0.001264,0.030518,0.000000,0.030518
11.130079,-0.230521,-0.631686,10.049502,-0.289014,-0.314197,-0.004723,0.000000,0.000000,0.030518
11.140261,-0.225731,-0.642464,10.051298,-0.284224,-0.324975,-0.002927,0.000000,-0.030518,0.030518
11.150445,-0.226928,-0.636476,10.052496,-0.285422,-0.318987,-0.001730,0.030518,0.000000,0.000000
11.160627,-0.222737,-0.635279,10.057286,-0.281231,-0.317790,0.003060,0.000000,0.000000,0.000000
11.170783,-0.219144,-0.625100,10.049502,-0.277638,-0.307611,-0.004723,0.000000,0.030518,0.000000
11.180951,-0.210762,-0.613125,10.057286,-0.269256,-0.295636,0.003060,0.030518,0.000000,0.000000
11.191105,-0.197589,-0.592169,10.049502,-0.256083,-0.274680,-0.004723,0.030518,0.000000,0.030518
11.201259,-0.198188,-0.587977,10.050699,-0.256682,-0.270488,-0.003526,0.030518,0.030518,0.030518
11.211434,-0.199984,-0.577798,10.056687,-0.258478,-0.260309,0.002462,0.030518,0.000000,0.030518
11.221596,-0.198188,-0.582589,10.058483,-0.256682,-0.265099,0.004258,0.000000,0.000000,0.091553
11.231786,-0.215552,-0.583786,10.050699,-0.274046,-0.266297,-0.003526,0.030518,0.030518,0.061035
11.241979,-0.225731,-0.587379,10.045909,-0.284224,-0.269890,-0.008316,0.030518,0.030518,0.061035
11.252075,-0.234712,-0.590372,10.052496,-0.293206,-0.272883,-0.001730,0.030518,0.061035,0.030518
11.262142,-0.242496,-0.616718,10.056687,-0.300990,-0.299229,0.002462,0.061035,0.030518,0.030518
11.272208,-0.242496,-0.626298,10.053693,-0.300990,-0.308809,-0.000532,0.061035,0.061035,0.061035
11.282275,-0.241298,-0.635878,10.048304,-0.299792,-0.318389,-0.005921,0.061035,0.061035,0.000000
11.292343,-0.237107,-0.632884,10.043514,-0.295601,-0.315395,-0.010711,0.030518,0.061035,0.000000
11.302409,-0.229922,-0.633483,10.040521,-0.288416,-0.315994,-0.013705,0.030518,0.061035,0.000000
11.312474,-0.228126,-0.632884,10.041119,-0.286619,-0.315395,-0.013106,0.030518,0.061035,0.000000
11.322541,-0.228724,-0.630489,10.039922,-0.287218,-0.313000,-0.014304,0.061035,0.061035,0.030518
11.332607,-0.220342,-0.631686,10.041119,-0.278836,-0.314197,-0.013106,0.061035,0.030518,0.030518
11.342672,-0.224533,-0.626896,10.040521,-0.283027,-0.309407,-0.013705,0.061035,0.030518,0.061035
11.352838,-0.228126,-0.620909,10.051897,-0.286619,-0.303420,-0.002328,0.122070,0.061035,0.030518
11.362905,-0.227527,-0.611329,10.053094,-0.286021,-0.293840,-0.001131,0.122070,0.030518,0.030518
11.372973,-0.223336,-0.597557,10.045909,-0.281829,-0.280068,-0.008316,0.061035,0.000000,0.030518
11.383040,-0.225731,-0.593965,10.041119,-0.284224,-0.276476,-0.013106,0.091553,0.000000,0.000000
11.393106,-0.225731,-0.598156,10.035731,-0.284224,-0.280667,-0.018495,0.061035,-0.030518,-0.030518
11.403171,-0.226928,-0.591570,10.047706,-0.285422,-0.274081,-0.006520,0.030518,0.000000,0.030518
11.413237,-0.221539,-0.591570,10.048304,-0.280033,-0.274081,-0.005921,0.000000,0.030518,0.061035
11.423303,-0.217947,-0.597557,10.047107,-0.276441,-0.280068,-0.007118,-0.061035,0.030518,0.030518
11.433369,-0.215552,-0.605940,10.044113,-0.274046,-0.288451,-0.010112,-0.030518,0.061035,0.000000
11.443435,-0.220941,-0.617316,10.040521,-0.279434,-0.299827,-0.013705,-0.030518,0.000000,0.061035
11.453501,-0.228126,-0.625699,10.037527,-0.286619,-0.308210,-0.016699,-0.030518,0.030518,0.091553
11.463566,-0.228724,-0.632884,10.034533,-0.287218,-0.315395,-0.019692,0.061035,0.030518,0.061035
11.473632,-0.234113,-0.647853,10.027348,-0.292607,-0.330364,-0.026877,0.061035,0.030518,0.061035
11.483697,-0.240699,-0.644859,10.031539,-0.299193,-0.327370,-0.022686,0.061035,0.000000,0.061035
11.493764,-0.244891,-0.637075,10.029743,-0.303385,-0.319586,-0.024482,0.030518,0.030518,0.061035
11.503829,-0.238903,-0.631686,10.035731,-0.297397,-0.314197,-0.018495,0.061035,0.030518,0.061035
11.513896,-0.225132,-0.611927,10.045311,-0.283626,-0.294438,-0.008915,0.061035,0.061035,0.091553
11.523962,-0.221539,-0.604742,10.047107,-0.280033,-0.287253,-0.007118,0.061035,0.061035,0.091553
11.534027,-0.217348,-0.597557,10.054292,-0.275842,-0.280068,0.000067,0.061035,0.030518,0.030518
11.544092,-0.217348,-0.593965,10.053094,-0.275842,-0.276476,-0.001131,0.061035,0.000000,0.000000
11.554159,-0.213157,-0.590971,10.049502,-0.271651,-0.273482,-0.004723,0.061035,-0.030518,0.030518
11.564225,-0.216749,-0.595761,10.056687,-0.275243,-0.278272,0.002462,0.061035,0.000000,0.000000
11.574291,-0.219144,-0.595761,10.048903,-0.277638,-0.278272,-0.005322,0.061035,0.000000,0.000000
11.584357,-0.221539,-0.598755,10.046508,-0.280033,-0.281266,-0.007717,0.030518,0.030518,0.000000
11.594421,-0.214953,-0.593965,10.045311,-0.273447,-0.276476,-0.008915,0.030518,0.030518,0.000000
11.604487,-0.208367,-0.586780,10.047706,-0.266861,-0.269291,-0.006520,0.061035,0.000000,0.030518
11.614552,-0.213157,-0.588576,10.045311,-0.271651,-0.271087,-0.008915,0.091553,0.030518,0.000000
11.624617,-0.215552,-0.593366,10.044113,-0.274046,-0.275877,-0.010112,0.030518,0.030518,0.030518
11.634681,-0.225731,-0.600551,10.039922,-0.284224,-0.283062,-0.014304,0.061035,0.000000,0.000000
11.644745,-0.224533,-0.601749,10.038126,-0.283027,-0.284260,-0.016100,0.030518,0.030518,0.000000
11.654810,-0.224533,-0.603545,10.049502,-0.283027,-0.286056,-0.004723,0.030518,0.061035,0.030518
11.664898,-0.230521,-0.602347,10.045909,-0.289014,-0.284858,-0.008316,0.061035,0.061035,0.030518
11.674989,-0.223934,-0.601150,10.039323,-0.282428,-0.283661,-0.014902,0.091553,0.061035,0.030518
11.685076,-0.222737,-0.595162,10.036928,-0.281231,-0.277673,-0.017297,0.091553,0.030518,0.000000
11.695158,-0.222138,-0.596360,10.035731,-0.280632,-0.278871,-0.018495,0.091553,0.061035,0.030518
11.705249,-0.217947,-0.585582,10.048903,-0.276441,-0.268093,-0.005322,0.091553,0.061035,0.030518
11.715322,-0.213755,-0.584984,10.048903,-0.272249,-0.267494,-0.005322,0.061035,0.061035,0.000000
11.725389,-0.211360,-0.584385,10.043514,-0.269854,-0.266896,-0.010711,0.061035,0.061035,0.000000
11.735455,-0.210762,-0.587977,10.041119,-0.269256,-0.270488,-0.013106,0.061035,0.061035,-0.030518
11.745527,-0.213755,-0.602347,10.044113,-0.272249,-0.284858,-0.010112,0.030518,0.000000,0.030518
11.755592,-0.219144,-0.605940,10.056088,-0.277638,-0.288451,0.001863,0.030518,0.000000,0.061035
11.765658,-0.228724,-0.614921,10.057286,-0.287218,-0.297432,0.003060,0.030518,0.030518,0.061035
11.775723,-0.226329,-0.622705,10.047706,-0.284823,-0.305216,-0.006520,0.030518,0.030518,0.061035
11.785800,-0.225731,-0.622705,10.047706,-0.284224,-0.305216,-0.006520,0.030518,0.030518,0.061035
11.795865,-0.224533,-0.612526,10.043514,-0.283027,-0.295037,-0.010711,0.030518,-0.030518,0.061035
11.805931,-0.220342,-0.613125,10.048304,-0.278836,-0.295636,-0.005921,0.030518,-0.030518,0.030518
11.815995,-0.220342,-0.599952,10.048903,-0.278836,-0.282463,-0.005322,0.061035,-0.061035,0.000000
11.826061,-0.214354,-0.595162,10.042916,-0.272848,-0.277673,-0.011310,0.030518,0.000000,0.000000
11.836126,-0.212558,-0.586181,10.044113,-0.271052,-0.268692,-0.010112,0.061035,0.000000,-0.030518
11.846192,-0.205373,-0.584385,10.045909,-0.263867,-0.266896,-0.008316,0.030518,0.000000,0.030518
11.856261,-0.204774,-0.588576,10.048304,-0.263268,-0.271087,-0.005921,0.030518,0.000000,0.030518
11.866343,-0.209564,-0.598755,10.061477,-0.268058,-0.281266,0.007252,0.030518,0.000000,0.061035
11.876408,-0.210762,-0.612526,10.059082,-0.269256,-0.295037,0.004857,0.000000,-0.030518,0.061035
11.886474,-0.232916,-0.653242,10.045311,-0.291410,-0.335753,-0.008915,0.030518,-0.061035,0.000000
11.896540,-0.261656,-0.672402,10.051298,-0.320150,-0.354913,-0.002927,0.000000,-0.061035,-0.030518
11.906607,-0.274828,-0.699944,10.054891,-0.333322,-0.382455,0.000665,0.030518,-0.122070,-0.183105
11.916672,-0.295785,-0.734672,10.044712,-0.354279,-0.417183,-0.009513,0.030518,-0.152588,-0.183105
11.926739,-0.293989,-0.738265,10.031539,-0.352483,-0.420776,-0.022686,0.030518,-0.183105,-0.274658
11.936803,-0.264051,-0.719703,10.009385,-0.322545,-0.402214,-0.044840,0.122070,-0.213623,-0.396729
11.946872,-0.247286,-0.686173,10.008188,-0.305780,-0.368684,-0.046038,0.122070,-0.183105,-0.427246
11.956937,-0.214354,-0.623903,10.038724,-0.272848,-0.306414,-0.015501,0.152588,-0.183105,-0.366211
11.967044,-0.193398,-0.598156,10.041119,-0.251892,-0.280667,-0.013106,0.183105,-0.183105,-0.305176
11.977111,-0.187410,-0.564626,10.039323,-0.245904,-0.247137,-0.014902,0.152588,-0.152588,-0.183105
11.987177,-0.179626,-0.531694,10.036928,-0.238120,-0.214205,-0.017297,0.122070,-0.122070,-0.091553
11.997241,-0.180824,-0.517324,10.038724,-0.239318,-0.199835,-0.015501,0.122070,-0.061035,-0.030518
12.007307,-0.189207,-0.516127,10.042916,-0.247700,-0.198638,-0.011310,0.091553,-0.061035,0.030518
12.017373,-0.193398,-0.522114,10.042317,-0.251892,-0.204625,-0.011908,0.091553,-0.030518,0.091553
12.027438,-0.208965,-0.543071,10.041718,-0.267459,-0.225582,-0.012507,0.091553,0.000000,0.061035
12.037503,-0.208367,-0.559237,10.038724,-0.266861,-0.241748,-0.015501,0.061035,-0.030518,0.030518
12.047569,-0.213755,-0.578397,10.035731,-0.272249,-0.260908,-0.018495,0.061035,-0.030518,-0.061035
12.057640,-0.207768,-0.635279,10.030342,-0.266262,-0.317790,-0.023884,0.000000,-0.030518,-0.122070
12.067707,-0.193997,-0.654439,10.031539,-0.252490,-0.336950,-0.022686,0.030518,0.000000,-0.152588
12.077772,-0.164658,-0.652643,10.027348,-0.223151,-0.335154,-0.026877,0.030518,0.030518,-0.213623
12.087839,-0.151485,-0.646655,10.021959,-0.209979,-0.329166,-0.032266,0.030518,0.030518,-0.213623
12.098022,-0.144899,-0.622705,10.021360,-0.203393,-0.305216,-0.032865,0.061035,0.061035,-0.183105
12.108088,-0.153880,-0.607137,10.027947,-0.212374,-0.289648,-0.026279,0.061035,0.061035,-0.091553
12.118154,-0.168250,-0.603545,10.033336,-0.226744,-0.286056,-0.020890,0.091553,0.061035,0.030518
12.128220,-0.223934,-0.595162,10.040521,-0.282428,-0.277673,-0.013705,0.091553,0.030518,0.091553
12.138285,-0.249082,-0.594564,10.038724,-0.307576,-0.277075,-0.015501,0.061035,0.030518,0.091553
12.148377,-0.299377,-0.608934,10.047107,-0.357871,-0.291445,-0.007118,0.061035,0.030518,0.122070
12.158443,-0.310155,-0.609532,10.050101,-0.368649,-0.292043,-0.004125,0.091553,0.030518,0.091553
12.168509,-0.314945,-0.611927,10.055490,-0.373439,-0.294438,0.001264,0.061035,0.030518,0.030518
12.178576,-0.294587,-0.602347,10.049502,-0.353081,-0.284858,-0.004723,0.061035,0.030518,-0.030518
12.188642,-0.263452,-0.592169,10.048304,-0.321946,-0.274680,-0.005921,0.030518,0.030518,-0.152588
12.198707,-0.193398,-0.573008,10.050101,-0.251892,-0.255519,-0.004125,0.030518,0.030518,-0.152588
12.208773,-0.155676,-0.568817,10.053693,-0.214170,-0.251328,-0.000532,0.000000,0.030518,-0.183105
12.218849,-0.110171,-0.563428,10.041718,-0.168665,-0.245939,-0.012507,-0.030518,0.030518,-0.091553
12.228916,-0.105381,-0.578397,10.035132,-0.163875,-0.260908,-0.019094,-0.061035,0.061035,-0.061035
12.238982,-0.127535,-0.601150,10.027348,-0.186029,-0.283661,-0.026877,-0.030518,0.030518,0.061035
12.249046,-0.151485,-0.628693,10.030342,-0.209979,-0.311204,-0.023884,-0.030518,0.000000,0.091553
12.259112,-0.181423,-0.654439,10.029144,-0.239917,-0.336950,-0.025081,0.030518,-0.030518,0.183105
12.269176,-0.239502,-0.686772,10.027348,-0.297996,-0.369283,-0.026877,0.061035,0.000000,0.183105
12.279242,-0.268841,-0.699346,10.024953,-0.327335,-0.381857,-0.029272,0.091553,0.030518,0.152588
12.289308,-0.310155,-0.689766,10.032138,-0.368649,-0.372277,-0.022087,0.061035,0.000000,0.061035
12.299374,-0.314945,-0.671803,10.048304,-0.373439,-0.354314,-0.005921,0.061035,-0.030518,0.000000
12.309439,-0.290396,-0.617316,10.060280,-0.348890,-0.299827,0.006054,0.091553,0.000000,-0.091553
12.319504,-0.261656,-0.583786,10.063273,-0.320150,-0.266297,0.009048,0.061035,0.000000,-0.122070
12.329587,-0.229323,-0.558638,10.054891,-0.287817,-0.241149,0.000665,0.061035,0.000000,-0.091553
12.339653,-0.173040,-0.511935,10.049502,-0.231534,-0.194446,-0.004723,0.061035,0.000000,-0.061035
12.349720,-0.162263,-0.501757,10.048304,-0.220756,-0.184268,-0.005921,0.061035,0.000000,-0.061035
12.359785,-0.156275,-0.519120,10.053693,-0.214769,-0.201631,-0.000532,-0.030518,0.000000,0.061035
12.369850,-0.157473,-0.540676,10.052496,-0.215966,-0.223187,-0.001730,-0.030518,0.030518,0.122070
12.379916,-0.176633,-0.595761,10.043514,-0.235127,-0.278272,-0.010711,0.000000,-0.030518,0.152588
12.389982,-0.187410,-0.623903,10.035132,-0.245904,-0.306414,-0.019094,0.030518,0.000000,0.122070
12.400047,-0.210163,-0.653242,10.037527,-0.268657,-0.335753,-0.016699,0.061035,0.000000,0.091553
12.410112,-0.234712,-0.693358,10.029144,-0.293206,-0.375869,-0.025081,0.061035,0.030518,0.091553
12.420178,-0.244891,-0.705333,10.030342,-0.303385,-0.387844,-0.023884,0.061035,0.030518,0.030518
12.430244,-0.239502,-0.690963,10.034533,-0.297996,-0.373474,-0.019692,0.122070,0.000000,-0.091553
12.440309,-0.227527,-0.668809,10.035132,-0.286021,-0.351320,-0.019094,0.122070,0.030518,-0.122070
12.450397,-0.208367,-0.617915,10.044712,-0.266861,-0.300426,-0.009513,0.122070,-0.030518,-0.091553
12.460465,-0.204175,-0.596360,10.050699,-0.262669,-0.278871,-0.003526,0.091553,0.000000,-0.061035
12.470531,-0.205972,-0.579595,10.056088,-0.264466,-0.262106,0.001863,0.091553,0.000000,-0.030518
12.480605,-0.211959,-0.560435,10.054292,-0.270453,-0.242946,0.000067,0.061035,0.030518,0.030518
12.490670,-0.217348,-0.556842,10.047107,-0.275842,-0.239353,-0.007118,0.061035,-0.030518,0.091553
12.500739,-0.235311,-0.565823,10.057286,-0.293805,-0.248334,0.003060,0.061035,-0.030518,0.091553
12.510805,-0.238903,-0.572410,10.054891,-0.297397,-0.254921,0.000665,0.061035,0.000000,0.091553
12.520871,-0.242496,-0.598755,10.042317,-0.300990,-0.281266,-0.011908,0.061035,0.000000,0.030518
12.530948,-0.239502,-0.609532,10.036329,-0.297996,-0.292043,-0.017896,0.061035,0.000000,0.000000
12.541014,-0.236508,-0.614921,10.036329,-0.295002,-0.297432,-0.017896,0.061035,0.030518,-0.061035
12.551081,-0.217348,-0.623304,10.037527,-0.275842,-0.305815,-0.016699,0.030518,-0.030518,-0.061035
12.561146,-0.201182,-0.617915,10.039922,-0.259676,-0.300426,-0.014304,0.030518,0.000000,-0.091553
12.571212,-0.178429,-0.613125,10.039922,-0.236923,-0.295636,-0.014304,0.000000,0.030518,-0.030518
12.581277,-0.178429,-0.617316,10.035731,-0.236923,-0.299827,-0.018495,-0.030518,0.061035,-0.030518
12.591343,-0.186812,-0.616718,10.028546,-0.245305,-0.299229,-0.025680,0.030518,0.091553,0.030518
12.601409,-0.199385,-0.620310,10.036329,-0.257879,-0.302821,-0.017896,0.061035,0.091553,0.091553
12.611475,-0.216749,-0.632285,10.039922,-0.275243,-0.314796,-0.014304,0.061035,0.061035,0.091553
12.621541,-0.246687,-0.631686,10.043514,-0.305181,-0.314197,-0.010711,0.061035,0.061035,0.122070
12.631607,-0.256866,-0.635279,10.044712,-0.315360,-0.317790,-0.009513,0.030518,0.030518,0.091553
12.641673,-0.256866,-0.620310,10.048903,-0.315360,-0.302821,-0.005322,0.061035,0.000000,0.061035
12.651738,-0.259261,-0.611329,10.054292,-0.317755,-0.293840,0.000067,0.030518,0.030518,0.030518
12.661804,-0.235909,-0.578397,10.055490,-0.294403,-0.260908,0.001264,0.061035,0.030518,-0.030518
12.671870,-0.217947,-0.565823,10.057885,-0.276441,-0.248334,0.003659,0.061035,0.061035,-0.061035
