time,ax_raw,ay_raw,az_raw,ax,ay,az,gx,gy,gz
0.003506,0.056882,-0.265847,10.057885,-0.003748,0.025523,0.001736,0.000000,0.030518,-0.091553
0.013598,0.073647,-0.277822,10.053094,0.013017,0.013548,-0.003054,0.000000,0.091553,0.000000
0.023691,0.097597,-0.318538,10.048903,0.036967,-0.027168,-0.007245,0.000000,0.091553,0.000000
0.033782,0.110171,-0.318538,10.063273,0.049541,-0.027168,0.007125,0.030518,0.091553,0.091553
0.043908,0.050295,-0.352667,10.124945,-0.010335,-0.061297,0.068797,0.091553,0.274658,0.091553
0.054000,0.065863,-0.296982,10.047107,0.005233,-0.005613,-0.009041,0.030518,0.122070,0.091553
0.064093,0.025148,-0.319735,10.080038,-0.035482,-0.028365,0.023890,-0.030518,0.122070,0.091553
0.074184,0.011376,-0.303569,10.081835,-0.049254,-0.012199,0.025687,-0.061035,0.183105,0.061035
0.084274,0.037722,-0.285606,10.055490,-0.022908,0.005764,-0.000659,0.030518,0.061035,0.000000
0.094364,0.037123,-0.296982,10.054292,-0.023507,-0.005613,-0.001856,0.030518,0.000000,0.000000
0.104452,0.030536,-0.323328,10.040521,-0.030093,-0.031958,-0.015628,-0.030518,0.122070,-0.061035
0.114542,0.056882,-0.340093,10.057885,-0.003748,-0.048723,0.001736,-0.030518,0.122070,-0.122070
0.124633,0.085023,-0.335901,10.045311,0.024393,-0.044532,-0.010837,0.000000,0.061035,-0.122070
0.134724,0.104782,-0.350870,10.044113,0.044152,-0.059501,-0.012035,0.030518,0.061035,-0.061035
0.144814,0.104183,-0.353864,10.060878,0.043553,-0.062494,0.004730,0.000000,0.122070,-0.030518
0.154914,0.122745,-0.320933,10.046508,0.062115,-0.029563,-0.009640,0.030518,0.030518,0.030518
0.165007,0.124541,-0.295785,10.043514,0.063911,-0.004415,-0.012634,0.030518,0.030518,0.061035
0.175096,0.109572,-0.282612,10.060280,0.048942,0.008758,0.004131,0.030518,0.061035,0.091553
0.185199,0.073048,-0.252076,10.075847,0.012418,0.039294,0.019699,-0.030518,0.061035,0.091553
0.195292,0.059875,-0.238304,10.073452,-0.000754,0.053065,0.017304,-0.030518,0.030518,0.091553
0.205382,0.028141,-0.229922,10.054292,-0.032488,0.061448,-0.001856,-0.030518,-0.030518,0.091553
0.215469,0.008981,-0.232916,10.063273,-0.051649,0.058454,0.007125,-0.061035,-0.030518,0.030518
0.225558,0.008383,-0.250878,10.060280,-0.052247,0.040492,0.004131,-0.061035,0.000000,0.000000
0.235648,0.017364,-0.260458,10.048903,-0.043266,0.030911,-0.007245,-0.030518,-0.030518,0.000000
0.245738,0.017963,-0.270637,10.046508,-0.042667,0.020733,-0.009640,-0.030518,0.000000,-0.030518
0.255828,0.004191,-0.308359,10.060878,-0.056439,-0.016989,0.004730,-0.030518,0.000000,-0.030518
0.265918,0.011975,-0.320334,10.051298,-0.048655,-0.028964,-0.004850,-0.030518,0.000000,0.000000
0.276008,0.033530,-0.347877,10.040521,-0.027100,-0.056507,-0.015628,-0.030518,0.030518,0.000000
0.286099,0.044907,-0.356259,10.047706,-0.015723,-0.064889,-0.008442,0.000000,0.061035,0.030518
0.296188,0.079634,-0.365839,10.039323,0.019004,-0.074469,-0.016825,0.000000,0.030518,0.061035
0.306275,0.090412,-0.361049,10.033336,0.029782,-0.069679,-0.022813,0.000000,0.030518,0.061035
0.316365,0.106578,-0.349074,10.033934,0.045948,-0.057704,-0.022214,0.030518,0.061035,0.061035
0.326458,0.106578,-0.329914,10.037527,0.045948,-0.038544,-0.018621,0.030518,0.091553,0.030518
0.336558,0.102986,-0.316741,10.041119,0.042356,-0.025371,-0.015029,0.061035,0.061035,0.061035
0.346655,0.089214,-0.277224,10.060878,0.028585,0.014146,0.004730,0.061035,0.061035,0.030518
0.356752,0.071851,-0.264650,10.056687,0.011221,0.026720,0.000539,0.030518,0.030518,-0.030518
0.366850,0.062271,-0.237706,10.060878,0.001641,0.053664,0.004730,0.000000,0.122070,0.030518
0.376947,0.058678,-0.232317,10.059082,-0.001952,0.059053,0.002934,-0.030518,0.091553,0.000000
0.388050,0.052690,-0.226928,10.029144,-0.007939,0.064442,-0.027004,-0.030518,0.091553,-0.030518
0.398143,0.043110,-0.211360,10.109976,-0.017520,0.080009,0.053828,-0.030518,0.091553,0.000000
0.408241,0.041913,-0.246088,10.060878,-0.018717,0.045282,0.004730,-0.061035,0.030518,0.061035
0.418334,0.040715,-0.248483,10.038126,-0.019915,0.042887,-0.018023,-0.061035,0.000000,0.091553
0.428425,0.032932,-0.273032,10.048304,-0.027698,0.018338,-0.007844,-0.061035,0.061035,0.091553
0.438513,0.044907,-0.325723,10.080637,-0.015723,-0.034353,0.024489,-0.122070,0.030518,0.091553
0.448598,0.058079,-0.349074,10.052496,-0.002551,-0.057704,-0.003652,-0.091553,0.030518,0.091553
0.458683,0.074246,-0.374821,10.042916,0.013616,-0.083451,-0.013232,-0.061035,0.000000,0.061035
0.468771,0.076641,-0.400567,10.051897,0.016011,-0.109197,-0.004251,-0.091553,0.030518,0.061035
0.478858,0.092807,-0.390987,10.036928,0.032177,-0.099617,-0.019220,-0.091553,0.061035,0.000000
0.488948,0.092807,-0.371228,10.033336,0.032177,-0.079858,-0.022813,-0.030518,0.061035,0.000000
0.499036,0.088017,-0.354463,10.048304,0.027387,-0.063093,-0.007844,0.000000,0.061035,0.000000
0.509141,0.068258,-0.317939,10.063273,0.007628,-0.026569,0.007125,0.000000,0.091553,0.030518
0.519251,0.075443,-0.309556,10.059082,0.014813,-0.018186,0.002934,0.000000,0.091553,0.030518
0.529359,0.094603,-0.284409,10.046508,0.033973,0.006961,-0.009640,0.030518,0.030518,0.000000
0.539462,0.093406,-0.269440,10.056687,0.032776,0.021930,0.000539,0.030518,0.000000,0.000000
0.549545,0.085023,-0.244891,10.055490,0.024393,0.046479,-0.000659,0.000000,0.030518,0.000000
0.559629,0.071252,-0.230521,10.052496,0.010622,0.060849,-0.003652,-0.030518,0.030518,0.030518
0.569710,0.059277,-0.221539,10.051897,-0.001353,0.069831,-0.004251,0.000000,0.030518,0.030518
0.579793,0.029938,-0.224533,10.063872,-0.030692,0.066837,0.007724,-0.061035,0.030518,0.091553
0.589876,0.022154,-0.231119,10.065668,-0.038476,0.060250,0.009520,-0.061035,0.061035,0.061035
0.599960,0.019160,-0.260458,10.061477,-0.041470,0.030911,0.005329,-0.061035,0.030518,0.030518
0.610041,0.019759,-0.280816,10.065668,-0.040871,0.010554,0.009520,-0.091553,0.061035,0.000000
0.620125,0.034129,-0.320334,10.054292,-0.026501,-0.028964,-0.001856,-0.061035,0.061035,0.000000
0.630210,0.043110,-0.337099,10.055490,-0.017520,-0.045729,-0.000659,-0.061035,0.061035,-0.030518
0.640296,0.054487,-0.354463,10.060878,-0.006143,-0.063093,0.004730,-0.030518,0.061035,-0.030518
0.650384,0.068857,-0.375419,10.052496,0.008227,-0.084049,-0.003652,-0.030518,0.061035,-0.030518
0.660474,0.067659,-0.370031,10.056687,0.007029,-0.078661,0.000539,-0.061035,0.030518,-0.030518
0.670578,0.076641,-0.353265,10.054891,0.016011,-0.061896,-0.001257,-0.030518,0.030518,0.000000
0.680670,0.076641,-0.341290,10.047706,0.016011,-0.049920,-0.008442,0.030518,0.030518,0.000000
0.690759,0.049098,-0.321531,10.050699,-0.011532,-0.030162,-0.005449,0.030518,0.061035,0.000000
0.700845,0.039518,-0.310155,10.042317,-0.021112,-0.018785,-0.013831,0.030518,0.061035,0.030518
0.710933,0.032932,-0.276625,10.045311,-0.027698,0.014745,-0.010837,0.000000,0.030518,0.000000
0.721024,0.026345,-0.239502,10.065070,-0.034285,0.051868,0.008921,0.030518,0.061035,0.000000
0.731112,0.021555,-0.256267,10.048903,-0.039075,0.035103,-0.007245,0.000000,0.061035,-0.061035
0.741198,0.051493,-0.242496,10.062675,-0.009137,0.048874,0.006526,0.030518,0.061035,-0.061035
0.751288,0.073647,-0.264051,10.065070,0.013017,0.027319,0.008921,0.061035,0.061035,-0.030518
0.761377,0.095801,-0.298180,10.065070,0.035171,-0.006810,0.008921,0.000000,0.091553,0.030518
0.771468,0.111967,-0.322130,10.052496,0.051337,-0.030760,-0.003652,0.000000,0.061035,0.030518
0.781575,0.105381,-0.328118,10.068662,0.044751,-0.036748,0.012514,0.000000,0.061035,0.091553
0.791666,0.092807,-0.315544,10.063273,0.032177,-0.024174,0.007125,0.000000,0.061035,0.091553
0.801757,0.073647,-0.319136,10.065668,0.013017,-0.027767,0.009520,0.061035,0.061035,0.091553
0.811846,0.044308,-0.315544,10.067465,-0.016322,-0.024174,0.011316,0.061035,0.030518,0.061035
0.821935,0.029938,-0.321531,10.057885,-0.030692,-0.030162,0.001736,0.061035,0.030518,0.061035
0.832026,0.022753,-0.323926,10.050699,-0.037877,-0.032557,-0.005449,0.091553,0.061035,0.061035
0.842118,0.026345,-0.321531,10.057286,-0.034285,-0.030162,0.001138,0.091553,0.061035,0.030518
0.852206,0.034728,-0.311951,10.042317,-0.025902,-0.020581,-0.013831,0.030518,0.030518,0.030518
0.862293,0.041314,-0.301772,10.063273,-0.019316,-0.010403,0.007125,-0.030518,0.030518,0.000000
0.872385,0.021555,-0.290995,10.058483,-0.039075,0.000375,0.002335,0.000000,0.061035,0.030518
0.882472,0.027543,-0.293989,10.050699,-0.033087,-0.002619,-0.005449,-0.030518,0.061035,0.030518
0.892562,0.033530,-0.277822,10.050101,-0.027100,0.013548,-0.006047,-0.030518,0.061035,0.000000
0.902650,0.044308,-0.264650,10.062076,-0.016322,0.026720,0.005928,0.000000,0.030518,0.030518
0.912758,0.045505,-0.258662,10.063273,-0.015125,0.032708,0.007125,0.000000,0.030518,0.030518
0.922848,0.076042,-0.256866,10.058483,0.015412,0.034504,0.002335,-0.030518,0.061035,0.000000
0.932943,0.086221,-0.249681,10.063872,0.025591,0.041689,0.007724,-0.061035,0.030518,0.000000
0.943041,0.092208,-0.269440,10.060280,0.031578,0.021930,0.004131,-0.061035,0.000000,0.000000
0.953138,0.102986,-0.299377,10.054292,0.042356,-0.008008,-0.001856,-0.030518,0.000000,-0.030518
0.963235,0.117955,-0.315544,10.054891,0.057325,-0.024174,-0.001257,-0.030518,0.030518,0.000000
0.973332,0.152084,-0.353864,10.015373,0.091454,-0.062494,-0.040775,-0.091553,0.030518,0.061035
0.983468,0.121547,-0.354463,10.081236,0.060917,-0.063093,0.025088,0.000000,0.061035,0.061035
0.993565,0.093406,-0.380209,10.066866,0.032776,-0.088840,0.010718,-0.030518,0.030518,0.091553
1.003661,0.097597,-0.382006,10.020762,0.036967,-0.090636,-0.035386,0.000000,0.000000,0.091553
1.013757,0.083227,-0.367635,10.044712,0.022597,-0.076266,-0.011436,-0.030518,0.091553,0.091553
1.023853,0.046703,-0.326920,10.062675,-0.013927,-0.035550,0.006526,0.000000,0.030518,0.091553
1.033947,0.041913,-0.311353,10.054891,-0.018717,-0.019983,-0.001257,0.061035,0.030518,0.030518
1.044041,0.025148,-0.276625,10.064471,-0.035482,0.014745,0.008323,0.030518,0.030518,0.061035
1.054133,0.025148,-0.266446,10.065668,-0.035482,0.024924,0.009520,0.061035,0.061035,0.000000
1.064227,0.029938,-0.254471,10.056088,-0.030692,0.036899,-0.000060,0.030518,0.061035,0.030518
1.074319,0.038320,-0.251477,10.048903,-0.022310,0.039893,-0.007245,0.030518,0.061035,0.030518
1.086226,0.043110,-0.253273,10.066866,-0.017520,0.038097,0.010718,0.000000,0.061035,0.030518
1.096428,0.041314,-0.255668,10.074650,-0.019316,0.035702,0.018502,0.000000,0.061035,0.030518
1.106608,0.060474,-0.276625,10.061477,-0.000156,0.014745,0.005329,-0.061035,0.030518,0.000000
1.116781,0.061672,-0.287402,10.053094,0.001042,0.003967,-0.003054,-0.061035,0.000000,0.030518
1.127010,0.067061,-0.311951,10.057286,0.006431,-0.020581,0.001138,-0.030518,0.030518,0.030518
1.137179,0.078437,-0.321531,10.060878,0.017807,-0.030162,0.004730,-0.030518,0.000000,0.000000
1.147309,0.086819,-0.328716,10.055490,0.026190,-0.037347,-0.000659,0.000000,0.000000,0.030518
1.157458,0.085023,-0.338895,10.059082,0.024393,-0.047525,0.002934,0.000000,0.030518,0.030518
1.167596,0.087418,-0.342488,10.060280,0.026788,-0.051118,0.004131,-0.030518,0.030518,0.030518
1.178039,0.088616,-0.338297,10.054292,0.027986,-0.046927,-0.001856,-0.030518,0.030518,0.030518
1.188349,0.084424,-0.326920,10.052496,0.023795,-0.035550,-0.003652,-0.030518,0.030518,0.061035
1.198503,0.065264,-0.305964,10.051298,0.004634,-0.014594,-0.004850,-0.030518,0.030518,0.030518
1.208664,0.054487,-0.296384,10.050101,-0.006143,-0.005014,-0.006047,-0.061035,0.030518,0.061035
1.218808,0.041314,-0.284409,10.043514,-0.019316,0.006961,-0.012634,0.000000,0.091553,0.061035
1.228967,0.028141,-0.275427,10.042916,-0.032488,0.015943,-0.013232,0.000000,0.061035,0.091553
1.239063,0.020956,-0.271236,10.042317,-0.039673,0.020134,-0.013831,0.000000,0.061035,0.061035
1.249247,0.021555,-0.277224,10.041718,-0.039075,0.014146,-0.014430,0.030518,0.061035,0.061035
1.259409,0.022753,-0.280816,10.039922,-0.037877,0.010554,-0.016226,-0.030518,0.030518,0.061035
1.269570,0.031734,-0.292192,10.048903,-0.028896,-0.000823,-0.007245,-0.061035,0.061035,0.030518
1.279709,0.048499,-0.301772,10.050699,-0.012131,-0.010403,-0.005449,-0.030518,0.091553,0.000000
1.289858,0.066462,-0.329914,10.051298,0.005832,-0.038544,-0.004850,-0.030518,0.061035,-0.030518
1.300037,0.076042,-0.334105,10.051298,0.015412,-0.042735,-0.004850,-0.030518,0.030518,0.000000
1.310315,0.092807,-0.350272,10.048903,0.032177,-0.058902,-0.007245,0.000000,0.000000,0.030518
1.320506,0.099992,-0.351469,10.045311,0.039362,-0.060099,-0.010837,0.000000,0.030518,0.030518
1.330726,0.096998,-0.341889,10.047706,0.036368,-0.050519,-0.008442,0.030518,0.030518,0.030518
1.340931,0.088017,-0.322729,10.051897,0.027387,-0.031359,-0.004251,0.000000,0.030518,0.030518
1.351038,0.072449,-0.313149,10.048903,0.011819,-0.021779,-0.007245,0.030518,0.030518,0.061035
1.361112,0.042512,-0.294587,10.051897,-0.018118,-0.003218,-0.004251,0.030518,0.091553,0.030518
1.371185,0.027543,-0.282612,10.053094,-0.033087,0.008758,-0.003054,0.000000,0.091553,0.000000
1.381251,0.018561,-0.265847,10.053094,-0.042069,0.025523,-0.003054,0.000000,0.061035,-0.030518
1.391331,0.024549,-0.262853,10.059681,-0.036081,0.028516,0.003533,0.000000,0.061035,-0.061035
1.401425,0.032932,-0.261057,10.054891,-0.027698,0.030313,-0.001257,-0.030518,0.061035,0.000000
1.411492,0.051493,-0.279020,10.052496,-0.009137,0.012350,-0.003652,-0.061035,0.091553,0.000000
1.421569,0.058678,-0.282612,10.059082,-0.001952,0.008758,0.002934,-0.030518,0.091553,-0.030518
1.431642,0.067061,-0.302371,10.056088,0.006431,-0.011001,-0.000060,-0.030518,0.061035,0.030518
1.441709,0.062869,-0.308359,10.056088,0.002239,-0.016989,-0.000060,-0.061035,0.061035,0.061035
1.451781,0.060474,-0.314346,10.058483,-0.000156,-0.022976,0.002335,-0.030518,0.061035,0.061035
1.461852,0.056882,-0.314945,10.056687,-0.003748,-0.023575,0.000539,-0.030518,0.030518,0.091553
1.471954,0.061073,-0.319136,10.051298,0.000443,-0.027767,-0.004850,-0.030518,0.091553,0.061035
1.482035,0.065863,-0.326321,10.057885,0.005233,-0.034952,0.001736,0.000000,0.122070,0.061035
1.492107,0.065264,-0.331111,10.060878,0.004634,-0.039742,0.004730,0.030518,0.122070,0.030518
1.502174,0.062271,-0.327519,10.059082,0.001641,-0.036149,0.002934,0.030518,0.122070,0.000000
1.512256,0.058079,-0.320933,10.052496,-0.002551,-0.029563,-0.003652,0.030518,0.122070,0.000000
1.522329,0.065264,-0.314945,10.041119,0.004634,-0.023575,-0.015029,0.030518,0.091553,0.000000
1.532395,0.058079,-0.304766,10.043514,-0.002551,-0.013396,-0.012634,0.000000,0.061035,0.030518
1.542471,0.052690,-0.298180,10.050101,-0.007939,-0.006810,-0.006047,0.000000,0.061035,0.030518
1.552545,0.044907,-0.289797,10.050101,-0.015723,0.001572,-0.006047,0.030518,0.030518,0.061035
1.562612,0.037722,-0.283211,10.045311,-0.022908,0.008159,-0.010837,0.061035,0.061035,0.061035
1.572718,0.032333,-0.279619,10.046508,-0.028297,0.011751,-0.009640,0.030518,0.061035,0.061035
1.582791,0.024549,-0.287402,10.047107,-0.036081,0.003967,-0.009041,0.030518,0.061035,0.061035
1.592857,0.025148,-0.302371,10.045311,-0.035482,-0.011001,-0.010837,0.061035,0.091553,-0.030518
1.602957,0.037722,-0.316143,10.048903,-0.022908,-0.024773,-0.007245,0.030518,0.091553,-0.030518
1.613047,0.043709,-0.316741,10.047706,-0.016921,-0.025371,-0.008442,0.030518,0.061035,-0.030518
1.623121,0.046703,-0.329914,10.045311,-0.013927,-0.038544,-0.010837,0.061035,0.061035,-0.030518
1.633208,0.050894,-0.325723,10.049502,-0.009736,-0.034353,-0.006646,0.030518,0.091553,-0.091553
1.643279,0.064067,-0.323926,10.053693,0.003437,-0.032557,-0.002455,0.091553,0.091553,-0.091553
1.653344,0.060474,-0.298180,10.072255,-0.000156,-0.006810,0.016107,0.061035,0.061035,-0.030518
1.663417,0.061073,-0.288600,10.042916,0.000443,0.002770,-0.013232,0.061035,0.030518,0.030518
1.673489,0.063468,-0.277224,10.064471,0.002838,0.014146,0.008323,0.030518,0.061035,0.030518
1.683556,0.067659,-0.278421,10.059681,0.007029,0.012949,0.003533,-0.030518,0.061035,0.030518
1.693629,0.071252,-0.273631,10.050101,0.010622,0.017739,-0.006047,0.000000,0.061035,0.061035
1.703705,0.071851,-0.285606,10.055490,0.011221,0.005764,-0.000659,-0.030518,0.061035,0.000000
1.713772,0.069456,-0.295785,10.057286,0.008826,-0.004415,0.001138,-0.030518,0.122070,0.000000
1.723869,0.069456,-0.305964,10.047706,0.008826,-0.014594,-0.008442,-0.030518,0.091553,-0.030518
1.733941,0.077838,-0.322729,10.053693,0.017208,-0.031359,-0.002455,-0.030518,0.061035,-0.030518
1.744028,0.079036,-0.346679,10.065070,0.018406,-0.055309,0.008921,-0.061035,0.061035,-0.030518
1.754100,0.105980,-0.383802,10.050101,0.045350,-0.092432,-0.006047,-0.061035,0.030518,0.000000
1.764174,0.113165,-0.391586,10.030941,0.052535,-0.100216,-0.025208,-0.030518,0.061035,0.000000
1.774239,0.107177,-0.386197,10.034533,0.046547,-0.094827,-0.021615,0.000000,0.091553,0.000000
1.784311,0.083227,-0.349074,10.051897,0.022597,-0.057704,-0.004251,0.000000,0.122070,0.030518
1.794382,0.068857,-0.334704,10.048903,0.008227,-0.043334,-0.007245,0.000000,0.091553,0.030518
1.804449,0.049697,-0.286205,10.054891,-0.010933,0.005165,-0.001257,0.000000,0.030518,0.030518
1.814520,0.033530,-0.256267,10.051298,-0.027100,0.035103,-0.004850,-0.030518,0.030518,0.000000
1.824590,0.003593,-0.205373,10.051298,-0.057037,0.085997,-0.004850,-0.061035,0.030518,0.000000
1.834655,-0.001198,-0.198787,10.056088,-0.061827,0.092583,-0.000060,-0.030518,0.030518,-0.030518
1.844725,-0.004191,-0.192200,10.056088,-0.064821,0.099170,-0.000060,0.000000,0.030518,0.000000
1.854796,0.008383,-0.205972,10.062675,-0.052247,0.085398,0.006526,0.000000,0.030518,-0.030518
1.864861,0.014370,-0.228126,10.053094,-0.046260,0.063244,-0.003054,0.000000,0.000000,-0.030518
1.874932,0.044308,-0.272433,10.045311,-0.016322,0.018936,-0.010837,0.061035,0.061035,-0.061035
1.885006,0.050295,-0.298779,10.045311,-0.010335,-0.007409,-0.010837,0.030518,0.061035,-0.030518
1.895072,0.068857,-0.341889,10.058483,0.008227,-0.050519,0.002335,0.000000,0.061035,0.030518
1.905143,0.074246,-0.353864,10.059082,0.013616,-0.062494,0.002934,-0.030518,0.061035,0.000000
1.915277,0.083826,-0.375419,10.042916,0.023196,-0.084049,-0.013232,0.000000,0.061035,0.061035
1.925342,0.097597,-0.382006,10.041718,0.036967,-0.090636,-0.014430,0.000000,0.061035,0.030518
1.935409,0.094005,-0.371228,10.042317,0.033375,-0.079858,-0.013831,-0.030518,0.061035,0.030518
1.945476,0.082628,-0.334105,10.047107,0.021998,-0.042735,-0.009041,0.000000,0.030518,0.000000
1.955543,0.081431,-0.318538,10.050699,0.020801,-0.027168,-0.005449,0.030518,0.030518,0.000000
1.965610,0.066462,-0.269440,10.049502,0.005832,0.021930,-0.006646,0.030518,0.030518,-0.030518
1.975676,0.049697,-0.253273,10.045909,-0.010933,0.038097,-0.010239,0.030518,0.030518,0.000000
1.985742,0.044907,-0.233514,10.059681,-0.015723,0.057855,0.003533,0.030518,0.030518,-0.030518
1.995809,0.022753,-0.218546,10.069261,-0.037877,0.072824,0.013113,0.030518,0.030518,0.030518
2.005874,0.021555,-0.216151,10.063872,-0.039075,0.075219,0.007724,0.030518,0.000000,0.030518
2.015981,0.032333,-0.222138,10.044712,-0.028297,0.069232,-0.011436,-0.030518,0.030518,0.030518
2.026057,0.031734,-0.244292,10.045311,-0.028896,0.047078,-0.010837,-0.030518,0.000000,0.061035
2.036126,0.037123,-0.270038,10.063872,-0.023507,0.021331,0.007724,-0.030518,0.000000,0.061035
2.046193,0.044308,-0.302371,10.062076,-0.016322,-0.011001,0.005928,-0.030518,0.000000,0.061035
2.056258,0.062271,-0.335303,10.058483,0.001641,-0.043933,0.002335,-0.030518,0.030518,0.030518
2.066326,0.089813,-0.383203,10.048304,0.029183,-0.091833,-0.007844,-0.030518,0.030518,0.030518
2.076393,0.110171,-0.396376,10.044712,0.049541,-0.105006,-0.011436,-0.030518,0.030518,0.000000
2.086466,0.128134,-0.410746,10.048903,0.067504,-0.119376,-0.007245,0.030518,0.030518,-0.030518
2.096532,0.125140,-0.401166,10.050101,0.064510,-0.109796,-0.006047,0.030518,0.061035,0.000000
2.106599,0.111368,-0.358055,10.053094,0.050738,-0.066686,-0.003054,0.061035,0.061035,0.030518
2.116707,0.096998,-0.331111,10.051897,0.036368,-0.039742,-0.004251,0.030518,0.061035,0.030518
2.126790,0.076042,-0.300575,10.053094,0.015412,-0.009205,-0.003054,0.030518,0.030518,0.030518
2.136857,0.026944,-0.233514,10.068662,-0.033686,0.057855,0.012514,0.030518,0.030518,0.030518
2.146924,0.014969,-0.206570,10.073452,-0.045661,0.084799,0.017304,0.000000,0.030518,0.030518
2.156990,-0.004790,-0.183818,10.069860,-0.065420,0.107552,0.013711,0.000000,0.061035,-0.030518
2.167057,-0.005389,-0.185015,10.064471,-0.066019,0.106355,0.008323,-0.030518,0.030518,-0.061035
2.177123,0.011376,-0.206570,10.053094,-0.049254,0.084799,-0.003054,-0.030518,0.030518,-0.061035
2.187189,0.029938,-0.235311,10.057286,-0.030692,0.056059,0.001138,-0.030518,0.000000,-0.030518
2.197254,0.045505,-0.263452,10.051298,-0.015125,0.027918,-0.004850,-0.091553,0.030518,0.030518
2.207320,0.079036,-0.341889,10.041718,0.018406,-0.050519,-0.014430,-0.091553,0.030518,0.061035
2.217387,0.097597,-0.352667,10.045909,0.036967,-0.061297,-0.010239,-0.152588,0.061035,0.061035
2.227452,0.125739,-0.405956,10.032138,0.065109,-0.114586,-0.024010,-0.061035,0.061035,0.061035
2.237518,0.128134,-0.410147,10.044712,0.067504,-0.118777,-0.011436,-0.061035,0.061035,0.061035
2.247585,0.122146,-0.393382,10.036329,0.061516,-0.102012,-0.019819,-0.030518,0.061035,0.091553
2.257651,0.108973,-0.378413,10.028546,0.048343,-0.087043,-0.027603,-0.030518,0.061035,0.030518
2.267717,0.092807,-0.355062,10.036928,0.032177,-0.063692,-0.019220,0.000000,0.091553,0.000000
2.277781,0.061672,-0.294587,10.045909,0.001042,-0.003218,-0.010239,0.000000,0.091553,0.000000
2.287873,0.037123,-0.259860,10.052496,-0.023507,0.031510,-0.003652,0.030518,0.091553,0.000000
2.297938,0.003593,-0.223336,10.063872,-0.057037,0.068034,0.007724,0.030518,0.091553,-0.030518
2.308002,-0.004790,-0.203577,10.068662,-0.065420,0.087793,0.012514,0.000000,0.091553,-0.030518
2.318068,-0.018561,-0.193997,10.062675,-0.079191,0.097373,0.006526,0.000000,0.030518,-0.061035
2.328133,-0.014370,-0.205373,10.062076,-0.075000,0.085997,0.005928,0.000000,0.030518,-0.030518
2.338197,-0.007784,-0.219743,10.066267,-0.068414,0.071627,0.010119,-0.030518,0.000000,-0.061035
2.348263,0.021555,-0.267643,10.060280,-0.039075,0.023726,0.004131,-0.061035,0.000000,-0.061035
2.358327,0.045505,-0.290995,10.058483,-0.015125,0.000375,0.002335,-0.061035,0.030518,-0.030518
2.368392,0.096400,-0.341889,10.049502,0.035770,-0.050519,-0.006646,-0.030518,0.061035,0.030518
2.378457,0.122146,-0.361049,10.042317,0.061516,-0.069679,-0.013831,-0.030518,0.061035,0.000000
2.388529,0.144300,-0.384999,10.043514,0.083670,-0.093630,-0.012634,-0.030518,0.030518,0.061035
2.398598,0.146695,-0.390388,10.045909,0.086065,-0.099018,-0.010239,0.000000,0.030518,0.091553
2.408664,0.137115,-0.380209,10.048304,0.076485,-0.088840,-0.007844,0.030518,0.030518,0.091553
2.418730,0.105980,-0.355062,10.038724,0.045350,-0.063692,-0.017424,0.030518,0.030518,0.061035
2.428794,0.082628,-0.335303,10.041718,0.021998,-0.043933,-0.014430,0.000000,0.000000,0.030518
2.438860,0.048499,-0.296384,10.051897,-0.012131,-0.005014,-0.004251,-0.030518,0.030518,-0.030518
2.448924,0.022154,-0.285606,10.047107,-0.038476,0.005764,-0.009041,-0.030518,0.030518,-0.061035
2.458988,0.008383,-0.261057,10.052496,-0.052247,0.030313,-0.003652,-0.030518,0.061035,-0.061035
2.469054,0.006586,-0.252675,10.059082,-0.054044,0.038695,0.002934,-0.030518,0.061035,-0.061035
2.479119,0.002994,-0.247885,10.054891,-0.057636,0.043485,-0.001257,0.000000,0.030518,0.030518
2.489183,0.010778,-0.253872,10.053094,-0.049852,0.037498,-0.003054,-0.030518,0.000000,0.061035
2.499248,0.017364,-0.258662,10.057885,-0.043266,0.032708,0.001736,-0.061035,0.030518,0.091553
2.509315,0.042512,-0.276026,10.048304,-0.018118,0.015344,-0.007844,-0.061035,0.030518,0.091553
2.519402,0.053888,-0.287402,10.045311,-0.006742,0.003967,-0.010837,-0.061035,0.061035,0.091553
2.529477,0.086221,-0.315544,10.048304,0.025591,-0.024174,-0.007844,-0.061035,0.061035,0.091553
2.539544,0.097597,-0.323328,10.053094,0.036967,-0.031958,-0.003054,-0.030518,0.061035,0.091553
2.549618,0.108375,-0.333506,10.050101,0.047745,-0.042137,-0.006047,-0.030518,0.061035,0.061035
2.559777,0.114362,-0.355062,10.040521,0.053732,-0.063692,-0.015628,-0.030518,0.061035,0.000000
2.569888,0.120350,-0.362247,10.044712,0.059720,-0.070877,-0.011436,0.000000,0.091553,-0.030518
2.579956,0.106578,-0.355660,10.053094,0.045948,-0.064291,-0.003054,0.000000,0.091553,-0.030518
2.590021,0.092208,-0.348475,10.056088,0.031578,-0.057105,-0.000060,0.030518,0.091553,-0.061035
2.600088,0.066462,-0.321531,10.050699,0.005832,-0.030162,-0.005449,0.030518,0.122070,-0.030518
2.610164,0.058079,-0.305365,10.048304,-0.002551,-0.013995,-0.007844,0.030518,0.122070,-0.030518
2.620230,0.032333,-0.273032,10.050699,-0.028297,0.018338,-0.005449,0.030518,0.091553,0.061035
2.630325,0.030536,-0.262255,10.056088,-0.030093,0.029115,-0.000060,0.030518,0.091553,0.061035
2.640391,0.020956,-0.251477,10.060280,-0.039673,0.039893,0.004131,0.030518,0.030518,0.030518
2.650455,0.012574,-0.243094,10.065070,-0.048056,0.048275,0.008921,-0.030518,0.000000,0.030518
2.660520,0.015568,-0.244891,10.056687,-0.045062,0.046479,0.000539,-0.030518,-0.030518,0.061035
2.670585,0.031734,-0.262853,10.049502,-0.028896,0.028516,-0.006646,-0.030518,-0.030518,0.091553
2.680652,0.043110,-0.284409,10.050101,-0.017520,0.006961,-0.006047,-0.030518,0.000000,0.091553
2.690717,0.074844,-0.324525,10.050101,0.014214,-0.033155,-0.006047,-0.030518,-0.030518,0.000000
2.700783,0.088616,-0.340692,10.043514,0.027986,-0.049322,-0.012634,-0.030518,0.030518,0.000000
2.710859,0.105980,-0.352667,10.040521,0.045350,-0.061297,-0.015628,-0.030518,0.030518,0.000000
2.720923,0.126337,-0.369432,10.035132,0.065707,-0.078062,-0.021016,0.000000,0.061035,0.000000
2.730989,0.132924,-0.367635,10.039323,0.072294,-0.076266,-0.016825,0.030518,0.061035,0.000000
2.741054,0.118553,-0.347278,10.048304,0.057924,-0.055908,-0.007844,0.000000,0.091553,0.030518
2.751121,0.104183,-0.334105,10.050699,0.043553,-0.042735,-0.005449,0.000000,0.061035,0.000000
2.761186,0.064666,-0.302371,10.055490,0.004036,-0.011001,-0.000659,0.030518,0.061035,-0.030518
2.771251,0.049098,-0.284409,10.054891,-0.011532,0.006961,-0.001257,0.030518,0.061035,-0.030518
2.781317,0.032333,-0.267045,10.058483,-0.028297,0.024325,0.002335,0.030518,0.061035,0.000000
2.791381,0.007185,-0.249082,10.065668,-0.053445,0.042288,0.009520,0.000000,0.030518,0.000000
2.801446,0.002395,-0.251477,10.063273,-0.058235,0.039893,0.007125,-0.030518,0.030518,-0.030518
2.811511,0.016166,-0.252076,10.059082,-0.044464,0.039294,0.002934,0.030518,0.061035,0.000000
2.821576,0.031135,-0.265847,10.057885,-0.029495,0.025523,0.001736,0.030518,0.030518,0.000000
2.831642,0.052690,-0.289199,10.058483,-0.007939,0.002171,0.002335,0.030518,0.000000,0.030518
2.841707,0.064067,-0.301174,10.058483,0.003437,-0.009804,0.002335,0.030518,0.000000,0.000000
2.851772,0.077239,-0.313748,10.062675,0.016609,-0.022378,0.006526,0.000000,0.000000,0.030518
2.861838,0.100591,-0.329315,10.058483,0.039961,-0.037945,0.002335,0.000000,0.030518,0.000000
2.871903,0.105381,-0.337099,10.050699,0.044751,-0.045729,-0.005449,0.030518,0.000000,0.030518
2.881967,0.111368,-0.343087,10.056088,0.050738,-0.051717,-0.000060,0.061035,0.030518,0.061035
2.892033,0.110770,-0.341889,10.052496,0.050140,-0.050519,-0.003652,0.030518,0.061035,0.030518
2.902098,0.094603,-0.335303,10.045311,0.033973,-0.043933,-0.010837,0.000000,0.061035,0.000000
2.912171,0.080832,-0.320334,10.045311,0.020202,-0.028964,-0.010837,0.000000,0.091553,-0.030518
2.922236,0.063468,-0.308359,10.049502,0.002838,-0.016989,-0.006646,0.000000,0.091553,-0.061035
2.932301,0.032333,-0.289199,10.057885,-0.028297,0.002171,0.001736,0.030518,0.061035,-0.030518
2.942366,0.016765,-0.280816,10.063872,-0.043865,0.010554,0.007724,0.030518,0.091553,-0.030518
2.952432,0.002994,-0.264051,10.059681,-0.057636,0.027319,0.003533,0.030518,0.061035,0.000000
2.962507,0.005988,-0.263452,10.051298,-0.054642,0.027918,-0.004850,0.000000,0.061035,-0.030518
2.972571,0.005389,-0.262255,10.062076,-0.055241,0.029115,0.005928,0.000000,0.030518,0.000000
2.982635,0.031734,-0.274230,10.041119,-0.028896,0.017140,-0.015029,-0.030518,0.061035,0.000000
2.992701,0.066462,-0.291594,10.025552,0.005832,-0.000224,-0.030596,0.030518,0.061035,0.000000
3.002805,0.125140,-0.347877,10.111174,0.064510,-0.056507,0.055026,0.000000,0.061035,0.030518
3.012905,0.140109,-0.355660,10.058483,0.079479,-0.064291,0.002335,-0.030518,0.030518,0.091553
3.023442,0.148491,-0.362845,10.002799,0.087861,-0.071476,-0.053349,0.000000,0.030518,0.091553
3.033549,0.136516,-0.350272,10.066866,0.075886,-0.058902,0.010718,0.030518,0.091553,0.061035
3.043670,0.077239,-0.342488,10.062076,0.016609,-0.051118,0.005928,-0.030518,0.061035,0.061035
3.053779,0.067061,-0.327519,10.018367,0.006431,-0.036149,-0.037781,0.000000,0.030518,0.030518
3.063847,0.038919,-0.296384,10.041718,-0.021711,-0.005014,-0.014430,0.030518,0.030518,-0.030518
3.073913,0.026944,-0.285606,10.053693,-0.033686,0.005764,-0.002455,0.061035,0.061035,0.000000
3.083979,0.017364,-0.273032,10.033934,-0.043266,0.018338,-0.022214,0.030518,0.061035,-0.061035
3.094043,0.020358,-0.253273,10.052496,-0.040272,0.038097,-0.003652,0.000000,0.061035,-0.030518
3.104109,0.013771,-0.249082,10.069860,-0.046859,0.042288,0.013711,0.030518,0.061035,0.000000
3.114226,0.004790,-0.243693,10.058483,-0.055840,0.047677,0.002335,0.000000,0.061035,0.030518
3.124292,0.005988,-0.241298,10.047706,-0.054642,0.050072,-0.008442,0.000000,0.030518,0.030518
3.134356,0.018561,-0.257465,10.062076,-0.042069,0.033905,0.005928,0.000000,0.000000,0.030518
3.144422,0.037123,-0.270637,10.068063,-0.023507,0.020733,0.011915,-0.030518,0.000000,0.061035
3.154488,0.053289,-0.278421,10.051897,-0.007341,0.012949,-0.004251,0.000000,0.030518,0.061035
3.164554,0.079634,-0.312550,10.038724,0.019004,-0.021180,-0.017424,-0.061035,0.061035,0.061035
3.174619,0.094005,-0.320933,10.059082,0.033375,-0.029563,0.002934,-0.030518,0.030518,0.030518
3.184685,0.112566,-0.333506,10.051298,0.051936,-0.042137,-0.004850,-0.030518,0.030518,0.030518
3.194751,0.101788,-0.346080,10.053094,0.041158,-0.054710,-0.003054,0.000000,0.061035,0.000000
3.204816,0.102986,-0.346679,10.055490,0.042356,-0.055309,-0.000659,0.000000,0.061035,0.000000
3.214883,0.094603,-0.343685,10.047706,0.033973,-0.052315,-0.008442,0.000000,0.061035,0.000000
3.224948,0.089813,-0.336500,10.048304,0.029183,-0.045130,-0.007844,0.000000,0.091553,0.030518
3.235013,0.056882,-0.319735,10.052496,-0.003748,-0.028365,-0.003652,0.030518,0.091553,0.030518
3.245078,0.034129,-0.308359,10.072255,-0.026501,-0.016989,0.016107,0.000000,0.061035,0.061035
3.255143,0.019160,-0.279619,10.080637,-0.041470,0.011751,0.024489,0.000000,0.061035,0.030518
3.265210,0.017963,-0.270637,10.062675,-0.042667,0.020733,0.006526,0.030518,0.030518,0.030518
3.275275,0.025148,-0.280217,10.054891,-0.035482,0.011153,-0.001257,0.000000,0.061035,0.000000
3.285343,0.031734,-0.282612,10.060878,-0.028896,0.008758,0.004730,-0.030518,0.030518,0.030518
3.295409,0.042512,-0.281415,10.053094,-0.018118,0.009955,-0.003054,-0.030518,0.030518,0.000000
3.305480,0.059875,-0.292192,10.059681,-0.000754,-0.000823,0.003533,0.000000,0.061035,0.000000
3.315550,0.073048,-0.290396,10.054891,0.012418,0.000974,-0.001257,-0.030518,0.030518,-0.030518
3.325616,0.091011,-0.295186,10.053094,0.030381,-0.003816,-0.003054,0.000000,0.061035,-0.030518
3.335681,0.106578,-0.301772,10.053094,0.045948,-0.010403,-0.003054,-0.030518,0.030518,0.000000
3.345747,0.133522,-0.304766,10.060878,0.072892,-0.013396,0.004730,-0.030518,0.061035,0.000000
3.355814,0.126337,-0.294587,10.057885,0.065707,-0.003218,0.001736,-0.030518,0.061035,0.030518
3.365880,0.112566,-0.307161,10.042916,0.051936,-0.015791,-0.013232,0.030518,0.061035,0.061035
3.375945,0.068258,-0.296982,10.065668,0.007628,-0.005613,0.009520,0.000000,0.091553,0.091553
3.386011,0.043110,-0.289199,10.069860,-0.017520,0.002171,0.013711,0.000000,0.061035,0.091553
3.396085,0.008981,-0.282612,10.057885,-0.051649,0.008758,0.001736,0.000000,0.030518,0.030518
3.406151,-0.001796,-0.285007,10.059681,-0.062426,0.006363,0.003533,-0.030518,0.030518,0.030518
3.416218,0.000000,-0.293989,10.051897,-0.060630,-0.002619,-0.004251,-0.030518,0.061035,-0.030518
3.426284,0.002994,-0.305365,10.050699,-0.057636,-0.013995,-0.005449,0.000000,0.061035,0.000000
3.436349,0.010778,-0.316741,10.056687,-0.049852,-0.025371,0.000539,-0.061035,0.030518,0.000000
3.446416,0.024549,-0.327519,10.063273,-0.036081,-0.036149,0.007125,-0.030518,0.030518,0.000000
3.456481,0.034728,-0.331710,10.066267,-0.025902,-0.040340,0.010119,-0.030518,0.030518,0.030518
3.466547,0.059277,-0.335901,10.061477,-0.001353,-0.044532,0.005329,-0.030518,0.030518,0.030518
3.476613,0.077838,-0.323328,10.062675,0.017208,-0.031958,0.006526,-0.030518,0.030518,0.000000
3.486680,0.101788,-0.301772,10.073452,0.041158,-0.010403,0.017304,-0.030518,0.030518,0.030518
3.496747,0.108375,-0.294587,10.071057,0.047745,-0.003218,0.014909,-0.030518,0.030518,0.030518
3.506813,0.108375,-0.291594,10.071656,0.047745,-0.000224,0.015508,-0.030518,0.091553,0.030518
3.516885,0.096998,-0.274828,10.061477,0.036368,0.016541,0.005329,0.000000,0.091553,0.000000
3.526950,0.086819,-0.271835,10.059681,0.026190,0.019535,0.003533,-0.030518,0.061035,0.030518
3.537015,0.068258,-0.272433,10.062076,0.007628,0.018936,0.005928,-0.030518,0.091553,0.000000
3.547082,0.057480,-0.278421,10.066866,-0.003149,0.012949,0.010718,-0.030518,0.091553,0.000000
3.557148,0.044308,-0.291594,10.069261,-0.016322,-0.000224,0.013113,-0.030518,0.091553,-0.030518
3.567215,0.044907,-0.301174,10.053693,-0.015723,-0.009804,-0.002455,-0.061035,0.061035,-0.030518
3.577282,0.037722,-0.306563,10.051298,-0.022908,-0.015193,-0.004850,-0.061035,0.091553,-0.061035
3.587347,0.037722,-0.321531,10.058483,-0.022908,-0.030162,0.002335,-0.061035,0.061035,-0.061035
3.597413,0.038919,-0.321531,10.065070,-0.021711,-0.030162,0.008921,-0.061035,0.061035,-0.030518
3.607480,0.035925,-0.317939,10.063872,-0.024705,-0.026569,0.007724,-0.030518,0.030518,0.030518
3.617547,0.034129,-0.311951,10.054891,-0.026501,-0.020581,-0.001257,0.000000,0.061035,0.061035
3.627613,0.047302,-0.309556,10.055490,-0.013328,-0.018186,-0.000659,0.000000,0.030518,0.061035
3.637680,0.058079,-0.310754,10.060878,-0.002551,-0.019384,0.004730,0.030518,0.030518,0.091553
3.647744,0.067659,-0.308958,10.057885,0.007029,-0.017588,0.001736,0.030518,-0.030518,0.000000
3.657809,0.090412,-0.313149,10.047706,0.029782,-0.021779,-0.008442,0.030518,0.000000,0.000000
3.667872,0.099393,-0.307760,10.045311,0.038763,-0.016390,-0.010837,0.061035,0.000000,0.000000
3.677936,0.099992,-0.304167,10.041718,0.039362,-0.012798,-0.014430,0.030518,0.061035,0.000000
3.688000,0.096400,-0.296982,10.050699,0.035770,-0.005613,-0.005449,0.000000,0.091553,0.000000
3.698065,0.088616,-0.298180,10.056687,0.027986,-0.006810,0.000539,-0.030518,0.061035,0.000000
3.708130,0.079036,-0.286205,10.052496,0.018406,0.005165,-0.003652,-0.030518,0.091553,0.030518
3.718200,0.066462,-0.284409,10.048903,0.005832,0.006961,-0.007245,-0.030518,0.091553,0.061035
3.728264,0.043110,-0.284409,10.041718,-0.017520,0.006961,-0.014430,0.000000,0.091553,0.061035
3.738330,0.026345,-0.284409,10.044712,-0.034285,0.006961,-0.011436,0.030518,0.061035,0.061035
3.748398,0.011376,-0.301174,10.042317,-0.049254,-0.009804,-0.013831,-0.030518,0.061035,0.030518
3.758465,0.010778,-0.311951,10.036928,-0.049852,-0.020581,-0.019220,-0.061035,0.061035,0.030518
3.768532,0.018561,-0.328118,10.035731,-0.042069,-0.036748,-0.020418,0.000000,0.030518,0.000000
3.778600,0.029938,-0.330513,10.036329,-0.030692,-0.039143,-0.019819,0.000000,0.030518,0.000000
3.788693,0.044308,-0.337099,10.042317,-0.016322,-0.045729,-0.013831,0.000000,0.030518,0.000000
3.798763,0.068857,-0.344284,10.040521,0.008227,-0.052914,-0.015628,0.000000,0.030518,0.030518
3.808833,0.079036,-0.344284,10.040521,0.018406,-0.052914,-0.015628,0.030518,0.030518,0.030518
3.818898,0.089214,-0.318538,10.050699,0.028585,-0.027168,-0.005449,0.000000,0.030518,0.061035
3.828964,0.090412,-0.308359,10.048903,0.029782,-0.016989,-0.007245,0.030518,0.030518,0.091553
3.839029,0.082628,-0.282014,10.045909,0.021998,0.009356,-0.010239,0.061035,0.000000,0.091553
3.849093,0.079634,-0.270637,10.039922,0.019004,0.020733,-0.016226,0.030518,0.000000,0.061035
3.859159,0.067659,-0.256866,10.043514,0.007029,0.034504,-0.012634,0.030518,0.030518,0.030518
3.869223,0.052092,-0.255070,10.051897,-0.008538,0.036300,-0.004251,0.061035,0.030518,0.000000
3.879288,0.044907,-0.261057,10.053094,-0.015723,0.030313,-0.003054,0.030518,0.061035,0.030518
3.889353,0.040715,-0.279020,10.053094,-0.019915,0.012350,-0.003054,0.030518,0.030518,0.000000
3.899418,0.043709,-0.295186,10.048304,-0.016921,-0.003816,-0.007844,0.030518,0.030518,-0.030518
3.909483,0.035327,-0.316143,10.039323,-0.025303,-0.024773,-0.016825,0.000000,0.091553,0.000000
3.919549,0.037722,-0.328118,10.033336,-0.022908,-0.036748,-0.022813,-0.030518,0.091553,0.030518
3.929613,0.045505,-0.325124,10.032138,-0.015125,-0.033754,-0.024010,-0.030518,0.061035,0.061035
3.939677,0.045505,-0.319735,10.047706,-0.015125,-0.028365,-0.008442,0.000000,0.061035,0.061035
3.949742,0.041913,-0.313748,10.048304,-0.018717,-0.022378,-0.007844,0.030518,0.030518,0.030518
3.959806,0.052092,-0.302371,10.045311,-0.008538,-0.011001,-0.010837,0.030518,0.000000,0.061035
3.969871,0.056283,-0.301174,10.038126,-0.004347,-0.009804,-0.018023,0.030518,-0.030518,0.030518
3.979936,0.062271,-0.301174,10.041718,0.001641,-0.009804,-0.014430,0.030518,0.030518,0.030518
3.990000,0.065863,-0.298180,10.049502,0.005233,-0.006810,-0.006646,0.030518,0.030518,0.030518
4.000065,0.071851,-0.293989,10.047706,0.011221,-0.002619,-0.008442,0.061035,0.061035,-0.061035
4.010131,0.081431,-0.289199,10.046508,0.020801,0.002171,-0.009640,0.061035,0.061035,-0.030518
4.020197,0.086819,-0.284409,10.047706,0.026190,0.006961,-0.008442,0.030518,0.061035,0.000000
4.030262,0.077838,-0.286205,10.040521,0.017208,0.005165,-0.015628,0.061035,0.091553,0.000000
4.040326,0.072449,-0.282612,10.045311,0.011819,0.008758,-0.010837,0.061035,0.091553,0.000000
4.050390,0.059875,-0.277224,10.052496,-0.000754,0.014146,-0.003652,0.030518,0.091553,0.030518
4.060461,0.055085,-0.280217,10.048903,-0.005544,0.011153,-0.007245,0.030518,0.061035,0.030518
4.070526,0.046104,-0.280217,10.048304,-0.014526,0.011153,-0.007844,0.000000,0.061035,0.061035
4.080590,0.038919,-0.298180,10.045311,-0.021711,-0.006810,-0.010837,0.000000,0.061035,0.030518
4.090656,0.040117,-0.302970,10.033336,-0.020513,-0.011600,-0.022813,0.000000,0.091553,0.030518
4.100721,0.041314,-0.318538,10.042317,-0.019316,-0.027168,-0.013831,-0.030518,0.061035,0.030518
4.110796,0.042512,-0.320933,10.040521,-0.018118,-0.029563,-0.015628,-0.030518,0.091553,0.030518
4.120860,0.060474,-0.335303,10.033934,-0.000156,-0.043933,-0.022214,-0.030518,0.061035,0.000000
4.130924,0.067659,-0.327519,10.046508,0.007029,-0.036149,-0.009640,-0.030518,0.061035,0.000000
4.140990,0.070054,-0.328716,10.044712,0.009424,-0.037347,-0.011436,-0.091553,0.030518,0.061035
4.151055,0.078437,-0.313149,10.048304,0.017807,-0.021779,-0.007844,-0.061035,0.030518,0.030518
4.161121,0.076042,-0.305365,10.045311,0.015412,-0.013995,-0.010837,-0.030518,0.061035,0.030518
4.171186,0.067659,-0.293390,10.039922,0.007029,-0.002020,-0.016226,0.000000,0.030518,0.061035
4.181251,0.052092,-0.283810,10.039323,-0.008538,0.007560,-0.016825,0.000000,0.061035,0.061035
4.191316,0.037722,-0.285606,10.047706,-0.022908,0.005764,-0.008442,0.000000,0.030518,0.030518
4.201381,0.037123,-0.279619,10.047107,-0.023507,0.011751,-0.009041,-0.030518,0.030518,0.030518
4.211447,0.035925,-0.286804,10.039323,-0.024705,0.004566,-0.016825,-0.061035,0.030518,-0.030518
4.221512,0.033530,-0.292192,10.033934,-0.027100,-0.000823,-0.022214,-0.091553,0.030518,-0.061035
4.231578,0.034728,-0.296384,10.034533,-0.025902,-0.005014,-0.021615,-0.091553,0.061035,-0.030518
4.241643,0.035327,-0.310155,10.033934,-0.025303,-0.018785,-0.022214,-0.030518,0.091553,-0.061035
4.251709,0.045505,-0.311951,10.050699,-0.015125,-0.020581,-0.005449,-0.061035,0.061035,-0.030518
4.261774,0.058079,-0.321531,10.029144,-0.002551,-0.030162,-0.027004,-0.061035,0.091553,-0.030518
4.271840,0.056283,-0.328716,10.032737,-0.004347,-0.037347,-0.023411,-0.061035,0.061035,0.000000
4.281905,0.061672,-0.323328,10.030342,0.001042,-0.031958,-0.025806,-0.030518,0.030518,-0.030518
4.291970,0.053289,-0.325723,10.046508,-0.007341,-0.034353,-0.009640,-0.030518,0.030518,-0.061035
4.302035,0.047302,-0.325124,10.060878,-0.013328,-0.033754,0.004730,-0.030518,0.061035,-0.061035
4.312105,0.043110,-0.314945,10.036329,-0.017520,-0.023575,-0.019819,0.000000,0.000000,-0.061035
4.322170,0.049697,-0.304167,10.033934,-0.010933,-0.012798,-0.022214,0.030518,0.000000,-0.061035
4.332236,0.076641,-0.306563,10.074650,0.016011,-0.015193,0.018502,0.122070,0.030518,0.000000
4.342303,0.099393,-0.344883,10.056088,0.038763,-0.053513,-0.000060,0.061035,0.000000,0.000000
4.352394,0.109572,-0.324525,10.035132,0.048942,-0.033155,-0.021016,0.000000,0.030518,0.000000
4.362461,0.078437,-0.313748,10.047107,0.017807,-0.022378,-0.009041,0.030518,0.061035,0.030518
4.372527,0.050295,-0.290396,10.072255,-0.010335,0.000974,0.016107,-0.030518,0.061035,0.030518
4.382592,0.013771,-0.255070,10.062675,-0.046859,0.036300,0.006526,-0.030518,0.000000,0.000000
4.392663,0.005988,-0.252675,10.077045,-0.054642,0.038695,0.020897,0.030518,0.030518,0.000000
4.402729,0.031734,-0.292192,10.040521,-0.028896,-0.000823,-0.015628,-0.030518,0.061035,0.000000
4.412805,0.056882,-0.292791,10.046508,-0.003748,-0.001421,-0.009640,0.000000,0.030518,-0.030518
4.422870,0.076042,-0.298779,10.044113,0.015412,-0.007409,-0.012035,-0.061035,0.030518,0.030518
4.432936,0.079036,-0.308958,10.038126,0.018406,-0.017588,-0.018023,-0.061035,0.061035,0.030518
4.443004,0.064067,-0.305365,10.056088,0.003437,-0.013995,-0.000060,0.000000,0.061035,0.091553
4.453069,0.046104,-0.323328,10.041119,-0.014526,-0.031958,-0.015029,0.000000,0.030518,0.091553
4.463135,0.029938,-0.334105,10.021959,-0.030692,-0.042735,-0.034189,0.000000,0.030518,0.091553
4.473200,0.018561,-0.337099,10.042916,-0.042069,-0.045729,-0.013232,0.000000,0.091553,0.000000
4.483265,0.032333,-0.337099,10.045909,-0.028297,-0.045729,-0.010239,0.000000,0.030518,-0.061035
4.493331,0.053289,-0.328716,10.050699,-0.007341,-0.037347,-0.005449,0.030518,0.030518,-0.122070
4.503397,0.079036,-0.323328,10.046508,0.018406,-0.031958,-0.009640,0.061035,0.030518,-0.091553
4.513469,0.083826,-0.310155,10.055490,0.023196,-0.018785,-0.000659,0.061035,0.061035,-0.030518
4.523535,0.091011,-0.289199,10.047706,0.030381,0.002171,-0.008442,0.061035,0.030518,0.000000
4.533600,-0.010179,-0.306563,10.012379,-0.070809,-0.015193,-0.043769,0.152588,-0.061035,0.000000
4.543666,0.098196,-0.291594,10.016570,0.037566,-0.000224,-0.039578,0.000000,0.122070,0.061035
4.553732,0.121547,-0.262255,10.013577,0.060917,0.029115,-0.042571,0.000000,0.000000,0.061035
4.563798,0.098795,-0.261057,10.024354,0.038165,0.030313,-0.031794,-0.091553,0.091553,0.030518
4.573864,0.057480,-0.274828,10.066267,-0.003149,0.016541,0.010119,-0.091553,0.122070,0.061035
4.583930,0.049098,-0.270637,10.038126,-0.011532,0.020733,-0.018023,0.061035,0.030518,0.000000
4.593995,0.041913,-0.298779,10.046508,-0.018717,-0.007409,-0.009640,0.030518,0.030518,0.000000
4.604061,0.032333,-0.318538,10.055490,-0.028297,-0.027168,-0.000659,0.000000,0.122070,-0.030518
4.614127,0.042512,-0.328118,10.040521,-0.018118,-0.036748,-0.015628,0.000000,0.091553,-0.030518
4.624193,0.054487,-0.329315,10.036329,-0.006143,-0.037945,-0.019819,0.000000,0.030518,-0.061035
4.634258,0.044907,-0.341889,10.054891,-0.015723,-0.050519,-0.001257,0.000000,0.061035,0.000000
4.644324,0.048499,-0.343087,10.065070,-0.012131,-0.051717,0.008921,-0.030518,0.091553,0.000000
4.654389,0.059875,-0.334704,10.058483,-0.000754,-0.043334,0.002335,0.000000,0.061035,0.030518
4.664455,0.077838,-0.316741,10.045909,0.017208,-0.025371,-0.010239,0.000000,0.030518,0.030518
4.674520,0.070653,-0.304766,10.054292,0.010023,-0.013396,-0.001856,0.000000,0.030518,0.061035
4.684586,0.065264,-0.282014,10.062076,0.004634,0.009356,0.005928,0.030518,0.030518,0.000000
4.694663,0.068857,-0.270637,10.060878,0.008227,0.020733,0.004730,0.061035,0.030518,0.000000
4.704730,0.066462,-0.263452,10.055490,0.005832,0.027918,-0.000659,-0.030518,0.030518,-0.030518
4.714802,0.058678,-0.264051,10.063872,-0.001952,0.027319,0.007724,-0.061035,0.061035,0.000000
4.724867,0.059277,-0.270637,10.063273,-0.001353,0.020733,0.007125,-0.061035,0.061035,-0.030518
4.734932,0.077239,-0.275427,10.053094,0.016609,0.015943,-0.003054,-0.061035,0.000000,-0.061035
4.744998,0.081431,-0.289199,10.052496,0.020801,0.002171,-0.003652,-0.030518,0.000000,-0.030518
4.755064,0.068258,-0.320334,10.057286,0.007628,-0.028964,0.001138,-0.061035,0.061035,-0.030518
4.765132,0.069456,-0.322130,10.052496,0.008826,-0.030760,-0.003652,-0.061035,0.061035,-0.030518
4.775198,0.061672,-0.332908,10.047706,0.001042,-0.041538,-0.008442,-0.061035,0.061035,0.030518
4.785265,0.055085,-0.334105,10.055490,-0.005544,-0.042735,-0.000659,-0.030518,0.061035,0.030518
4.795331,0.040117,-0.338895,10.060280,-0.020513,-0.047525,0.004131,-0.091553,0.091553,0.061035
4.805397,0.041314,-0.325124,10.053094,-0.019316,-0.033754,-0.003054,-0.030518,0.061035,0.030518
4.815462,0.046104,-0.315544,10.045909,-0.014526,-0.024174,-0.010239,0.000000,0.061035,0.000000
4.825528,0.041913,-0.299976,10.055490,-0.018717,-0.008606,-0.000659,0.030518,0.030518,0.000000
4.835594,0.047900,-0.299377,10.063273,-0.012730,-0.008008,0.007125,0.030518,0.061035,-0.061035
4.845659,0.068857,-0.293390,10.059082,0.008227,-0.002020,0.002934,0.030518,0.030518,-0.061035
4.855726,0.074844,-0.290396,10.063273,0.014214,0.000974,0.007125,0.061035,0.030518,-0.061035
4.865792,0.089214,-0.290396,10.060280,0.028585,0.000974,0.004131,0.030518,0.061035,-0.061035
4.875857,0.094005,-0.295186,10.060280,0.033375,-0.003816,0.004131,0.061035,0.091553,-0.030518
4.885924,0.094005,-0.290995,10.060280,0.033375,0.000375,0.004131,0.030518,0.091553,-0.030518
4.895990,0.082029,-0.288001,10.060280,0.021399,0.003369,0.004131,0.030518,0.122070,0.030518
4.906056,0.070054,-0.289797,10.062675,0.009424,0.001572,0.006526,0.000000,0.122070,0.061035
4.916127,0.055684,-0.292192,10.058483,-0.004946,-0.000823,0.002335,-0.030518,0.091553,0.030518
4.926191,0.052092,-0.298779,10.062076,-0.008538,-0.007409,0.005928,-0.030518,0.091553,0.030518
4.936260,0.050295,-0.307161,10.061477,-0.010335,-0.015791,0.005329,-0.030518,0.091553,0.030518
4.946326,0.043709,-0.314346,10.057286,-0.016921,-0.022976,0.001138,0.000000,0.091553,0.030518
4.956392,0.045505,-0.319735,10.058483,-0.015125,-0.028365,0.002335,0.030518,0.061035,0.000000
4.966458,0.048499,-0.334704,10.056088,-0.012131,-0.043334,-0.000060,0.000000,0.000000,-0.061035
4.976524,0.049098,-0.339494,10.047706,-0.011532,-0.048124,-0.008442,0.000000,0.030518,-0.030518
4.986590,0.052690,-0.342488,10.056088,-0.007939,-0.051118,-0.000060,0.030518,0.061035,-0.030518
4.996655,0.056283,-0.331710,10.053693,-0.004347,-0.040340,-0.002455,0.000000,0.061035,0.000000
5.006754,0.062869,-0.324525,10.044712,0.002239,-0.033155,-0.011436,0.000000,0.091553,0.061035
5.016845,0.055684,-0.302970,10.054292,-0.004946,-0.011600,-0.001856,0.000000,0.091553,0.061035
5.026912,0.056882,-0.289199,10.057885,-0.003748,0.002171,0.001736,0.000000,0.061035,0.030518
5.037015,0.058079,-0.276026,10.057286,-0.002551,0.015344,0.001138,-0.030518,0.061035,0.030518
5.047138,0.059277,-0.271236,10.060280,-0.001353,0.020134,0.004131,-0.030518,0.061035,0.000000
5.057204,0.064067,-0.268841,10.060280,0.003437,0.022529,0.004131,-0.030518,0.091553,0.030518
5.067273,0.063468,-0.273631,10.062076,0.002838,0.017739,0.005928,-0.030518,0.091553,0.000000
5.077338,0.065863,-0.286205,10.057286,0.005233,0.005165,0.001138,-0.061035,0.091553,0.030518
5.087405,0.068857,-0.303569,10.065070,0.008227,-0.012199,0.008921,-0.061035,0.091553,0.030518
5.097471,0.067659,-0.313149,10.062076,0.007029,-0.021779,0.005928,-0.061035,0.061035,0.030518
5.107539,0.061073,-0.325723,10.060280,0.000443,-0.034353,0.004131,-0.091553,0.061035,0.030518
5.117611,0.056283,-0.322729,10.059681,-0.004347,-0.031359,0.003533,-0.091553,0.030518,0.030518
5.127677,0.047302,-0.323926,10.057885,-0.013328,-0.032557,0.001736,-0.030518,0.030518,0.000000
5.137742,0.046104,-0.323328,10.062076,-0.014526,-0.031958,0.005928,0.000000,0.061035,-0.030518
5.147806,0.044308,-0.318538,10.060280,-0.016322,-0.027168,0.004131,0.030518,0.061035,0.000000
5.157871,0.043709,-0.304167,10.063872,-0.016921,-0.012798,0.007724,0.030518,0.061035,-0.030518
5.167934,0.048499,-0.302970,10.060280,-0.012131,-0.011600,0.004131,0.030518,0.030518,0.000000
5.178006,0.061672,-0.298180,10.051897,0.001042,-0.006810,-0.004251,0.030518,0.030518,-0.030518
5.188082,0.067659,-0.289797,10.054292,0.007029,0.001572,-0.001856,0.030518,0.061035,0.000000
5.198146,0.075443,-0.282612,10.051298,0.014813,0.008758,-0.004850,0.000000,0.061035,0.000000
5.208211,0.077239,-0.285007,10.053693,0.016609,0.006363,-0.002455,0.000000,0.061035,-0.030518
5.218284,0.076641,-0.286205,10.055490,0.016011,0.005165,-0.000659,0.000000,0.061035,0.030518
5.228348,0.073647,-0.280816,10.054891,0.013017,0.010554,-0.001257,0.000000,0.061035,0.030518
5.238413,0.014370,-0.270038,10.040521,-0.046260,0.021331,-0.015628,0.000000,0.061035,0.030518
5.248477,0.070054,-0.273032,10.023157,0.009424,0.018338,-0.032991,-0.152588,0.274658,0.030518
5.258542,0.107776,-0.280816,9.959090,0.047146,0.010554,-0.097058,-0.061035,0.030518,-0.030518
5.268606,0.038320,-0.308359,10.075248,-0.022310,-0.016989,0.019100,-0.122070,0.213623,0.030518
5.278670,0.056283,-0.295186,10.060878,-0.004347,-0.003816,0.004730,-0.091553,0.213623,0.030518
5.288734,0.099992,-0.270038,10.061477,0.039362,0.021331,0.005329,0.030518,0.000000,-0.030518
5.298799,0.070653,-0.320933,10.064471,0.010023,-0.029563,0.008323,0.000000,0.061035,0.000000
5.308863,0.047900,-0.365240,10.039323,-0.012730,-0.073871,-0.016825,-0.091553,0.152588,0.030518
5.318933,0.083227,-0.325723,10.069261,0.022597,-0.034353,0.013113,0.030518,0.091553,0.061035
5.328999,0.098196,-0.286205,10.059082,0.037566,0.005165,0.002934,-0.030518,0.000000,0.061035
5.339064,0.049697,-0.310754,10.079440,-0.010933,-0.019384,0.023292,-0.030518,0.152588,0.061035
5.349129,0.049697,-0.304167,10.078841,-0.010933,-0.012798,0.022693,-0.030518,0.122070,0.091553
5.359195,0.065863,-0.285606,10.056088,0.005233,0.005764,-0.000060,0.000000,0.000000,0.061035
5.369259,0.056882,-0.273032,10.042317,-0.003748,0.018338,-0.013831,0.000000,0.030518,0.061035
5.379325,0.045505,-0.277822,10.063872,-0.015125,0.013548,0.007724,-0.061035,0.091553,0.030518
5.389389,0.060474,-0.268841,10.082433,-0.000156,0.022529,0.026285,-0.061035,0.061035,0.030518
5.399477,0.074844,-0.262853,10.048304,0.014214,0.028516,-0.007844,-0.030518,0.030518,0.000000
5.409549,0.061672,-0.289199,10.057286,0.001042,0.002171,0.001138,-0.030518,0.091553,0.000000
5.419615,0.055085,-0.296982,10.061477,-0.005544,-0.005613,0.005329,0.000000,0.122070,0.000000
5.429679,0.070054,-0.298779,10.054891,0.009424,-0.007409,-0.001257,0.000000,0.091553,0.061035
5.439744,0.070054,-0.308958,10.056088,0.009424,-0.017588,-0.000060,0.000000,0.091553,0.030518
5.449809,0.059277,-0.326321,10.068063,-0.001353,-0.034952,0.011915,0.000000,0.122070,0.030518
5.459874,0.061672,-0.323926,10.050101,0.001042,-0.032557,-0.006047,0.000000,0.061035,0.030518
5.469939,0.054487,-0.319735,10.036329,-0.006143,-0.028365,-0.019819,0.030518,0.061035,0.030518
5.480004,0.043709,-0.323926,10.053693,-0.016921,-0.032557,-0.002455,0.030518,0.091553,0.030518
5.490068,0.039518,-0.322729,10.063273,-0.021112,-0.031359,0.007125,0.000000,0.091553,0.030518
5.500133,0.041913,-0.314945,10.056088,-0.018717,-0.023575,-0.000060,0.000000,0.061035,0.061035
5.510197,0.044308,-0.307161,10.046508,-0.016322,-0.015791,-0.009640,0.000000,0.030518,0.061035
5.520268,0.044907,-0.304766,10.051298,-0.015723,-0.013396,-0.004850,-0.030518,0.000000,0.061035
5.530334,0.044308,-0.292192,10.051897,-0.016322,-0.000823,-0.004251,0.000000,0.030518,0.030518
5.540398,0.043110,-0.292791,10.056687,-0.017520,-0.001421,0.000539,0.000000,0.030518,0.030518
5.550473,0.048499,-0.280816,10.054292,-0.012131,0.010554,-0.001856,0.030518,0.000000,0.030518
5.560539,0.051493,-0.283211,10.053094,-0.009137,0.008159,-0.003054,0.000000,0.000000,0.030518
5.570605,0.052092,-0.286205,10.053693,-0.008538,0.005165,-0.002455,0.000000,-0.030518,-0.030518
5.580670,0.068857,-0.292192,10.056088,0.008227,-0.000823,-0.000060,0.000000,-0.030518,0.000000
5.590735,0.076042,-0.299976,10.063273,0.015412,-0.008606,0.007125,-0.030518,-0.030518,0.000000
5.600801,0.073647,-0.318538,10.067465,0.013017,-0.027168,0.011316,0.000000,0.030518,0.030518
5.610866,0.076641,-0.325124,10.065668,0.016011,-0.033754,0.009520,-0.030518,0.030518,0.000000
5.620932,0.083826,-0.332908,10.057885,0.023196,-0.041538,0.001736,0.000000,0.030518,0.030518
5.630998,0.067659,-0.335303,10.056088,0.007029,-0.043933,-0.000060,0.000000,0.030518,0.030518
5.641064,0.060474,-0.335901,10.066866,-0.000156,-0.044532,0.010718,-0.030518,0.061035,0.030518
5.651130,0.059875,-0.329315,10.056687,-0.000754,-0.037945,0.000539,-0.030518,0.030518,0.030518
5.661195,0.052092,-0.329315,10.048304,-0.008538,-0.037945,-0.007844,-0.030518,0.061035,0.000000
5.671261,0.048499,-0.317340,10.052496,-0.012131,-0.025970,-0.003652,-0.061035,0.061035,0.000000
5.681326,0.049697,-0.305365,10.057885,-0.010933,-0.013995,0.001736,-0.030518,0.061035,0.000000
5.691391,0.057480,-0.295186,10.065070,-0.003149,-0.003816,0.008921,0.000000,0.061035,-0.030518
5.701457,0.058678,-0.289797,10.068063,-0.001952,0.001572,0.011915,0.000000,0.091553,-0.030518
5.711522,0.066462,-0.288001,10.067465,0.005832,0.003369,0.011316,0.000000,0.122070,-0.030518
5.721587,0.064067,-0.283810,10.063872,0.003437,0.007560,0.007724,0.000000,0.091553,-0.030518
5.731653,0.070054,-0.278421,10.072255,0.009424,0.012949,0.016107,0.000000,0.122070,-0.030518
5.741719,0.065264,-0.286804,10.073452,0.004634,0.004566,0.017304,0.000000,0.091553,0.030518
5.751785,0.068857,-0.288001,10.069860,0.008227,0.003369,0.013711,0.000000,0.091553,0.030518
5.761850,0.066462,-0.292192,10.066866,0.005832,-0.000823,0.010718,0.030518,0.061035,0.000000
5.771915,0.070653,-0.300575,10.057885,0.010023,-0.009205,0.001736,0.030518,0.030518,0.030518
5.781980,0.070054,-0.300575,10.055490,0.009424,-0.009205,-0.000659,0.000000,0.091553,-0.030518
5.792046,0.074844,-0.310754,10.056687,0.014214,-0.019384,0.000539,0.030518,0.061035,-0.030518
5.802111,0.076042,-0.310155,10.057885,0.015412,-0.018785,0.001736,0.030518,0.000000,0.000000
5.812176,0.076042,-0.314346,10.051897,0.015412,-0.022976,-0.004251,0.000000,0.030518,0.030518
5.822242,0.068258,-0.316143,10.053094,0.007628,-0.024773,-0.003054,-0.030518,0.061035,0.030518
5.832308,0.059875,-0.306563,10.065070,-0.000754,-0.015193,0.008921,-0.030518,0.061035,0.030518
5.842373,0.056283,-0.305365,10.062076,-0.004347,-0.013995,0.005928,-0.030518,0.091553,0.030518
5.852439,0.057480,-0.297581,10.065070,-0.003149,-0.006211,0.008921,0.030518,0.061035,0.000000
5.862504,0.053888,-0.292192,10.063872,-0.006742,-0.000823,0.007724,0.000000,0.061035,0.030518
5.872570,0.058079,-0.288001,10.061477,-0.002551,0.003369,0.005329,0.000000,0.030518,0.061035
5.882635,0.050295,-0.280217,10.058483,-0.010335,0.011153,0.002335,0.000000,0.061035,0.030518
5.892701,0.049697,-0.286205,10.062076,-0.010933,0.005165,0.005928,0.000000,0.030518,0.030518
5.902766,0.047900,-0.294587,10.063273,-0.012730,-0.003218,0.007125,0.000000,0.091553,0.030518
5.912832,0.053888,-0.297581,10.059082,-0.006742,-0.006211,0.002934,-0.030518,0.091553,0.000000
5.922901,0.060474,-0.300575,10.063273,-0.000156,-0.009205,0.007125,0.000000,0.061035,0.030518
5.932967,0.068258,-0.310754,10.056687,0.007628,-0.019384,0.000539,0.061035,0.030518,0.061035
5.943033,0.070054,-0.322729,10.054891,0.009424,-0.031359,-0.001257,0.061035,0.030518,0.030518
5.953099,0.070653,-0.316741,10.060878,0.010023,-0.025371,0.004730,0.061035,0.061035,0.061035
5.963163,0.059277,-0.320933,10.059681,-0.001353,-0.029563,0.003533,0.030518,0.030518,0.061035
5.973228,0.050894,-0.309556,10.057286,-0.009736,-0.018186,0.001138,0.000000,0.061035,0.061035
5.983294,0.052690,-0.304167,10.066866,-0.007939,-0.012798,0.010718,0.030518,0.030518,0.030518
5.993359,0.048499,-0.296982,10.067465,-0.012131,-0.005613,0.011316,0.061035,0.030518,-0.030518
6.003425,0.046703,-0.285007,10.067465,-0.013927,0.006363,0.011316,0.030518,0.030518,-0.030518
6.013490,0.058678,-0.290396,10.060878,-0.001952,0.000974,0.004730,0.030518,0.030518,0.000000
6.023555,0.058079,-0.295186,10.053693,-0.002551,-0.003816,-0.002455,0.000000,0.061035,-0.030518
6.033621,0.065264,-0.301772,10.057885,0.004634,-0.010403,0.001736,0.000000,0.030518,-0.030518
6.043686,0.059277,-0.299377,10.065668,-0.001353,-0.008008,0.009520,-0.030518,0.061035,-0.030518
6.053751,0.059875,-0.302371,10.066866,-0.000754,-0.011001,0.010718,-0.030518,0.030518,0.000000
6.063816,0.057480,-0.301772,10.062076,-0.003149,-0.010403,0.005928,0.000000,0.030518,0.030518
6.073882,0.050295,-0.312550,10.059681,-0.010335,-0.021180,0.003533,0.000000,0.000000,0.000000
6.083947,0.049697,-0.313748,10.060878,-0.010933,-0.022378,0.004730,-0.030518,0.030518,0.000000
6.094013,0.050295,-0.320933,10.064471,-0.010335,-0.029563,0.008323,-0.030518,0.000000,0.030518
6.104080,0.054487,-0.319735,10.060878,-0.006143,-0.028365,0.004730,0.000000,0.000000,0.000000
6.114153,0.053289,-0.308359,10.053693,-0.007341,-0.016989,-0.002455,0.000000,0.030518,0.030518
6.124217,0.055684,-0.306563,10.050101,-0.004946,-0.015193,-0.006047,0.030518,0.061035,0.000000
6.134284,0.058079,-0.303569,10.051897,-0.002551,-0.012199,-0.004251,0.000000,0.061035,0.000000
6.144350,0.050894,-0.310155,10.059082,-0.009736,-0.018785,0.002934,0.030518,0.061035,0.000000
6.154416,0.050295,-0.310754,10.057885,-0.010335,-0.019384,0.001736,0.030518,0.091553,0.030518
6.164481,0.056283,-0.303569,10.058483,-0.004347,-0.012199,0.002335,0.000000,0.061035,0.061035
6.174546,0.052690,-0.304167,10.056088,-0.007939,-0.012798,-0.000060,0.000000,0.030518,0.030518
6.184612,0.048499,-0.301174,10.067465,-0.012131,-0.009804,0.011316,0.030518,0.091553,0.000000
6.194678,0.049697,-0.301772,10.069261,-0.010933,-0.010403,0.013113,0.030518,0.061035,0.000000
6.204742,0.049098,-0.300575,10.073452,-0.011532,-0.009205,0.017304,0.030518,0.030518,0.030518
6.214808,0.052690,-0.295785,10.064471,-0.007939,-0.004415,0.008323,0.061035,0.061035,0.000000
6.224873,0.055085,-0.302371,10.058483,-0.005544,-0.011001,0.002335,0.030518,0.030518,-0.061035
6.235014,0.072449,-0.312550,10.076446,0.011819,-0.021180,0.020298,0.030518,0.061035,0.030518
6.245108,0.076042,-0.310754,10.074650,0.015412,-0.019384,0.018502,0.030518,0.091553,0.000000
6.255198,0.067659,-0.310155,10.067465,0.007029,-0.018785,0.011316,0.061035,0.091553,0.061035
6.265290,0.065863,-0.310754,10.066267,0.005233,-0.019384,0.010119,0.030518,0.091553,0.030518
6.275380,0.056283,-0.304766,10.059082,-0.004347,-0.013396,0.002934,0.030518,0.091553,0.000000
6.285471,0.047900,-0.302970,10.064471,-0.012730,-0.011600,0.008323,0.030518,0.061035,0.030518
6.295562,0.040117,-0.292192,10.065668,-0.020513,-0.000823,0.009520,0.000000,0.091553,0.000000
6.305652,0.019759,-0.283211,10.065070,-0.040871,0.008159,0.008921,0.000000,0.091553,0.000000
6.315741,0.019759,-0.285007,10.061477,-0.040871,0.006363,0.005329,0.030518,0.061035,0.000000
6.325828,0.020956,-0.280816,10.057885,-0.039673,0.010554,0.001736,0.061035,0.030518,0.000000
6.335999,0.016765,-0.279020,10.057885,-0.043865,0.012350,0.001736,0.030518,0.000000,0.000000
6.346096,0.031135,-0.274230,10.059082,-0.029495,0.017140,0.002934,-0.030518,0.030518,-0.061035
6.356194,0.036524,-0.274828,10.056687,-0.024106,0.016541,0.000539,-0.061035,0.000000,-0.030518
6.366289,0.048499,-0.283211,10.062675,-0.012131,0.008159,0.006526,-0.061035,0.000000,-0.030518
6.376387,0.055684,-0.285606,10.061477,-0.004946,0.005764,0.005329,-0.091553,0.000000,-0.030518
6.386484,0.073048,-0.299976,10.060878,0.012418,-0.008606,0.004730,-0.061035,0.030518,0.000000
6.396598,0.144300,-0.351469,10.053693,0.083670,-0.060099,-0.002455,-0.061035,0.061035,0.000000
6.406690,0.173040,-0.396376,10.047706,0.112410,-0.105006,-0.008442,-0.030518,0.061035,0.000000
6.416786,0.188608,-0.423918,10.034533,0.127978,-0.132549,-0.021615,-0.030518,0.091553,0.091553
6.426885,0.161664,-0.414338,10.038724,0.101034,-0.122969,-0.017424,0.000000,0.091553,0.091553
6.437088,0.093406,-0.346679,10.057885,0.032776,-0.055309,0.001736,0.000000,0.091553,0.152588
6.447179,0.058079,-0.308958,10.054891,-0.002551,-0.017588,-0.001257,0.030518,0.091553,0.122070
6.457270,0.017963,-0.276625,10.063872,-0.042667,0.014745,0.007724,0.030518,0.091553,0.061035
6.467360,-0.017963,-0.228724,10.067465,-0.078593,0.062645,0.011316,0.061035,0.061035,0.030518
6.477450,-0.022154,-0.220941,10.063872,-0.082784,0.070429,0.007724,0.030518,0.061035,-0.061035
6.487551,-0.022154,-0.212558,10.072255,-0.082784,0.078812,0.016107,0.030518,0.030518,-0.122070
6.497642,-0.001796,-0.231718,10.075248,-0.062426,0.059652,0.019100,-0.030518,0.061035,-0.122070
6.507729,0.058079,-0.282014,10.075847,-0.002551,0.009356,0.019699,-0.030518,0.030518,-0.061035
6.517817,0.067061,-0.300575,10.065668,0.006431,-0.009205,0.009520,-0.030518,0.030518,-0.030518
6.527905,0.083227,-0.315544,10.065668,0.022597,-0.024174,0.009520,-0.030518,0.030518,0.030518
6.537993,0.080233,-0.331111,10.071057,0.019603,-0.039742,0.014909,-0.030518,0.030518,0.091553
6.548089,0.064067,-0.333506,10.060280,0.003437,-0.042137,0.004131,-0.030518,0.030518,0.091553
6.558182,0.026944,-0.331710,10.048304,-0.033686,-0.040340,-0.007844,0.000000,0.030518,0.091553
6.568281,0.017963,-0.318538,10.051298,-0.042667,-0.027168,-0.004850,0.000000,0.030518,0.030518
6.578376,0.032932,-0.327519,10.052496,-0.027698,-0.036149,-0.003652,0.030518,0.030518,-0.091553
6.588469,0.055684,-0.321531,10.057885,-0.004946,-0.030162,0.001736,0.000000,0.030518,-0.152588
6.598563,0.078437,-0.318538,10.065070,0.017807,-0.027168,0.008921,0.000000,0.061035,-0.183105
6.608735,0.110171,-0.337698,10.057885,0.049541,-0.046328,0.001736,0.000000,0.030518,-0.183105
6.618878,0.122745,-0.331710,10.048304,0.062115,-0.040340,-0.007844,0.000000,0.000000,-0.061035
6.628981,0.127535,-0.313149,10.074650,0.066905,-0.021779,0.018502,-0.030518,0.030518,0.030518
6.639146,0.114961,-0.305964,10.074051,0.054331,-0.014594,0.017903,-0.030518,0.030518,0.091553
6.649230,0.080832,-0.268242,10.077643,0.020202,0.023128,0.021495,-0.030518,0.030518,0.183105
6.659316,0.053289,-0.252675,10.081236,-0.007341,0.038695,0.025088,-0.030518,0.000000,0.183105
6.669400,0.007784,-0.235311,10.080637,-0.052846,0.056059,0.024489,-0.030518,0.030518,0.091553
6.679485,-0.002395,-0.237706,10.064471,-0.063025,0.053664,0.008323,0.061035,-0.030518,0.091553
6.689571,-0.001796,-0.249681,10.056088,-0.062426,0.041689,-0.000060,0.000000,0.000000,-0.030518
6.699657,0.004790,-0.293989,10.065070,-0.055840,-0.002619,0.008921,-0.030518,0.091553,-0.061035
6.709754,0.037123,-0.322729,10.062076,-0.023507,-0.031359,0.005928,0.000000,0.091553,-0.091553
6.719841,0.092807,-0.380209,10.038724,0.032177,-0.088840,-0.017424,0.000000,0.061035,-0.091553
6.729924,0.103585,-0.389789,10.039922,0.042955,-0.098420,-0.016226,0.030518,0.061035,-0.091553
6.740018,0.130529,-0.407153,10.053693,0.069899,-0.115783,-0.002455,0.061035,0.091553,0.030518
6.750110,0.125739,-0.386197,10.030342,0.065109,-0.094827,-0.025806,0.030518,0.030518,0.061035
6.760204,0.112566,-0.366438,10.072255,0.051936,-0.075068,0.016107,0.061035,0.030518,0.091553
6.770301,0.065863,-0.313748,10.043514,0.005233,-0.022378,-0.012634,0.061035,0.030518,0.091553
6.780399,0.041314,-0.274828,10.062076,-0.019316,0.016541,0.005928,0.030518,0.030518,0.091553
6.790496,0.014969,-0.238304,10.067465,-0.045661,0.053065,0.011316,0.030518,0.061035,0.061035
6.800593,0.005389,-0.235311,10.074650,-0.055241,0.056059,0.018502,0.061035,0.030518,0.000000
6.810690,0.020956,-0.241298,10.065070,-0.039673,0.050072,0.008921,0.030518,0.030518,-0.091553
6.820787,0.045505,-0.266446,10.062076,-0.015125,0.024924,0.005928,0.000000,0.030518,-0.122070
6.830884,0.075443,-0.299377,10.063273,0.014813,-0.008008,0.007125,0.000000,0.061035,-0.091553
6.841007,0.114362,-0.365240,10.064471,0.053732,-0.073871,0.008323,0.000000,0.061035,-0.061035
6.851104,0.119152,-0.373024,10.062076,0.058522,-0.081654,0.005928,0.030518,0.030518,0.030518
6.861200,0.110171,-0.366438,10.051897,0.049541,-0.075068,-0.004251,0.030518,0.030518,0.091553
6.871295,0.092208,-0.353864,10.047706,0.031578,-0.062494,-0.008442,0.061035,0.061035,0.152588
6.881409,0.049098,-0.310155,10.058483,-0.011532,-0.018785,0.002335,0.091553,0.030518,0.122070
6.891512,0.029938,-0.283810,10.059082,-0.030692,0.007560,0.002934,0.061035,0.000000,0.122070
6.901609,0.004790,-0.241897,10.056687,-0.055840,0.049473,0.000539,0.061035,0.000000,0.030518
6.911706,0.007784,-0.236508,10.059082,-0.052846,0.054862,0.002934,0.061035,0.000000,-0.061035
6.921800,0.013173,-0.234113,10.057885,-0.047457,0.057257,0.001736,0.030518,0.030518,-0.091553
6.931897,0.056283,-0.250280,10.065668,-0.004347,0.041090,0.009520,0.000000,0.030518,-0.122070
6.942088,0.078437,-0.268242,10.067465,0.017807,0.023128,0.011316,0.000000,0.061035,-0.122070
6.952179,0.109572,-0.307161,10.060878,0.048942,-0.015791,0.004730,-0.091553,0.030518,-0.091553
6.962270,0.116158,-0.322729,10.061477,0.055529,-0.031359,0.005329,-0.061035,0.030518,-0.030518
6.972364,0.101788,-0.335303,10.054292,0.041158,-0.043933,-0.001856,-0.030518,0.061035,0.061035
6.982454,0.083826,-0.332908,10.060878,0.023196,-0.041538,0.004730,-0.030518,0.061035,0.091553
6.992544,0.062271,-0.325124,10.060280,0.001641,-0.033754,0.004131,-0.030518,0.030518,0.152588
7.002634,0.011975,-0.307161,10.054891,-0.048655,-0.015791,-0.001257,0.000000,0.000000,0.122070
7.012749,-0.007185,-0.301174,10.051298,-0.067815,-0.009804,-0.004850,-0.030518,0.030518,0.091553
7.022842,-0.018561,-0.304167,10.044712,-0.079191,-0.012798,-0.011436,0.000000,0.030518,0.000000
7.032940,-0.010179,-0.305365,10.050699,-0.070809,-0.013995,-0.005449,0.000000,0.000000,0.000000
7.043067,0.036524,-0.314346,10.059082,-0.024106,-0.022976,0.002934,0.030518,0.000000,-0.122070
7.053155,0.062271,-0.317340,10.053693,0.001641,-0.025970,-0.002455,0.030518,0.000000,-0.152588
7.063246,0.082029,-0.320933,10.057885,0.021399,-0.029563,0.001736,0.000000,0.000000,-0.152588
7.073335,0.117356,-0.325124,10.051897,0.056726,-0.033754,-0.004251,0.030518,0.000000,-0.091553
7.083426,0.126337,-0.317340,10.053693,0.065707,-0.025970,-0.002455,0.000000,0.030518,-0.030518
7.093517,0.118553,-0.293390,10.057286,0.057924,-0.002020,0.001138,-0.030518,0.061035,0.061035
7.103609,0.090412,-0.283211,10.059082,0.029782,0.008159,0.002934,-0.030518,0.061035,0.061035
7.113844,0.043709,-0.261057,10.050699,-0.016921,0.030313,-0.005449,-0.061035,0.030518,0.091553
7.123940,0.016166,-0.254471,10.050101,-0.044464,0.036899,-0.006047,-0.061035,0.030518,0.091553
7.134075,-0.002395,-0.252076,10.054891,-0.063025,0.039294,-0.001257,-0.030518,0.000000,0.000000
7.144212,-0.001198,-0.262255,10.053094,-0.061827,0.029115,-0.003054,-0.061035,0.000000,-0.061035
7.154307,-0.000599,-0.279020,10.050699,-0.061229,0.012350,-0.005449,-0.091553,0.061035,-0.091553
7.164396,0.037722,-0.317340,10.042916,-0.022908,-0.025970,-0.013232,-0.091553,0.030518,-0.091553
7.174499,0.058678,-0.342488,10.038724,-0.001952,-0.051118,-0.017424,-0.061035,0.030518,-0.122070
7.184586,0.094603,-0.364043,10.044113,0.033973,-0.072673,-0.012035,-0.030518,0.030518,-0.030518
7.194673,0.107776,-0.367037,10.046508,0.047146,-0.075667,-0.009640,0.030518,0.030518,0.000000
7.204758,0.111368,-0.358055,10.051897,0.050738,-0.066686,-0.004251,0.061035,0.091553,0.030518
7.214885,0.101788,-0.341889,10.055490,0.041158,-0.050519,-0.000659,0.061035,0.061035,0.030518
7.224993,0.084424,-0.317340,10.050101,0.023795,-0.025970,-0.006047,0.061035,0.030518,0.061035
7.235095,0.038919,-0.273032,10.059082,-0.021711,0.018338,0.002934,0.030518,0.030518,0.061035
7.245292,0.011376,-0.254471,10.063273,-0.049254,0.036899,0.007125,0.030518,0.030518,0.030518
7.255384,0.001198,-0.242496,10.059681,-0.059432,0.048874,0.003533,-0.030518,-0.030518,0.000000
7.265477,0.001198,-0.246088,10.056687,-0.059432,0.045282,0.000539,-0.030518,0.000000,-0.030518
7.275543,0.026944,-0.261057,10.053693,-0.033686,0.030313,-0.002455,0.000000,0.000000,-0.122070
7.285611,0.044308,-0.282612,10.061477,-0.016322,0.008758,0.005329,0.000000,0.000000,-0.091553
7.295677,0.064067,-0.296384,10.059082,0.003437,-0.005014,0.002934,0.000000,-0.030518,-0.122070
7.305744,0.089813,-0.334704,10.046508,0.029183,-0.043334,-0.009640,-0.030518,0.000000,-0.091553
7.315814,0.095801,-0.340692,10.044113,0.035171,-0.049322,-0.012035,-0.030518,0.000000,-0.030518
7.325879,0.091609,-0.341889,10.043514,0.030980,-0.050519,-0.012634,-0.030518,0.030518,0.030518
7.335968,0.082628,-0.335901,10.051298,0.021998,-0.044532,-0.004850,0.000000,0.000000,0.061035
7.346036,0.057480,-0.322130,10.056088,-0.003149,-0.030760,-0.000060,0.000000,0.000000,0.061035
7.356104,0.042512,-0.310155,10.056088,-0.018118,-0.018785,-0.000060,0.000000,0.030518,0.061035
7.366170,0.028141,-0.301772,10.056088,-0.032488,-0.010403,-0.000060,-0.030518,0.000000,-0.030518
7.376238,0.028141,-0.296384,10.053693,-0.032488,-0.005014,-0.002455,0.000000,0.030518,-0.030518
7.386304,0.035925,-0.296384,10.056687,-0.024705,-0.005014,0.000539,0.030518,0.061035,-0.030518
7.396376,0.047900,-0.292791,10.067465,-0.012730,-0.001421,0.011316,0.030518,0.030518,-0.061035
7.406451,0.056283,-0.297581,10.063872,-0.004347,-0.006211,0.007724,0.000000,0.030518,-0.030518
7.416545,0.079036,-0.304167,10.057286,0.018406,-0.012798,0.001138,0.000000,0.061035,-0.030518
7.426621,0.086221,-0.304766,10.060878,0.025591,-0.013396,0.004730,0.000000,0.061035,0.000000
7.436688,0.088017,-0.304167,10.062675,0.027387,-0.012798,0.006526,-0.030518,0.061035,0.030518
7.446754,0.085622,-0.289199,10.064471,0.024992,0.002171,0.008323,-0.030518,0.061035,0.030518
7.456820,0.076641,-0.285007,10.068662,0.016011,0.006363,0.012514,-0.030518,0.061035,0.030518
7.466886,0.061073,-0.270038,10.066267,0.000443,0.021331,0.010119,-0.061035,0.091553,0.030518
7.476952,0.051493,-0.271236,10.060878,-0.009137,0.020134,0.004730,-0.030518,0.061035,0.000000
7.487018,0.044308,-0.290396,10.063872,-0.016322,0.000974,0.007724,0.000000,0.061035,-0.030518
7.497084,0.049697,-0.300575,10.057885,-0.010933,-0.009205,0.001736,0.000000,0.061035,-0.061035
7.507156,0.053289,-0.321531,10.059082,-0.007341,-0.030162,0.002934,-0.030518,0.061035,-0.061035
7.517228,0.067061,-0.348475,10.043514,0.006431,-0.057105,-0.012634,-0.030518,0.061035,-0.030518
7.527292,0.067061,-0.352667,10.039922,0.006431,-0.061297,-0.016226,0.000000,0.061035,-0.030518
7.537358,0.064067,-0.344883,10.050699,0.003437,-0.053513,-0.005449,0.030518,0.030518,0.000000
7.547424,0.060474,-0.322130,10.047107,-0.000156,-0.030760,-0.009041,0.030518,0.061035,0.061035
7.557490,0.046703,-0.300575,10.063273,-0.013927,-0.009205,0.007125,0.091553,0.061035,0.030518
7.567555,0.042512,-0.295785,10.053693,-0.018118,-0.004415,-0.002455,0.061035,0.030518,0.030518
7.577631,0.045505,-0.271835,10.059082,-0.015125,0.019535,0.002934,0.000000,0.030518,0.030518
7.587699,0.035925,-0.262853,10.066866,-0.024705,0.028516,0.010718,0.000000,0.030518,0.000000
7.597765,0.037722,-0.261656,10.070458,-0.022908,0.029714,0.014310,0.000000,0.091553,-0.030518
7.607936,0.058678,-0.275427,10.064471,-0.001952,0.015943,0.008323,-0.030518,0.091553,-0.061035
7.618002,0.074246,-0.288600,10.051298,0.013616,0.002770,-0.004850,-0.030518,0.061035,-0.061035
7.628069,0.077838,-0.308958,10.053094,0.017208,-0.017588,-0.003054,0.000000,0.091553,-0.061035
7.638162,0.086819,-0.317939,10.052496,0.026190,-0.026569,-0.003652,0.000000,0.091553,0.000000
7.648278,0.082628,-0.331111,10.048304,0.021998,-0.039742,-0.007844,0.000000,0.061035,0.030518
7.658559,0.072449,-0.334704,10.048304,0.011819,-0.043334,-0.007844,0.030518,0.061035,0.061035
7.668625,0.062271,-0.340692,10.049502,0.001641,-0.049322,-0.006646,0.000000,0.091553,0.091553
7.678691,0.047302,-0.322729,10.050699,-0.013328,-0.031359,-0.005449,-0.030518,0.061035,0.091553
7.688758,0.042512,-0.315544,10.058483,-0.018118,-0.024174,0.002335,0.000000,0.061035,0.061035
7.698823,0.030536,-0.302970,10.055490,-0.030093,-0.011600,-0.000659,0.000000,0.030518,0.061035
7.708890,0.028740,-0.302371,10.043514,-0.031890,-0.011001,-0.012634,0.030518,0.061035,0.030518
7.719023,0.033530,-0.294587,10.055490,-0.027100,-0.003218,-0.000659,0.000000,0.030518,0.000000
7.729089,0.037722,-0.296384,10.053094,-0.022908,-0.005014,-0.003054,-0.030518,0.000000,-0.030518
7.739153,0.044308,-0.305365,10.055490,-0.016322,-0.013995,-0.000659,-0.030518,0.061035,-0.030518
7.749219,0.059875,-0.303569,10.058483,-0.000754,-0.012199,0.002335,-0.061035,0.061035,-0.030518
7.759285,0.057480,-0.311951,10.056687,-0.003149,-0.020581,0.000539,-0.030518,0.091553,-0.030518
7.769358,0.056882,-0.314945,10.045909,-0.003748,-0.023575,-0.010239,-0.061035,0.091553,-0.030518
7.779425,0.054487,-0.297581,10.058483,-0.006143,-0.006211,0.002335,-0.061035,0.061035,-0.030518
7.789495,0.058678,-0.311353,10.047107,-0.001952,-0.019983,-0.009041,0.030518,0.061035,0.030518
7.799561,0.055684,-0.300575,10.050699,-0.004946,-0.009205,-0.005449,0.061035,0.030518,0.030518
7.809627,0.052092,-0.293989,10.051897,-0.008538,-0.002619,-0.004251,0.030518,0.030518,0.030518
7.819694,0.041913,-0.293390,10.048304,-0.018717,-0.002020,-0.007844,0.000000,0.061035,0.030518
7.829759,0.049098,-0.296982,10.052496,-0.011532,-0.005613,-0.003652,0.030518,0.030518,-0.030518
7.839828,0.065264,-0.310754,10.061477,0.004634,-0.019384,0.005329,-0.061035,0.030518,-0.030518
7.849895,0.058079,-0.319136,10.059681,-0.002551,-0.027767,0.003533,0.000000,0.061035,-0.061035
7.859961,0.058678,-0.338895,10.060878,-0.001952,-0.047525,0.004730,-0.030518,0.091553,-0.030518
7.870030,0.060474,-0.328118,10.061477,-0.000156,-0.036748,0.005329,0.000000,0.091553,-0.030518
7.880095,0.061672,-0.323926,10.061477,0.001042,-0.032557,0.005329,0.000000,0.030518,0.030518
7.890162,0.044308,-0.315544,10.072255,-0.016322,-0.024174,0.016107,0.030518,0.061035,0.061035
7.900228,0.043110,-0.304766,10.069860,-0.017520,-0.013396,0.013711,0.030518,0.061035,0.061035
7.910292,0.040715,-0.288600,10.065668,-0.019915,0.002770,0.009520,0.030518,0.061035,0.061035
7.920370,0.039518,-0.272433,10.058483,-0.021112,0.018936,0.002335,0.000000,0.061035,0.030518
7.930436,0.036524,-0.281415,10.061477,-0.024106,0.009955,0.005329,0.000000,0.061035,0.061035
7.940500,0.040117,-0.295186,10.060280,-0.020513,-0.003816,0.004131,0.000000,0.030518,0.000000
7.950566,0.058079,-0.277224,10.072255,-0.002551,0.014146,0.016107,0.030518,0.061035,-0.061035
7.960632,0.071851,-0.309556,10.059082,0.011221,-0.018186,0.002934,0.000000,0.030518,-0.061035
7.970698,0.075443,-0.328716,10.054891,0.014813,-0.037347,-0.001257,0.000000,0.061035,-0.061035
7.980764,0.088616,-0.339494,10.065070,0.027986,-0.048124,0.008921,0.000000,0.061035,-0.030518
7.990830,0.083826,-0.344284,10.068662,0.023196,-0.052914,0.012514,0.000000,0.030518,-0.030518
8.000896,0.070054,-0.332309,10.066866,0.009424,-0.040939,0.010718,0.000000,0.030518,0.030518
8.010962,0.059875,-0.332309,10.059681,-0.000754,-0.040939,0.003533,0.030518,0.061035,0.030518
8.021028,0.054487,-0.319735,10.060280,-0.006143,-0.028365,0.004131,0.030518,0.030518,0.030518
8.031094,0.031734,-0.306563,10.062076,-0.028896,-0.015193,0.005928,0.000000,0.030518,0.030518
8.041159,0.026944,-0.299377,10.059681,-0.033686,-0.008008,0.003533,0.000000,0.030518,0.030518
8.051227,0.034129,-0.294587,10.060878,-0.026501,-0.003218,0.004730,0.030518,0.061035,0.000000
8.061293,0.034129,-0.290995,10.052496,-0.026501,0.000375,-0.003652,0.030518,0.030518,0.000000
8.071433,0.047302,-0.299377,10.055490,-0.013328,-0.008008,-0.000659,0.030518,0.000000,0.000000
8.081574,0.056882,-0.298180,10.066866,-0.003748,-0.006810,0.010718,0.030518,0.000000,0.000000
8.091698,0.067659,-0.302970,10.073452,0.007029,-0.011600,0.017304,0.061035,0.030518,0.030518
8.101828,0.091609,-0.308359,10.068063,0.030980,-0.016989,0.011915,0.030518,0.030518,0.030518
8.111959,0.089813,-0.305964,10.062675,0.029183,-0.014594,0.006526,0.061035,0.061035,0.061035
8.122090,0.083826,-0.313149,10.051897,0.023196,-0.021779,-0.004251,0.061035,0.030518,0.061035
8.132231,0.076641,-0.313748,10.048903,0.016011,-0.022378,-0.007245,0.061035,0.030518,0.061035
8.142379,0.057480,-0.310155,10.061477,-0.003149,-0.018785,0.005329,0.061035,0.030518,0.061035
8.152512,0.044907,-0.307161,10.066267,-0.015723,-0.015791,0.010119,0.030518,0.030518,0.061035
8.162643,0.029339,-0.297581,10.060878,-0.031291,-0.006211,0.004730,0.000000,0.061035,0.030518
8.172783,0.031135,-0.292791,10.057885,-0.029495,-0.001421,0.001736,0.000000,0.061035,0.000000
8.182914,0.034129,-0.290396,10.062076,-0.026501,0.000974,0.005928,0.000000,0.061035,-0.030518
8.193050,0.046104,-0.296384,10.065668,-0.014526,-0.005014,0.009520,0.000000,0.061035,-0.061035
8.203162,0.053888,-0.295785,10.065070,-0.006742,-0.004415,0.008921,0.000000,0.061035,-0.061035
8.213291,0.074246,-0.302371,10.062675,0.013616,-0.011001,0.006526,0.000000,0.061035,-0.030518
8.223398,0.076641,-0.298779,10.059681,0.016011,-0.007409,0.003533,0.000000,0.061035,-0.030518
8.233716,0.076042,-0.292192,10.062675,0.015412,-0.000823,0.006526,0.000000,0.061035,0.000000
8.243850,0.077838,-0.295785,10.066866,0.017208,-0.004415,0.010718,0.030518,0.061035,0.000000
8.253963,0.070054,-0.289199,10.063273,0.009424,0.002171,0.007125,0.030518,0.061035,0.000000
8.264189,0.051493,-0.289199,10.053693,-0.009137,0.002171,-0.002455,0.030518,0.091553,0.030518
8.274418,0.047302,-0.286804,10.052496,-0.013328,0.004566,-0.003652,0.030518,0.061035,0.061035
8.284644,0.040117,-0.282014,10.064471,-0.020513,0.009356,0.008323,0.061035,0.061035,0.030518
8.294848,0.037722,-0.284409,10.062076,-0.022908,0.006961,0.005928,0.061035,0.061035,0.030518
8.304971,0.046104,-0.287402,10.055490,-0.014526,0.003967,-0.000659,0.061035,0.061035,-0.030518
8.315038,0.048499,-0.293390,10.048903,-0.012131,-0.002020,-0.007245,0.061035,0.030518,-0.030518
8.325105,0.061672,-0.302970,10.052496,0.001042,-0.011600,-0.003652,0.061035,-0.030518,-0.030518
8.335171,0.058079,-0.305964,10.060280,-0.002551,-0.014594,0.004131,0.061035,0.000000,-0.030518
8.345237,0.059277,-0.313149,10.060280,-0.001353,-0.021779,0.004131,0.061035,0.000000,0.030518
8.355304,0.057480,-0.313748,10.057286,-0.003149,-0.022378,0.001138,0.030518,0.030518,0.030518
8.365370,0.054487,-0.311951,10.059082,-0.006143,-0.020581,0.002934,0.061035,0.061035,0.030518
8.375441,0.046104,-0.308359,10.057286,-0.014526,-0.016989,0.001138,0.061035,0.061035,0.000000
8.385507,0.037123,-0.299976,10.063872,-0.023507,-0.008606,0.007724,0.061035,0.061035,0.000000
8.395584,0.039518,-0.301174,10.057885,-0.021112,-0.009804,0.001736,0.061035,0.000000,0.000000
8.405650,0.043110,-0.302371,10.056687,-0.017520,-0.011001,0.000539,0.061035,0.000000,0.030518
8.415724,0.045505,-0.308359,10.051897,-0.015125,-0.016989,-0.004251,0.061035,0.000000,0.030518
8.425795,0.060474,-0.310155,10.042916,-0.000156,-0.018785,-0.013232,0.030518,0.030518,0.030518
8.435862,0.068258,-0.304766,10.046508,0.007628,-0.013396,-0.009640,0.030518,0.000000,0.000000
8.445927,0.078437,-0.307161,10.055490,0.017807,-0.015791,-0.000659,0.061035,0.061035,0.030518
8.455993,0.077838,-0.312550,10.054891,0.017208,-0.021180,-0.001257,0.091553,0.061035,0.000000
8.466059,0.074844,-0.307161,10.055490,0.014214,-0.015791,-0.000659,0.061035,0.061035,0.000000
8.476124,0.071252,-0.302371,10.051897,0.010622,-0.011001,-0.004251,0.061035,0.030518,0.000000
8.486191,0.063468,-0.304766,10.057885,0.002838,-0.013396,0.001736,0.030518,0.030518,0.000000
8.496257,0.053289,-0.298180,10.057885,-0.007341,-0.006810,0.001736,0.061035,0.030518,-0.030518
8.506327,0.056882,-0.299377,10.056088,-0.003748,-0.008008,-0.000060,0.061035,0.030518,-0.030518
8.516393,0.052092,-0.300575,10.051298,-0.008538,-0.009205,-0.004850,0.091553,-0.030518,-0.061035
8.526458,0.048499,-0.299377,10.049502,-0.012131,-0.008008,-0.006646,0.061035,-0.030518,-0.061035
8.536524,0.053289,-0.301174,10.060280,-0.007341,-0.009804,0.004131,0.122070,-0.061035,-0.061035
8.546591,0.055684,-0.302970,10.056088,-0.004946,-0.011600,-0.000060,0.091553,-0.030518,-0.061035
8.556658,0.053289,-0.307760,10.054891,-0.007341,-0.016390,-0.001257,0.091553,0.000000,-0.030518
8.566725,0.050295,-0.315544,10.044113,-0.010335,-0.024174,-0.012035,0.122070,0.000000,-0.030518
8.576791,0.045505,-0.314346,10.046508,-0.015125,-0.022976,-0.009640,0.122070,-0.030518,0.000000
8.586857,0.047900,-0.308958,10.048903,-0.012730,-0.017588,-0.007245,0.122070,0.000000,-0.030518
8.596924,0.045505,-0.307760,10.056088,-0.015125,-0.016390,-0.000060,0.152588,0.000000,-0.030518
8.606990,0.040117,-0.292791,10.061477,-0.020513,-0.001421,0.005329,0.122070,0.030518,0.000000
8.617056,0.035925,-0.297581,10.067465,-0.024705,-0.006211,0.011316,0.122070,0.030518,-0.030518
8.627122,0.035327,-0.302371,10.065070,-0.025303,-0.011001,0.008921,0.091553,0.030518,-0.061035
8.637187,0.058678,-0.304766,10.062675,-0.001952,-0.013396,0.006526,0.061035,0.000000,-0.091553
8.647253,0.062271,-0.299377,10.058483,0.001641,-0.008008,0.002335,0.061035,0.000000,-0.091553
8.657319,0.070054,-0.305964,10.042317,0.009424,-0.014594,-0.013831,0.061035,0.030518,-0.091553
8.667385,0.068857,-0.296384,10.048903,0.008227,-0.005014,-0.007245,0.030518,0.030518,-0.061035
8.677450,0.079634,-0.292791,10.052496,0.019004,-0.001421,-0.003652,0.030518,0.000000,-0.030518
8.687582,0.079036,-0.288600,10.055490,0.018406,0.002770,-0.000659,0.000000,0.030518,-0.030518
8.697654,0.073048,-0.286804,10.049502,0.012418,0.004566,-0.006646,0.000000,0.030518,-0.061035
8.707721,0.074844,-0.288001,10.050699,0.014214,0.003369,-0.005449,0.030518,0.030518,-0.030518
8.717787,0.068258,-0.286804,10.054292,0.007628,0.004566,-0.001856,0.061035,0.000000,-0.030518
8.727853,0.075443,-0.284409,10.059082,0.014813,0.006961,0.002934,0.030518,0.000000,0.000000
8.737919,0.073048,-0.291594,10.069261,0.012418,-0.000224,0.013113,0.000000,0.000000,0.000000
8.748024,0.068857,-0.301772,10.056687,0.008227,-0.010403,0.000539,0.000000,0.030518,0.030518
8.758090,0.070653,-0.304167,10.056088,0.010023,-0.012798,-0.000060,-0.030518,0.030518,0.030518
8.768155,0.072449,-0.298779,10.054891,0.011819,-0.007409,-0.001257,0.000000,0.000000,0.030518
8.778220,0.061672,-0.296384,10.066866,0.001042,-0.005014,0.010718,0.061035,0.000000,0.061035
8.788286,0.049697,-0.295186,10.071656,-0.010933,-0.003816,0.015508,0.000000,0.030518,0.030518
8.798352,0.039518,-0.299377,10.070458,-0.021112,-0.008008,0.014310,0.000000,0.000000,0.030518
8.808418,0.032333,-0.299377,10.069261,-0.028297,-0.008008,0.013113,-0.030518,0.000000,0.030518
8.818484,0.041314,-0.303569,10.054292,-0.019316,-0.012199,-0.001856,0.000000,0.000000,0.000000
8.828549,0.042512,-0.307161,10.048903,-0.018118,-0.015791,-0.007245,0.030518,0.000000,-0.030518
8.838614,0.050894,-0.314945,10.052496,-0.009736,-0.023575,-0.003652,0.000000,0.000000,-0.030518
8.848680,0.058079,-0.319735,10.053693,-0.002551,-0.028365,-0.002455,0.000000,0.000000,-0.030518
8.858746,0.067659,-0.314945,10.050101,0.007029,-0.023575,-0.006047,0.030518,0.000000,0.000000
8.868811,0.085023,-0.299976,10.049502,0.024393,-0.008606,-0.006646,0.061035,0.000000,-0.030518
8.878877,0.087418,-0.295785,10.054292,0.026788,-0.004415,-0.001856,0.061035,0.000000,0.000000
8.888944,0.084424,-0.284409,10.063273,0.023795,0.006961,0.007125,0.091553,0.030518,-0.030518
8.899041,0.085622,-0.282612,10.065668,0.024992,0.008758,0.009520,0.091553,0.030518,0.030518
8.909188,0.085622,-0.275427,10.063872,0.024992,0.015943,0.007724,0.061035,0.061035,0.000000
8.919322,0.085622,-0.280816,10.069261,0.024992,0.010554,0.013113,0.061035,0.000000,0.030518
8.929465,0.076641,-0.279619,10.069261,0.016011,0.011751,0.013113,0.030518,0.030518,0.000000
8.939583,0.065863,-0.278421,10.066866,0.005233,0.012949,0.010718,0.030518,0.061035,0.000000
8.949725,0.059875,-0.276625,10.060878,-0.000754,0.014745,0.004730,0.030518,0.030518,-0.030518
8.959861,0.053888,-0.289199,10.055490,-0.006742,0.002171,-0.000659,0.030518,0.030518,-0.030518
8.970010,0.052092,-0.291594,10.053693,-0.008538,-0.000224,-0.002455,0.030518,0.000000,-0.030518
8.980150,0.050295,-0.303569,10.055490,-0.010335,-0.012199,-0.000659,0.000000,0.030518,-0.030518
8.990287,0.049697,-0.299377,10.059681,-0.010933,-0.008008,0.003533,-0.030518,0.030518,0.000000
9.000417,0.057480,-0.297581,10.060878,-0.003149,-0.006211,0.004730,-0.030518,0.030518,-0.030518
9.010553,0.055684,-0.298779,10.057885,-0.004946,-0.007409,0.001736,-0.030518,0.030518,-0.030518
9.020690,0.058079,-0.301174,10.057286,-0.002551,-0.009804,0.001138,-0.030518,0.061035,-0.061035
9.030825,0.065264,-0.292192,10.060878,0.004634,-0.000823,0.004730,-0.030518,0.061035,-0.061035
9.040957,0.067061,-0.292791,10.059681,0.006431,-0.001421,0.003533,-0.061035,0.061035,-0.061035
9.051049,0.074844,-0.293989,10.060878,0.014214,-0.002619,0.004730,-0.030518,0.091553,0.000000
9.061184,0.072449,-0.285606,10.062076,0.011819,0.005764,0.005928,-0.030518,0.061035,0.000000
9.071372,0.062271,-0.286205,10.051897,0.001641,0.005165,-0.004251,-0.030518,0.091553,0.000000
9.081553,0.062271,-0.282612,10.059681,0.001641,0.008758,0.003533,-0.061035,0.091553,0.000000
9.091741,0.059277,-0.283810,10.061477,-0.001353,0.007560,0.005329,-0.061035,0.061035,-0.030518
9.101915,0.054487,-0.288600,10.060280,-0.006143,0.002770,0.004131,-0.061035,0.061035,0.000000
9.112048,0.054487,-0.292192,10.057286,-0.006143,-0.000823,0.001138,-0.030518,0.061035,0.000000
9.122116,0.066462,-0.298779,10.045311,0.005832,-0.007409,-0.010837,0.000000,0.030518,0.000000
9.132183,0.072449,-0.299976,10.047107,0.011819,-0.008606,-0.009041,0.000000,0.000000,0.000000
9.142249,0.069456,-0.297581,10.051897,0.008826,-0.006211,-0.004251,-0.030518,0.061035,0.030518
9.152315,0.062271,-0.296982,10.051897,0.001641,-0.005613,-0.004251,-0.030518,0.091553,0.030518
9.162382,0.063468,-0.299377,10.053094,0.002838,-0.008008,-0.003054,0.000000,0.030518,0.061035
9.172448,0.057480,-0.295186,10.047107,-0.003149,-0.003816,-0.009041,0.000000,0.061035,0.030518
9.182512,0.052690,-0.290995,10.051298,-0.007939,0.000375,-0.004850,0.000000,0.061035,0.030518
9.192579,0.061073,-0.289199,10.054891,0.000443,0.002171,-0.001257,0.030518,0.061035,0.000000
9.202644,0.062271,-0.291594,10.057286,0.001641,-0.000224,0.001138,0.061035,0.061035,-0.030518
9.212710,0.069456,-0.298779,10.053094,0.008826,-0.007409,-0.003054,0.030518,0.030518,-0.030518
9.222775,0.076042,-0.307760,10.052496,0.015412,-0.016390,-0.003652,0.030518,0.030518,0.000000
9.232841,0.072449,-0.307161,10.056088,0.011819,-0.015791,-0.000060,0.061035,0.061035,0.000000
9.242907,0.086221,-0.307760,10.069860,0.025591,-0.016390,0.013711,0.030518,0.061035,0.030518
9.252973,0.080832,-0.302970,10.072255,0.020202,-0.011600,0.016107,0.030518,0.091553,0.030518
9.263039,0.070653,-0.292791,10.063872,0.010023,-0.001421,0.007724,0.030518,0.061035,0.091553
9.273104,0.062869,-0.287402,10.059082,0.002239,0.003967,0.002934,0.000000,0.061035,0.061035
9.283171,0.049697,-0.283810,10.066866,-0.010933,0.007560,0.010718,0.061035,0.061035,0.061035
9.293236,0.049697,-0.287402,10.066866,-0.010933,0.003967,0.010718,0.061035,0.091553,0.000000
9.303302,0.048499,-0.285606,10.066866,-0.012131,0.005764,0.010718,0.030518,0.061035,0.000000
9.313368,0.053289,-0.295186,10.054292,-0.007341,-0.003816,-0.001856,0.030518,0.030518,0.000000
9.323432,0.061073,-0.303569,10.051897,0.000443,-0.012199,-0.004251,0.030518,0.030518,0.000000
9.333498,0.061672,-0.312550,10.054292,0.001042,-0.021180,-0.001856,0.000000,0.061035,0.000000
9.343565,0.064067,-0.316741,10.048903,0.003437,-0.025371,-0.007245,0.000000,0.061035,0.000000
9.353631,0.070653,-0.312550,10.053693,0.010023,-0.021180,-0.002455,0.061035,0.030518,0.030518
9.363697,0.064666,-0.317340,10.058483,0.004036,-0.025970,0.002335,0.061035,0.030518,0.030518
9.373771,0.068258,-0.314346,10.057885,0.007628,-0.022976,0.001736,0.061035,0.030518,-0.030518
9.383838,0.069456,-0.307760,10.064471,0.008826,-0.016390,0.008323,0.030518,0.000000,-0.030518
9.393917,0.067659,-0.305365,10.068063,0.007029,-0.013995,0.011915,0.030518,0.030518,0.000000
9.403983,0.073048,-0.297581,10.061477,0.012418,-0.006211,0.005329,0.030518,0.030518,0.030518
9.414050,0.070054,-0.289199,10.059681,0.009424,0.002171,0.003533,0.061035,0.030518,0.030518
9.424120,0.056882,-0.282014,10.066866,-0.003748,0.009356,0.010718,0.000000,0.030518,0.061035
9.434187,0.052690,-0.276026,10.069261,-0.007939,0.015344,0.013113,-0.030518,0.030518,0.030518
9.444253,0.050894,-0.273032,10.073452,-0.009736,0.018338,0.017304,0.000000,0.061035,0.030518
9.454319,0.051493,-0.273032,10.067465,-0.009137,0.018338,0.011316,0.030518,0.061035,0.000000
9.464385,0.050894,-0.280816,10.068662,-0.009736,0.010554,0.012514,0.000000,0.091553,0.030518
9.474451,0.048499,-0.296384,10.061477,-0.012131,-0.005014,0.005329,-0.030518,0.061035,0.030518
9.484516,0.055085,-0.301174,10.062675,-0.005544,-0.009804,0.006526,-0.061035,0.061035,0.061035
9.494582,0.063468,-0.310155,10.065070,0.002838,-0.018785,0.008921,-0.030518,0.091553,0.091553
9.504647,0.071252,-0.312550,10.051897,0.010622,-0.021180,-0.004251,-0.030518,0.091553,0.061035
9.514715,0.069456,-0.310754,10.050101,0.008826,-0.019384,-0.006047,0.000000,0.030518,0.030518
9.524780,0.058678,-0.311951,10.048903,-0.001952,-0.020581,-0.007245,0.030518,0.000000,-0.030518
9.534847,0.052092,-0.309556,10.057286,-0.008538,-0.018186,0.001138,0.061035,-0.030518,0.000000
9.544912,0.042512,-0.290995,10.066866,-0.018118,0.000375,0.010718,0.091553,-0.030518,-0.030518
9.554990,0.034728,-0.284409,10.069860,-0.025902,0.006961,0.013711,0.091553,-0.030518,-0.030518
9.565056,0.030536,-0.285007,10.074650,-0.030093,0.006363,0.018502,0.061035,0.000000,-0.061035
9.575121,0.034129,-0.290995,10.066267,-0.026501,0.000375,0.010119,0.000000,0.030518,-0.061035
9.585188,0.052092,-0.297581,10.063872,-0.008538,-0.006211,0.007724,0.030518,0.030518,-0.091553
9.595253,0.073048,-0.306563,10.053094,0.012418,-0.015193,-0.003054,0.000000,0.030518,-0.091553
9.605319,0.082628,-0.307760,10.050699,0.021998,-0.016390,-0.005449,-0.030518,0.030518,-0.030518
9.615385,0.087418,-0.301772,10.057286,0.026788,-0.010403,0.001138,0.000000,0.061035,0.030518
9.625450,0.085622,-0.296982,10.064471,0.024992,-0.005613,0.008323,0.030518,0.061035,0.061035
9.635515,0.085622,-0.274230,10.074650,0.024992,0.017140,0.018502,0.030518,0.061035,0.091553
9.645581,0.081431,-0.279619,10.069860,0.020801,0.011751,0.013711,0.030518,0.061035,0.091553
9.655647,0.073647,-0.280217,10.060280,0.013017,0.011153,0.004131,-0.030518,0.061035,0.091553
9.665712,0.065863,-0.277822,10.053693,0.005233,0.013548,-0.002455,0.030518,0.061035,0.091553
9.675777,0.063468,-0.280816,10.051897,0.002838,0.010554,-0.004251,0.030518,0.061035,0.061035
9.685843,0.050295,-0.283211,10.074051,-0.010335,0.008159,0.017903,0.030518,0.061035,0.030518
9.695914,0.041913,-0.285606,10.074650,-0.018717,0.005764,0.018502,0.000000,0.061035,0.000000
9.705980,0.040715,-0.289797,10.059681,-0.019915,0.001572,0.003533,-0.030518,0.091553,-0.030518
9.716045,0.035327,-0.292192,10.045311,-0.025303,-0.000823,-0.010837,-0.030518,0.091553,-0.061035
9.726110,0.016166,-0.285007,10.053693,-0.044464,0.006363,-0.002455,0.061035,0.061035,-0.030518
9.736176,0.011376,-0.286804,10.071656,-0.049254,0.004566,0.015508,0.091553,0.061035,-0.030518
9.746242,0.019759,-0.292791,10.081236,-0.040871,-0.001421,0.025088,0.000000,0.030518,-0.091553
9.756313,0.061672,-0.319735,10.077643,0.001042,-0.028365,0.021495,0.000000,0.030518,-0.030518
9.766380,0.094005,-0.332908,10.056088,0.033375,-0.041538,-0.000060,-0.030518,0.030518,-0.030518
9.776446,0.143102,-0.350870,10.045311,0.082472,-0.059501,-0.010837,-0.061035,0.000000,0.000000
9.786512,0.159868,-0.352667,10.053094,0.099238,-0.061297,-0.003054,-0.030518,0.030518,0.030518
9.796576,0.166454,-0.325723,10.059082,0.105824,-0.034353,0.002934,0.000000,0.061035,0.091553
9.806642,0.160466,-0.306563,10.056687,0.099836,-0.015193,0.000539,0.000000,0.061035,0.122070
9.816708,0.134720,-0.287402,10.047107,0.074090,0.003967,-0.009041,0.030518,0.061035,0.152588
9.826773,0.073647,-0.247286,10.050101,0.013017,0.044084,-0.006047,0.061035,0.061035,0.152588
9.836840,0.050894,-0.238304,10.058483,-0.009736,0.053065,0.002335,0.030518,0.030518,0.091553
9.846906,0.016765,-0.236508,10.068662,-0.043865,0.054862,0.012514,0.061035,0.091553,0.030518
9.856972,0.004191,-0.246687,10.066267,-0.056439,0.044683,0.010119,0.061035,0.030518,0.000000
9.867038,0.005988,-0.276026,10.057885,-0.054642,0.015344,0.001736,0.030518,0.091553,-0.030518
9.877108,0.004191,-0.300575,10.056687,-0.056439,-0.009205,0.000539,0.000000,0.061035,-0.061035
9.887173,0.016166,-0.319136,10.050101,-0.044464,-0.027767,-0.006047,0.000000,0.091553,-0.030518
9.897239,0.030536,-0.355660,10.051897,-0.030093,-0.064291,-0.004251,0.000000,0.091553,0.000000
9.907304,0.030536,-0.361648,10.044113,-0.030093,-0.070278,-0.012035,0.000000,0.091553,0.030518
9.917370,0.041314,-0.361648,10.033934,-0.019316,-0.070278,-0.022214,-0.030518,0.061035,0.061035
9.927435,0.040715,-0.351469,10.033934,-0.019915,-0.060099,-0.022214,0.030518,0.061035,0.091553
9.937500,0.047900,-0.320933,10.036329,-0.012730,-0.029563,-0.019819,0.061035,0.030518,0.091553
9.947566,0.057480,-0.295785,10.041718,-0.003149,-0.004415,-0.014430,0.061035,0.030518,0.061035
9.957632,0.068258,-0.285606,10.046508,0.007628,0.005764,-0.009640,0.091553,0.030518,0.030518
9.967697,0.087418,-0.264650,10.050699,0.026788,0.026720,-0.005449,0.061035,0.030518,0.000000
9.977764,0.097597,-0.261656,10.058483,0.036967,0.029714,0.002335,0.061035,0.030518,-0.061035
9.987830,0.119152,-0.257465,10.065668,0.058522,0.033905,0.009520,0.000000,0.030518,-0.122070
9.997896,0.127535,-0.264051,10.066866,0.066905,0.027319,0.010718,-0.030518,0.061035,-0.122070
10.007962,0.115560,-0.276026,10.065070,0.054930,0.015344,0.008921,-0.030518,0.061035,-0.061035
10.018027,0.101190,-0.280217,10.069261,0.040560,0.011153,0.013113,-0.061035,0.061035,0.000000
10.028093,0.085622,-0.280816,10.060280,0.024992,0.010554,0.004131,-0.030518,0.091553,0.061035
10.038158,0.060474,-0.282014,10.060878,-0.000156,0.009356,0.004730,-0.030518,0.091553,0.061035
10.048242,0.047900,-0.279619,10.059681,-0.012730,0.011751,0.003533,0.000000,0.061035,0.061035
10.058309,0.017963,-0.292791,10.043514,-0.042667,-0.001421,-0.012634,0.000000,0.061035,0.061035
10.068375,0.013173,-0.290396,10.049502,-0.047457,0.000974,-0.006646,0.000000,0.061035,0.061035
10.078441,0.019759,-0.318538,10.039323,-0.040871,-0.027168,-0.016825,0.000000,0.061035,0.061035
10.088507,0.031734,-0.310754,10.050101,-0.028896,-0.019384,-0.006047,-0.030518,0.030518,0.061035
10.098573,0.045505,-0.320334,10.045909,-0.015125,-0.028964,-0.010239,-0.030518,0.000000,0.030518
10.108639,0.068857,-0.333506,10.026749,0.008227,-0.042137,-0.029399,-0.030518,0.000000,0.000000
10.118705,0.081431,-0.328118,10.032138,0.020801,-0.036748,-0.024010,0.000000,0.000000,0.030518
10.128771,0.096400,-0.316143,10.040521,0.035770,-0.024773,-0.015628,0.030518,0.000000,0.000000
10.138836,0.087418,-0.301772,10.050699,0.026788,-0.010403,-0.005449,0.061035,0.030518,0.030518
10.148902,0.076641,-0.281415,10.050699,0.016011,0.009955,-0.005449,0.000000,0.030518,0.000000
10.158968,0.070653,-0.267045,10.052496,0.010023,0.024325,-0.003652,0.030518,0.030518,0.000000
10.169039,0.068857,-0.265847,10.051298,0.008227,0.025523,-0.004850,0.000000,0.061035,0.030518
10.179113,0.080832,-0.258063,10.056687,0.020202,0.033306,0.000539,0.030518,0.061035,0.000000
10.189183,0.085023,-0.262255,10.060878,0.024393,0.029115,0.004730,0.030518,0.091553,0.030518
10.199249,0.075443,-0.270038,10.054891,0.014813,0.021331,-0.001257,0.061035,0.091553,0.061035
10.209316,0.070054,-0.279020,10.053693,0.009424,0.012350,-0.002455,0.030518,0.091553,0.061035
10.219382,0.054487,-0.289797,10.045909,-0.006143,0.001572,-0.010239,0.061035,0.122070,0.061035
10.229449,0.050295,-0.296384,10.043514,-0.010335,-0.005014,-0.012634,0.030518,0.061035,0.061035
10.239515,0.050295,-0.301174,10.046508,-0.010335,-0.009804,-0.009640,0.061035,0.030518,0.061035
10.249581,0.049098,-0.313748,10.045909,-0.011532,-0.022378,-0.010239,0.030518,0.030518,0.030518
10.259648,0.050295,-0.319136,10.038126,-0.010335,-0.027767,-0.018023,0.030518,0.030518,0.000000
10.269714,0.057480,-0.326321,10.038126,-0.003149,-0.034952,-0.018023,0.030518,0.000000,-0.030518
10.279780,0.057480,-0.328716,10.042916,-0.003149,-0.037347,-0.013232,0.030518,0.030518,-0.030518
10.289846,0.066462,-0.327519,10.051897,0.005832,-0.036149,-0.004251,0.030518,0.030518,-0.030518
10.299911,0.066462,-0.331111,10.052496,0.005832,-0.039742,-0.003652,0.061035,0.061035,-0.061035
10.309977,0.067659,-0.319136,10.054292,0.007029,-0.027767,-0.001856,0.061035,0.061035,-0.061035
10.320043,0.076641,-0.301772,10.048304,0.016011,-0.010403,-0.007844,0.061035,0.061035,-0.061035
10.330108,0.071252,-0.299377,10.048903,0.010622,-0.008008,-0.007245,0.030518,0.061035,-0.061035
10.340175,0.076641,-0.290396,10.058483,0.016011,0.000974,0.002335,0.000000,0.061035,-0.061035
10.350242,0.072449,-0.285606,10.055490,0.011819,0.005764,-0.000659,0.000000,0.030518,-0.061035
10.360307,0.067061,-0.280217,10.044113,0.006431,0.011153,-0.012035,-0.030518,0.030518,0.000000
10.370373,0.052690,-0.270038,10.044113,-0.007939,0.021331,-0.012035,0.000000,0.030518,0.000000
10.380446,0.048499,-0.268841,10.048903,-0.012131,0.022529,-0.007245,0.030518,0.030518,0.000000
10.390511,0.050295,-0.261656,10.050699,-0.010335,0.029714,-0.005449,0.030518,0.030518,0.030518
10.400591,0.054487,-0.265248,10.046508,-0.006143,0.026121,-0.009640,0.000000,0.000000,0.030518
10.410657,0.065863,-0.275427,10.046508,0.005233,0.015943,-0.009640,0.000000,0.030518,0.000000
10.420729,0.067061,-0.278421,10.051298,0.006431,0.012949,-0.004850,0.000000,0.061035,0.000000
10.430794,0.060474,-0.299377,10.052496,-0.000156,-0.008008,-0.003652,0.000000,0.061035,0.030518
10.440860,0.058678,-0.304766,10.057885,-0.001952,-0.013396,0.001736,0.000000,0.091553,0.000000
10.450928,0.053888,-0.311951,10.056687,-0.006742,-0.020581,0.000539,-0.030518,0.061035,0.000000
10.460994,0.050894,-0.312550,10.041119,-0.009736,-0.021180,-0.015029,-0.030518,0.061035,0.061035
10.471060,0.054487,-0.314945,10.032737,-0.006143,-0.023575,-0.023411,0.000000,0.061035,0.061035
10.481125,0.042512,-0.299976,10.045909,-0.018118,-0.008606,-0.010239,0.030518,0.061035,0.061035
10.491191,0.044907,-0.290396,10.057885,-0.015723,0.000974,0.001736,0.030518,0.030518,0.030518
10.501256,0.060474,-0.283810,10.056088,-0.000156,0.007560,-0.000060,0.030518,0.030518,0.030518
10.511322,0.070653,-0.286804,10.054292,0.010023,0.004566,-0.001856,0.061035,0.061035,0.030518
10.521388,0.080832,-0.282612,10.049502,0.020202,0.008758,-0.006646,0.061035,0.030518,0.030518
10.531452,0.089214,-0.280217,10.053693,0.028585,0.011153,-0.002455,0.000000,0.000000,0.061035
10.541518,0.099393,-0.283810,10.058483,0.038763,0.007560,0.002335,0.030518,0.061035,0.091553
10.551584,0.104183,-0.286804,10.065668,0.043553,0.004566,0.009520,0.030518,0.000000,0.061035
10.561650,0.104782,-0.285606,10.063872,0.044152,0.005764,0.007724,0.061035,0.030518,0.091553
10.571715,0.091609,-0.295186,10.048903,0.030980,-0.003816,-0.007245,0.000000,0.061035,0.061035
10.581830,0.080832,-0.291594,10.053693,0.020202,-0.000224,-0.002455,0.000000,0.061035,0.061035
10.591896,0.071252,-0.300575,10.058483,0.010622,-0.009205,0.002335,0.061035,0.030518,0.000000
10.601962,0.057480,-0.296384,10.051298,-0.003149,-0.005014,-0.004850,0.030518,0.030518,-0.030518
10.612027,0.045505,-0.302970,10.051897,-0.015125,-0.011600,-0.004251,0.030518,0.061035,-0.030518
10.622093,0.038919,-0.311951,10.043514,-0.021711,-0.020581,-0.012634,0.000000,0.000000,-0.061035
10.632158,0.041314,-0.316741,10.046508,-0.019316,-0.025371,-0.009640,-0.030518,-0.030518,-0.061035
10.642223,0.060474,-0.319735,10.049502,-0.000156,-0.028365,-0.006646,-0.030518,0.000000,-0.061035
10.652288,0.065264,-0.314945,10.049502,0.004634,-0.023575,-0.006646,-0.030518,0.030518,-0.030518
10.662354,0.074246,-0.316143,10.045311,0.013616,-0.024773,-0.010837,0.000000,0.000000,0.030518
10.672419,0.078437,-0.300575,10.029743,0.017807,-0.009205,-0.026405,0.030518,0.030518,0.061035
10.682485,0.073647,-0.293390,10.039922,0.013017,-0.002020,-0.016226,0.061035,0.030518,0.061035
10.692551,0.062271,-0.272433,10.056687,0.001641,0.018936,0.000539,0.061035,0.030518,0.030518
10.702621,0.055684,-0.272433,10.065070,-0.004946,0.018936,0.008921,0.061035,0.030518,0.091553
10.712686,0.055684,-0.274828,10.065668,-0.004946,0.016541,0.009520,0.000000,0.000000,0.000000
10.722751,0.064666,-0.276625,10.063872,0.004036,0.014745,0.007724,-0.030518,0.000000,-0.030518
10.732816,0.079634,-0.289797,10.059681,0.019004,0.001572,0.003533,0.000000,0.000000,-0.091553
10.742883,0.094005,-0.311951,10.028546,0.033375,-0.020581,-0.027603,0.000000,0.000000,-0.091553
10.752947,0.090412,-0.313149,10.035132,0.029782,-0.021779,-0.021016,0.030518,0.030518,-0.061035
10.763013,0.068857,-0.307760,10.054292,0.008227,-0.016390,-0.001856,0.061035,0.030518,-0.030518
10.773086,0.053888,-0.301174,10.062675,-0.006742,-0.009804,0.006526,0.030518,0.030518,0.000000
10.783152,0.023351,-0.304766,10.072853,-0.037278,-0.013396,0.016705,0.030518,0.061035,-0.030518
10.793218,0.025746,-0.298180,10.075847,-0.034883,-0.006810,0.019699,0.030518,0.061035,0.000000
10.803285,0.032932,-0.304766,10.062675,-0.027698,-0.013396,0.006526,-0.030518,0.061035,0.030518
10.813349,0.062271,-0.310754,10.041718,0.001641,-0.019384,-0.014430,-0.030518,0.061035,0.030518
10.823415,0.080233,-0.308359,10.023755,0.019603,-0.016989,-0.032393,0.000000,0.030518,0.000000
10.833481,0.086221,-0.299377,10.030342,0.025591,-0.008008,-0.025806,0.091553,0.061035,0.030518
10.843547,0.075443,-0.289797,10.047107,0.014813,0.001572,-0.009041,0.091553,0.061035,0.030518
10.853613,0.044308,-0.278421,10.056687,-0.016322,0.012949,0.000539,0.091553,0.030518,0.061035
10.863679,0.040117,-0.279020,10.062076,-0.020513,0.012350,0.005928,0.061035,0.061035,0.061035
10.873749,0.033530,-0.274828,10.059681,-0.027100,0.016541,0.003533,0.030518,0.030518,-0.061035
10.883814,0.041314,-0.280816,10.072853,-0.019316,0.010554,0.016705,0.030518,0.061035,-0.030518
10.893880,0.044907,-0.286804,10.074051,-0.015723,0.004566,0.017903,0.000000,0.030518,-0.061035
10.903946,0.065863,-0.298779,10.070458,0.005233,-0.007409,0.014310,-0.030518,0.061035,-0.030518
10.914011,0.076042,-0.302970,10.059681,0.015412,-0.011600,0.003533,-0.030518,0.061035,-0.030518
10.924076,0.074844,-0.289797,10.058483,0.014214,0.001572,0.002335,-0.030518,0.091553,0.000000
10.934141,0.068258,-0.284409,10.065070,0.007628,0.006961,0.008921,0.000000,0.091553,0.000000
10.944208,0.056283,-0.276026,10.066267,-0.004347,0.015344,0.010119,0.030518,0.030518,0.030518
10.954273,0.052092,-0.270637,10.065668,-0.008538,0.020733,0.009520,0.000000,0.000000,0.030518
10.964339,0.058079,-0.274230,10.056687,-0.002551,0.017140,0.000539,0.000000,-0.030518,0.030518
10.974404,0.067061,-0.282014,10.050101,0.006431,0.009356,-0.006047,0.030518,0.030518,0.030518
10.984470,0.080233,-0.279619,10.054292,0.019603,0.011751,-0.001856,0.030518,0.030518,0.061035
10.994535,0.090412,-0.290396,10.061477,0.029782,0.000974,0.005329,0.030518,0.030518,0.030518
11.004601,0.098795,-0.289797,10.068063,0.038165,0.001572,0.011915,0.000000,0.030518,0.030518
11.014667,0.094005,-0.290396,10.072853,0.033375,0.000974,0.016705,0.000000,0.061035,0.030518
11.024732,0.082628,-0.301174,10.058483,0.021998,-0.009804,0.002335,-0.030518,0.030518,0.030518
11.034798,0.073647,-0.300575,10.062675,0.013017,-0.009205,0.006526,0.000000,0.061035,0.000000
11.044864,0.061073,-0.286804,10.053094,0.000443,0.004566,-0.003054,0.000000,0.061035,-0.030518
11.054930,0.044907,-0.282014,10.059082,-0.015723,0.009356,0.002934,0.000000,0.030518,-0.030518
11.064996,0.029938,-0.271835,10.056687,-0.030692,0.019535,0.000539,0.061035,0.061035,-0.030518
11.075062,0.026345,-0.267045,10.061477,-0.034285,0.024325,0.005329,0.091553,0.061035,0.000000
11.085128,0.027543,-0.263452,10.069860,-0.033087,0.027918,0.013711,0.091553,0.061035,0.000000
11.095193,0.037722,-0.261656,10.072853,-0.022908,0.029714,0.016705,0.061035,0.030518,0.000000
11.105384,0.044907,-0.266446,10.069261,-0.015723,0.024924,0.013113,0.030518,0.000000,-0.030518
11.115450,0.067659,-0.274828,10.066267,0.007029,0.016541,0.010119,0.030518,0.030518,-0.030518
11.125515,0.076641,-0.277822,10.062076,0.016011,0.013548,0.005928,0.000000,0.030518,-0.030518
11.135580,0.080832,-0.291594,10.070458,0.020202,-0.000224,0.014310,0.030518,0.000000,0.000000
11.145647,0.084424,-0.298180,10.071656,0.023795,-0.006810,0.015508,0.000000,0.030518,-0.030518
11.155713,0.081431,-0.311353,10.069261,0.020801,-0.019983,0.013113,-0.030518,0.061035,0.000000
11.165779,0.088616,-0.332908,10.056687,0.027986,-0.041538,0.000539,0.000000,0.061035,-0.030518
11.175845,0.089813,-0.346679,10.052496,0.029183,-0.055309,-0.003652,-0.030518,0.061035,0.000000
11.185910,0.083227,-0.345482,10.053094,0.022597,-0.054112,-0.003054,0.000000,0.091553,0.030518
11.195975,0.075443,-0.332309,10.057885,0.014813,-0.040939,0.001736,0.000000,0.091553,0.000000
11.206041,0.059277,-0.298180,10.050699,-0.001353,-0.006810,-0.005449,0.030518,0.030518,0.030518
11.216106,0.047900,-0.284409,10.051897,-0.012730,0.006961,-0.004251,0.030518,0.061035,0.000000
11.226173,0.034728,-0.273032,10.051897,-0.025902,0.018338,-0.004251,-0.030518,0.061035,-0.061035
11.236239,0.026944,-0.250280,10.066267,-0.033686,0.041090,0.010119,-0.030518,0.091553,-0.061035
11.246305,0.028740,-0.247885,10.071057,-0.031890,0.043485,0.014909,-0.030518,0.061035,-0.061035
11.256372,0.050894,-0.256267,10.068063,-0.009736,0.035103,0.011915,-0.030518,0.030518,-0.061035
11.266438,0.059875,-0.268242,10.056088,-0.000754,0.023128,-0.000060,0.000000,0.061035,-0.061035
11.276504,0.079634,-0.280217,10.059681,0.019004,0.011153,0.003533,0.000000,0.061035,0.030518
11.286570,0.084424,-0.289199,10.067465,0.023795,0.002171,0.011316,0.000000,0.061035,0.000000
11.296636,0.082029,-0.297581,10.064471,0.021399,-0.006211,0.008323,0.000000,0.000000,0.061035
11.306702,0.078437,-0.304167,10.063273,0.017807,-0.012798,0.007125,0.000000,0.030518,0.030518
11.316769,0.079036,-0.301772,10.062675,0.018406,-0.010403,0.006526,-0.030518,0.061035,0.000000
11.326833,0.074844,-0.308359,10.055490,0.014214,-0.016989,-0.000659,-0.061035,0.061035,-0.030518
11.336900,0.073048,-0.316143,10.059082,0.012418,-0.024773,0.002934,0.000000,0.061035,-0.030518
11.346966,0.071851,-0.317340,10.057885,0.011221,-0.025970,0.001736,-0.030518,0.122070,-0.061035
11.357032,0.071252,-0.314346,10.048304,0.010622,-0.022976,-0.007844,0.000000,0.091553,-0.030518
11.367098,0.071252,-0.315544,10.044712,0.010622,-0.024174,-0.011436,0.030518,0.091553,0.000000
11.377169,0.067659,-0.306563,10.039323,0.007029,-0.015193,-0.016825,0.030518,0.091553,0.030518
11.387236,0.058079,-0.296384,10.053094,-0.002551,-0.005014,-0.003054,0.061035,0.122070,0.030518
11.397310,0.031734,-0.276625,10.054292,-0.028896,0.014745,-0.001856,0.061035,0.091553,0.061035
11.407375,0.028740,-0.275427,10.053094,-0.031890,0.015943,-0.003054,0.030518,0.061035,0.091553
11.417449,0.026944,-0.282612,10.045311,-0.033686,0.008758,-0.010837,0.030518,0.091553,0.061035
11.427515,0.032333,-0.283810,10.044712,-0.028297,0.007560,-0.011436,0.030518,0.091553,0.000000
11.437581,0.061073,-0.293390,10.056687,0.000443,-0.002020,0.000539,-0.030518,0.091553,-0.030518
11.447648,0.076641,-0.301174,10.062675,0.016011,-0.009804,0.006526,0.000000,0.091553,0.030518
11.457714,0.089214,-0.302371,10.062076,0.028585,-0.011001,0.005928,-0.030518,0.030518,0.030518
11.467780,0.102387,-0.298180,10.054891,0.041757,-0.006810,-0.001257,-0.030518,0.061035,0.030518
11.477847,0.103585,-0.299377,10.052496,0.042955,-0.008008,-0.003652,-0.030518,0.091553,0.061035
11.487912,0.096400,-0.282612,10.045311,0.035770,0.008758,-0.010837,0.000000,0.030518,0.030518
11.497979,0.078437,-0.285007,10.041718,0.017807,0.006363,-0.014430,0.000000,0.091553,0.000000
11.508045,0.053888,-0.283810,10.047107,-0.006742,0.007560,-0.009041,0.030518,0.091553,0.000000
11.518112,0.040715,-0.281415,10.051298,-0.019915,0.009955,-0.004850,0.030518,0.061035,0.000000
11.528176,0.037123,-0.287402,10.057286,-0.023507,0.003967,0.001138,0.030518,0.061035,-0.061035
11.538243,0.028141,-0.295186,10.060878,-0.032488,-0.003816,0.004730,0.030518,0.030518,-0.030518
11.548308,0.026345,-0.310155,10.061477,-0.034285,-0.018785,0.005329,0.030518,0.030518,-0.030518
11.558376,0.038320,-0.321531,10.050699,-0.022310,-0.030162,-0.005449,0.030518,0.030518,-0.030518
11.568442,0.042512,-0.325723,10.050699,-0.018118,-0.034353,-0.005449,0.030518,0.061035,-0.030518
11.578508,0.052690,-0.325723,10.057286,-0.007939,-0.034353,0.001138,0.061035,0.030518,-0.030518
11.588574,0.059277,-0.325723,10.058483,-0.001353,-0.034353,0.002335,0.061035,0.030518,0.000000
11.598639,0.062869,-0.322130,10.058483,0.002239,-0.030760,0.002335,0.030518,0.030518,0.030518
11.608709,0.072449,-0.303569,10.053094,0.011819,-0.012199,-0.003054,0.030518,0.030518,0.030518
11.618782,0.085023,-0.296982,10.052496,0.024393,-0.005613,-0.003652,0.030518,0.030518,0.061035
11.628850,0.095202,-0.278421,10.066267,0.034572,0.012949,0.010119,-0.030518,0.030518,0.061035
11.638914,0.096400,-0.271835,10.074051,0.035770,0.019535,0.017903,-0.030518,0.061035,0.030518
11.648981,0.098196,-0.264051,10.075248,0.037566,0.027319,0.019100,0.000000,0.091553,0.030518
11.659047,0.102986,-0.261656,10.068662,0.042356,0.029714,0.012514,-0.030518,0.091553,0.030518
11.669114,0.096400,-0.260458,10.060878,0.035770,0.030911,0.004730,0.000000,0.091553,0.061035
11.679177,0.086221,-0.275427,10.059681,0.025591,0.015943,0.003533,0.000000,0.091553,0.061035
11.689240,0.075443,-0.283211,10.066866,0.014813,0.008159,0.010718,0.030518,0.091553,0.061035
11.699316,0.046703,-0.289199,10.064471,-0.013927,0.002171,0.008323,0.030518,0.061035,0.030518
11.709382,0.031135,-0.286804,10.064471,-0.029495,0.004566,0.008323,0.000000,0.030518,0.030518
11.719447,0.004790,-0.298779,10.054891,-0.055840,-0.007409,-0.001257,0.030518,0.061035,0.000000
11.729512,0.005389,-0.301174,10.054292,-0.055241,-0.009804,-0.001856,0.030518,0.061035,0.000000
11.739583,0.010179,-0.308958,10.062076,-0.050451,-0.017588,0.005928,0.000000,0.030518,0.030518
11.749650,0.012574,-0.311353,10.066866,-0.048056,-0.019983,0.010718,0.030518,0.061035,0.030518
11.759717,0.027543,-0.316741,10.060878,-0.033087,-0.025371,0.004730,0.030518,0.061035,0.000000
11.769783,0.059875,-0.314945,10.063872,-0.000754,-0.023575,0.007724,-0.030518,0.000000,0.000000
11.779850,0.078437,-0.313748,10.062675,0.017807,-0.022378,0.006526,0.000000,0.000000,0.030518
11.789922,0.108973,-0.304167,10.065668,0.048343,-0.012798,0.009520,0.000000,0.000000,0.030518
11.799985,0.119152,-0.290995,10.069261,0.058522,0.000375,0.013113,0.000000,0.030518,0.000000
11.810052,0.113763,-0.285606,10.061477,0.053134,0.005764,0.005329,0.000000,0.061035,0.061035
11.820118,0.103585,-0.259860,10.060878,0.042955,0.031510,0.004730,0.030518,0.030518,0.061035
11.830184,0.092208,-0.250280,10.060878,0.031578,0.041090,0.004730,0.000000,0.061035,0.061035
11.840249,0.075443,-0.241298,10.076446,0.014813,0.050072,0.020298,-0.061035,0.061035,0.000000
11.850314,0.067061,-0.246687,10.084230,0.006431,0.044683,0.028082,-0.061035,0.061035,0.030518
11.860380,0.047302,-0.277224,10.071656,-0.013328,0.014146,0.015508,-0.061035,0.061035,0.000000
11.870446,0.047302,-0.288600,10.069261,-0.013328,0.002770,0.013113,-0.061035,0.091553,0.000000
11.880517,0.047302,-0.304766,10.066866,-0.013328,-0.013396,0.010718,-0.061035,0.122070,-0.030518
11.890583,0.054487,-0.324525,10.068662,-0.006143,-0.033155,0.012514,-0.030518,0.122070,0.000000
11.900649,0.052690,-0.334105,10.068662,-0.007939,-0.042735,0.012514,-0.030518,0.091553,0.000000
11.910715,0.055684,-0.328716,10.059082,-0.004946,-0.037347,0.002934,-0.061035,0.091553,0.030518
11.920780,0.052092,-0.320334,10.054292,-0.008538,-0.028964,-0.001856,-0.061035,0.091553,0.061035
11.930844,0.051493,-0.307161,10.062675,-0.009137,-0.015791,0.006526,0.000000,0.091553,0.061035
11.940911,0.052092,-0.297581,10.065668,-0.008538,-0.006211,0.009520,-0.030518,0.061035,0.030518
11.950988,0.056882,-0.292192,10.062675,-0.003748,-0.000823,0.006526,0.030518,0.061035,0.030518
11.961055,0.065863,-0.274230,10.059681,0.005233,0.017140,0.003533,0.061035,0.030518,0.030518
11.971127,0.070054,-0.278421,10.060878,0.009424,0.012949,0.004730,0.061035,0.091553,0.000000
11.981194,0.089214,-0.268841,10.068662,0.028585,0.022529,0.012514,0.000000,0.061035,0.000000
11.991260,0.091011,-0.271236,10.067465,0.030381,0.020134,0.011316,0.000000,0.061035,0.000000
12.001327,0.080832,-0.274828,10.057885,0.020202,0.016541,0.001736,0.000000,0.061035,0.000000
12.011405,0.076641,-0.280217,10.060280,0.016011,0.011153,0.004131,0.030518,0.091553,-0.030518
12.021470,0.073048,-0.284409,10.060878,0.012418,0.006961,0.004730,0.030518,0.061035,-0.030518
12.031561,0.058079,-0.292192,10.066267,-0.002551,-0.000823,0.010119,0.000000,0.061035,0.000000
12.041628,0.047900,-0.289797,10.065070,-0.012730,0.001572,0.008921,-0.030518,0.030518,0.000000
12.051694,0.047900,-0.295785,10.058483,-0.012730,-0.004415,0.002335,0.000000,0.000000,0.030518
12.061761,0.053289,-0.300575,10.053693,-0.007341,-0.009205,-0.002455,0.030518,0.030518,0.061035
12.071826,0.048499,-0.305964,10.051298,-0.012131,-0.014594,-0.004850,-0.061035,0.030518,0.030518
12.081892,0.043110,-0.307161,10.057286,-0.017520,-0.015791,0.001138,-0.030518,0.061035,0.030518
12.091958,0.044907,-0.309556,10.062675,-0.015723,-0.018186,0.006526,-0.061035,0.061035,0.030518
12.102025,0.056882,-0.309556,10.054891,-0.003748,-0.018186,-0.001257,-0.061035,0.061035,0.030518
12.112091,0.065863,-0.311951,10.054891,0.005233,-0.020581,-0.001257,-0.030518,0.061035,0.030518
12.122158,0.076042,-0.299976,10.054891,0.015412,-0.008606,-0.001257,0.000000,0.030518,0.030518
12.132223,0.076042,-0.293390,10.059082,0.015412,-0.002020,0.002934,0.000000,0.061035,0.061035
12.142290,0.066462,-0.286804,10.072853,0.005832,0.004566,0.016705,0.030518,0.030518,0.000000
12.152356,0.062271,-0.276026,10.070458,0.001641,0.015344,0.014310,0.030518,0.000000,-0.030518
12.162422,0.059875,-0.276625,10.069860,-0.000754,0.014745,0.013711,-0.030518,0.000000,-0.030518
12.172488,0.054487,-0.270637,10.057885,-0.006143,0.020733,0.001736,-0.061035,0.030518,-0.030518
12.182555,0.050894,-0.272433,10.063872,-0.009736,0.018936,0.007724,-0.030518,0.030518,-0.030518
12.192621,0.056283,-0.279619,10.065070,-0.004347,0.011751,0.008921,0.000000,0.061035,-0.061035
12.202687,0.053888,-0.288001,10.065668,-0.006742,0.003369,0.009520,0.030518,0.061035,-0.061035
12.212754,0.064666,-0.294587,10.063273,0.004036,-0.003218,0.007125,0.000000,0.061035,-0.030518
12.222819,0.062271,-0.298180,10.063872,0.001641,-0.006810,0.007724,0.030518,0.061035,0.000000
12.232886,0.058678,-0.299377,10.073452,-0.001952,-0.008008,0.017304,-0.030518,0.030518,0.030518
12.242951,0.057480,-0.308359,10.071057,-0.003149,-0.016989,0.014909,-0.030518,0.030518,0.030518
12.253035,0.059277,-0.314945,10.071057,-0.001353,-0.023575,0.014909,-0.061035,0.030518,0.000000
12.263125,0.071851,-0.311353,10.074650,0.011221,-0.019983,0.018502,-0.091553,0.061035,0.030518
12.273216,0.076042,-0.313748,10.071057,0.015412,-0.022378,0.014909,-0.091553,0.061035,0.030518
12.283308,0.062869,-0.312550,10.061477,0.002239,-0.021180,0.005329,-0.030518,0.061035,0.061035
12.293399,0.058678,-0.310754,10.058483,-0.001952,-0.019384,0.002335,-0.030518,0.061035,0.061035
12.303490,0.064666,-0.296982,10.056088,0.004036,-0.005613,-0.000060,0.000000,0.061035,0.061035
12.313580,0.052092,-0.283211,10.049502,-0.008538,0.008159,-0.006646,0.030518,0.091553,0.000000
12.323668,0.046703,-0.272433,10.054292,-0.013927,0.018936,-0.001856,-0.030518,0.091553,0.000000
12.333756,0.039518,-0.268841,10.062076,-0.021112,0.022529,0.005928,-0.030518,0.091553,-0.030518
12.343848,0.039518,-0.268242,10.062076,-0.021112,0.023128,0.005928,0.000000,0.091553,-0.030518
12.354016,0.055085,-0.267045,10.057286,-0.005544,0.024325,0.001138,0.000000,0.061035,-0.061035
12.364112,0.067061,-0.273631,10.054292,0.006431,0.017739,-0.001856,-0.030518,0.030518,-0.091553
12.374289,0.083826,-0.283810,10.060280,0.023196,0.007560,0.004131,-0.030518,0.000000,0.000000
12.384386,0.091609,-0.296384,10.071057,0.030980,-0.005014,0.014909,-0.030518,0.030518,-0.030518
12.394480,0.091609,-0.303569,10.072255,0.030980,-0.012199,0.016107,-0.061035,0.061035,0.030518
12.404576,0.089813,-0.319136,10.065668,0.029183,-0.027767,0.009520,-0.061035,0.061035,0.091553
12.414670,0.085023,-0.320933,10.057286,0.024393,-0.029563,0.001138,-0.030518,0.091553,0.061035
12.424767,0.068258,-0.323926,10.047706,0.007628,-0.032557,-0.008442,-0.030518,0.061035,0.091553
12.434865,0.065863,-0.326321,10.044113,0.005233,-0.034952,-0.012035,-0.030518,0.061035,0.061035
12.444962,0.050295,-0.327519,10.049502,-0.010335,-0.036149,-0.006646,-0.030518,0.061035,0.061035
12.455153,0.048499,-0.326321,10.044113,-0.012131,-0.034952,-0.012035,-0.030518,0.061035,0.030518
12.465243,0.049098,-0.328716,10.041718,-0.011532,-0.037347,-0.014430,0.000000,0.061035,0.030518
12.475334,0.049098,-0.323328,10.051897,-0.011532,-0.031958,-0.004251,0.000000,0.061035,0.000000
12.485424,0.053289,-0.318538,10.055490,-0.007341,-0.027168,-0.000659,0.000000,0.061035,0.000000
12.495514,0.064067,-0.297581,10.056088,0.003437,-0.006211,-0.000060,0.030518,0.061035,0.030518
12.505604,0.064067,-0.288001,10.051897,0.003437,0.003369,-0.004251,0.000000,0.061035,0.030518
12.515694,0.060474,-0.266446,10.057885,-0.000156,0.024924,0.001736,0.000000,0.061035,0.030518
12.525780,0.063468,-0.258063,10.058483,0.002838,0.033306,0.002335,-0.030518,0.061035,0.030518
12.535868,0.069456,-0.258662,10.061477,0.008826,0.032708,0.005329,-0.030518,0.061035,0.061035
12.545958,0.070653,-0.253273,10.063872,0.010023,0.038097,0.007724,0.000000,0.061035,0.030518
12.556113,0.072449,-0.257465,10.064471,0.011819,0.033905,0.008323,0.000000,0.061035,0.030518
12.566210,0.074246,-0.276625,10.062076,0.013616,0.014745,0.005928,-0.030518,0.091553,0.000000
12.576308,0.082029,-0.277822,10.060280,0.021399,0.013548,0.004131,-0.030518,0.061035,-0.030518
12.586405,0.086221,-0.296982,10.057286,0.025591,-0.005613,0.001138,-0.030518,0.091553,-0.091553
12.596498,0.085622,-0.302970,10.055490,0.024992,-0.011600,-0.000659,-0.030518,0.091553,-0.061035
12.606595,0.082029,-0.325124,10.051298,0.021399,-0.033754,-0.004850,0.030518,0.091553,-0.061035
12.616692,0.079036,-0.325723,10.048304,0.018406,-0.034353,-0.007844,0.061035,0.091553,-0.091553
12.626788,0.073647,-0.329315,10.042317,0.013017,-0.037945,-0.013831,0.030518,0.030518,-0.030518
12.636885,0.050894,-0.322130,10.051298,-0.009736,-0.030760,-0.004850,0.061035,0.061035,-0.030518
12.647011,0.038919,-0.314346,10.053094,-0.021711,-0.022976,-0.003054,0.061035,0.061035,-0.030518
